timestamp,ax,ay,az,gx,gy,gz,roll,pitch_k,acc_norm,gyro_norm,classe_prevista_raw,classe_prevista,delay_ms
1777577672508,-0.0185547,0.86792,-0.621094,0.0580153,-0.418244,0.341832,83.7532,0.664226,1.06742,0.543271,0,0,3.286
1777577672521,-0.057,0.862,-0.610,0.081,-0.412,0.341,100.408,1.639,1.058,0.541,0,0,3.280
1777577672534,-0.051,0.767,-0.598,0.065,-0.417,0.327,108.318,2.023,0.974,0.534,0,0,3.264
1777577672548,0.035,0.768,-0.507,-0.092,-0.512,0.264,111.711,1.082,0.921,0.583,0,0,3.285
1777577672561,-0.014,0.927,-0.520,-0.059,-0.572,0.227,113.103,1.021,1.063,0.619,0,0,3.262
1777577672575,0.034,0.837,-0.495,-0.092,-0.648,0.286,114.280,0.548,0.973,0.714,0,0,3.598
1777577672588,-0.048,0.893,-0.531,-0.083,-0.678,0.326,115.163,0.839,1.040,0.756,0,0,3.272
1777577672602,-0.069,0.854,-0.539,-0.093,-0.689,0.362,116.030,1.216,1.012,0.784,0,0,3.265
1777577672615,-0.107,0.863,-0.536,-0.114,-0.690,0.350,116.673,1.746,1.022,0.782,0,0,3.272
1777577672628,-0.141,0.849,-0.550,-0.140,-0.675,0.329,117.310,2.370,1.021,0.764,0,0,3.254
1777577672642,-0.147,0.851,-0.542,-0.164,-0.655,0.299,117.791,2.925,1.020,0.738,0,0,3.281
1777577672655,-0.154,0.861,-0.536,-0.182,-0.634,0.288,118.149,3.423,1.026,0.720,0,0,3.266
1777577672669,-0.139,0.869,-0.519,-0.193,-0.623,0.290,118.372,3.784,1.022,0.714,0,0,3.463
1777577672682,-0.138,0.879,-0.510,-0.206,-0.610,0.309,118.510,4.089,1.026,0.714,0,0,3.256
1777577672696,-0.159,0.882,-0.507,-0.220,-0.592,0.290,118.610,4.441,1.030,0.695,0,0,3.439
1777577672709,-0.169,0.897,-0.495,-0.230,-0.567,0.264,118.631,4.788,1.038,0.666,0,0,3.267
1777577672723,-0.169,0.906,-0.491,-0.246,-0.542,0.253,118.619,5.093,1.044,0.647,0,0,3.262
1777577672736,-0.159,0.920,-0.500,-0.246,-0.524,0.253,118.611,5.324,1.059,0.631,0,0,3.288
1777577672749,-0.161,0.932,-0.481,-0.243,-0.505,0.261,118.530,5.537,1.061,0.618,0,0,3.283
1777577672764,-0.162,0.935,-0.479,-0.239,-0.483,0.257,118.443,5.733,1.063,0.598,0,0,4.947
1777577672778,-0.181,0.953,-0.468,-0.246,-0.452,0.209,118.307,5.965,1.077,0.555,0,0,3.298
1777577672792,-0.301,0.971,-0.458,-0.249,-0.378,-0.016,118.133,6.523,1.115,0.453,0,0,3.913
1777577672805,-0.403,0.920,-0.467,-0.258,-0.236,-0.239,118.065,7.356,1.108,0.424,0,0,3.396
1777577672819,-0.478,1.648,-0.410,-0.105,-0.066,-0.179,117.291,7.816,1.765,0.217,0,0,3.241
1777577672832,-0.275,1.117,-0.381,0.027,-0.006,-0.032,116.835,8.102,1.212,0.042,0,0,3.257
1777577672845,-0.211,0.916,-0.481,0.062,0.028,0.053,116.882,8.283,1.056,0.086,0,0,3.249
1777577672860,-0.187,0.934,-0.483,0.049,0.038,0.123,116.907,8.377,1.068,0.138,0,0,4.539
1777577672873,-0.156,0.908,-0.473,0.055,0.047,0.167,116.937,8.390,1.036,0.182,0,0,3.250
1777577672888,-0.101,0.905,-0.494,0.045,0.053,0.188,117.023,8.248,1.036,0.201,0,0,4.411
1777577672902,-0.089,0.900,-0.492,0.028,0.054,0.186,117.106,8.083,1.030,0.196,1,1,3.921
1777577672916,-0.031,0.904,-0.484,0.021,0.044,0.145,117.160,7.770,1.026,0.153,1,1,4.002
1777577672930,0.015,0.930,-0.490,0.013,0.019,0.069,117.189,7.351,1.052,0.073,1,1,3.275
1777577672943,0.016,0.948,-0.477,0.010,-0.008,-0.009,117.165,6.954,1.062,0.015,1,1,3.264
1777577672957,0.012,0.947,-0.498,0.007,-0.035,-0.088,117.192,6.588,1.069,0.095,1,1,3.282
1777577672970,-0.062,0.952,-0.494,0.012,-0.049,-0.131,117.203,6.433,1.074,0.141,1,1,3.937
1777577672984,-0.114,0.930,-0.498,0.009,-0.049,-0.122,117.249,6.420,1.061,0.132,1,1,3.282
1777577672997,-0.138,0.933,-0.488,0.001,-0.039,-0.091,117.266,6.471,1.062,0.099,1,1,3.254
1777577673011,-0.156,0.935,-0.487,0.001,-0.024,-0.045,117.276,6.563,1.066,0.051,1,1,3.313
1777577673024,-0.157,0.942,-0.480,0.003,-0.005,0.004,117.264,6.651,1.069,0.007,1,1,3.274
1777577673038,-0.142,0.949,-0.486,0.008,0.004,0.037,117.257,6.693,1.076,0.038,1,1,4.665
1777577673053,-0.112,0.946,-0.477,0.019,0.008,0.052,117.234,6.664,1.066,0.056,1,1,3.268
1777577673066,-0.119,0.938,-0.488,0.025,0.010,0.063,117.246,6.654,1.064,0.069,1,1,3.255
1777577673079,-0.101,0.927,-0.480,0.028,0.012,0.068,117.251,6.602,1.049,0.074,1,1,3.270
1777577673093,-0.084,0.911,-0.489,0.032,0.012,0.063,117.294,6.514,1.038,0.071,1,1,3.260
1777577673107,-0.072,0.911,-0.477,0.029,0.008,0.052,117.311,6.401,1.031,0.060,1,1,3.951
1777577673121,-0.073,0.911,-0.481,0.021,0.006,0.038,117.335,6.296,1.033,0.044,1,1,3.263
1777577673139,-0.073,0.918,-0.481,0.021,0.003,0.021,117.350,6.195,1.039,0.030,1,1,7.334
1777577673152,-0.082,0.917,-0.491,0.019,-0.001,0.009,117.387,6.120,1.043,0.021,1,1,3.255
1777577673167,-0.092,0.918,-0.495,0.018,-0.003,0.008,117.430,6.070,1.047,0.020,1,1,4.774
1777577673180,-0.082,0.923,-0.483,0.019,-0.003,0.005,117.439,6.001,1.045,0.020,1,1,3.929
1777577673196,-0.092,0.909,-0.485,0.011,-0.005,0.001,117.467,5.960,1.035,0.012,1,1,4.436
1777577673210,-0.092,0.914,-0.490,0.011,-0.005,-0.000,117.499,5.919,1.041,0.012,1,1,3.267
1777577673224,-0.082,0.906,-0.493,0.005,-0.004,-0.001,117.545,5.857,1.035,0.006,1,1,4.229
1777577673237,-0.106,0.902,-0.501,-0.002,-0.004,0.007,117.611,5.858,1.037,0.009,1,1,3.265
1777577673251,-0.110,0.912,-0.487,-0.014,0.001,0.023,117.632,5.867,1.039,0.027,4,4,3.934
1777577673265,-0.103,0.916,-0.481,-0.019,0.006,0.039,117.636,5.859,1.039,0.044,4,4,3.266
1777577673278,-0.086,0.918,-0.491,-0.022,0.007,0.043,117.659,5.809,1.045,0.049,4,4,3.252
1777577673292,-0.079,0.947,-0.490,-0.022,0.007,0.041,117.645,5.740,1.069,0.047,4,4,3.323
1777577673305,-0.067,0.932,-0.498,-0.022,0.005,0.031,117.667,5.648,1.059,0.038,4,4,3.323
1777577673320,-0.074,0.943,-0.485,-0.021,-0.003,0.016,117.646,5.575,1.063,0.027,1,1,5.119
1777577673334,-0.074,0.937,-0.492,-0.018,-0.002,0.012,117.650,5.505,1.061,0.022,1,1,3.266
1777577673348,-0.077,0.928,-0.489,-0.020,-0.010,0.000,117.656,5.448,1.052,0.022,1,1,4.054
1777577673362,-0.083,0.928,-0.486,-0.020,-0.015,-0.007,117.654,5.407,1.051,0.026,1,1,3.283
1777577673375,-0.086,0.931,-0.485,-0.019,-0.017,-0.012,117.647,5.375,1.053,0.028,1,1,3.546
1777577673389,-0.073,0.937,-0.483,-0.020,-0.020,-0.015,117.631,5.313,1.057,0.032,1,1,3.960
1777577673403,-0.088,0.931,-0.482,-0.018,-0.019,-0.017,117.620,5.290,1.052,0.031,1,1,3.403
1777577673417,-0.086,0.936,-0.480,-0.017,-0.017,-0.020,117.599,5.264,1.055,0.031,1,1,3.574
1777577673430,-0.095,0.938,-0.479,-0.012,-0.020,-0.020,117.574,5.259,1.058,0.030,1,1,3.254
1777577673444,-0.094,0.939,-0.485,-0.003,-0.018,-0.019,117.563,5.252,1.061,0.026,1,1,3.278
1777577673457,-0.091,0.938,-0.487,-0.001,-0.015,-0.018,117.557,5.237,1.061,0.023,1,1,4.140
1777577673473,-0.091,0.940,-0.484,0.009,-0.014,-0.016,117.543,5.222,1.061,0.023,1,1,3.275
1777577673486,-0.097,0.943,-0.476,0.016,-0.016,-0.013,117.509,5.224,1.061,0.026,1,1,3.273
1777577673500,-0.093,0.945,-0.477,0.030,-0.014,-0.015,117.477,5.214,1.062,0.036,1,1,3.583
1777577673513,-0.092,0.951,-0.467,0.043,-0.016,-0.019,117.419,5.202,1.064,0.049,1,1,3.276
1777577673527,-0.085,0.959,-0.481,0.058,-0.019,-0.028,117.384,5.173,1.077,0.067,2,2,3.938
1777577673541,-0.081,0.968,-0.470,0.078,-0.023,-0.036,117.320,5.135,1.079,0.089,2,2,3.286
1777577673554,-0.083,0.980,-0.478,0.106,-0.025,-0.036,117.262,5.102,1.093,0.115,2,2,3.262
1777577673568,-0.329,1.154,-0.383,0.130,-0.015,-0.016,116.871,5.542,1.260,0.132,2,2,3.286
1777577673581,-0.079,0.971,-0.486,0.134,-0.024,-0.013,116.858,5.481,1.089,0.137,2,2,3.272
1777577673594,-0.113,0.972,-0.501,0.148,-0.014,-0.002,116.875,5.499,1.100,0.148,3,3,4.025
1777577673609,-0.122,0.989,-0.502,0.164,-0.009,0.018,116.877,5.534,1.115,0.165,3,3,3.419
1777577673622,-0.160,1.048,-0.484,0.216,0.011,0.101,116.786,5.637,1.166,0.239,3,3,3.489
1777577673636,-0.306,1.876,-0.498,0.361,0.029,0.254,116.264,5.782,1.965,0.443,3,3,3.270
1777577673649,-0.107,1.008,-0.560,0.605,0.090,0.365,116.387,5.762,1.159,0.712,3,3,3.259
1777577673663,-0.161,1.524,-0.528,0.773,0.089,0.332,116.069,5.759,1.621,0.846,3,3,3.947
1777577673677,-0.171,1.703,-0.491,1.048,0.126,0.093,115.631,5.748,1.780,1.060,3,3,3.268
1777577673690,-0.111,1.579,-0.506,1.279,0.125,0.119,115.287,5.664,1.661,1.291,3,3,3.265
1777577673703,-0.139,1.679,-0.474,1.534,0.135,0.076,114.870,5.616,1.750,1.542,3,3,3.313
1777577673717,-0.112,1.683,-0.482,1.814,0.121,0.076,114.481,5.530,1.754,1.819,3,3,3.827
1777577673731,-0.054,1.607,-0.428,2.076,0.100,-0.024,114.062,5.370,1.664,2.079,4,4,3.928
1777577673745,-0.094,1.468,-0.484,2.293,0.085,-0.193,113.808,5.288,1.548,2.302,4,4,3.268
1777577673758,-0.024,1.275,-0.456,2.471,0.099,-0.189,113.628,5.100,1.355,2.480,4,4,3.278
1777577673772,-0.167,0.989,-0.593,2.501,0.129,-0.168,113.948,5.237,1.165,2.510,4,4,3.266
1777577673785,-0.255,0.838,-0.764,2.477,0.195,-0.105,114.753,5.563,1.163,2.487,4,4,3.283
1777577673799,-0.294,0.319,-0.736,2.243,0.261,-0.042,116.582,6.200,0.855,2.259,4,4,4.049
1777577673813,-0.487,0.145,-0.668,1.885,0.385,0.034,118.822,7.482,0.839,1.924,4,4,3.625
1777577673827,-0.315,-0.575,-0.112,1.133,0.458,0.119,109.203,8.391,0.665,1.228,4,4,3.263
1777577673840,-0.094,-0.008,0.236,0.322,0.328,0.070,104.340,8.970,0.254,0.465,4,4,3.536
1777577673854,0.027,0.438,0.150,-0.026,-0.056,0.050,102.885,8.431,0.464,0.079,4,4,3.312
1777577673867,-0.233,0.048,0.273,-0.612,-0.332,0.255,98.817,9.816,0.362,0.741,4,4,3.881
1777577673881,-0.187,0.501,0.174,-0.985,-0.681,0.331,97.595,10.236,0.563,1.242,4,4,3.285
1777577673895,-0.238,0.594,0.190,-1.145,-0.979,0.260,96.487,10.704,0.667,1.529,4,4,3.258
1777577673908,-0.316,0.604,0.159,-1.271,-1.219,0.195,95.559,11.411,0.700,1.772,4,4,3.279
1777577673922,-0.333,0.487,0.159,-1.496,-1.389,0.282,94.527,12.354,0.611,2.060,4,4,3.257
1777577673936,-0.319,0.452,0.167,-1.848,-1.522,0.434,93.440,13.279,0.578,2.433,4,4,3.952
1777577673950,-0.319,0.625,0.168,-2.179,-1.613,0.477,92.632,13.846,0.721,2.752,4,4,3.270
1777577673964,-0.374,0.786,0.112,-2.411,-1.650,0.477,92.162,14.343,0.878,2.960,4,4,3.312
1777577673978,-0.486,0.921,-0.002,-2.501,-1.606,0.463,92.073,14.931,1.042,3.008,4,4,3.276
1777577673991,-0.579,1.003,-0.150,-2.501,-1.473,0.349,92.354,15.579,1.168,2.924,4,4,3.264
1777577674005,-0.655,1.208,-0.278,-2.501,-1.247,0.185,92.817,16.115,1.402,2.801,5,5,3.962
1777577674019,-0.595,1.321,-0.448,-2.501,-0.971,0.043,93.513,16.421,1.516,2.683,5,5,3.269
1777577674032,-0.368,1.390,-0.628,-2.501,-0.759,-0.040,94.422,16.296,1.569,2.614,5,5,3.281
1777577674045,-0.388,1.506,-0.790,-2.501,-0.508,0.041,95.439,16.145,1.744,2.553,5,5,3.266
1777577674059,-0.398,1.591,-0.927,-2.501,-0.225,0.215,96.524,15.972,1.884,2.521,5,5,3.280
1777577674072,-0.380,1.656,-1.078,-2.501,0.038,0.255,97.684,15.749,2.012,2.515,5,5,3.940
1777577674087,-0.469,1.701,-1.218,-2.453,0.311,0.190,98.906,15.614,2.144,2.480,5,5,3.529
1777577674100,-0.474,1.622,-1.333,-2.034,0.556,0.101,100.240,15.488,2.153,2.111,5,5,3.273
1777577674113,-0.083,1.405,-1.403,-1.579,0.655,-0.038,101.759,14.916,1.987,1.710,5,5,3.257
1777577674127,0.376,1.241,-1.590,-1.126,0.442,0.110,103.520,13.801,2.051,1.214,5,5,3.304
1777577674140,0.627,1.143,-1.628,-0.619,0.045,0.366,105.332,12.433,2.086,0.721,1,1,3.933
1777577674154,0.376,1.021,-1.580,-0.076,-0.294,0.601,107.160,11.394,1.918,0.674,1,1,3.275
1777577674168,0.074,0.921,-1.475,0.358,-0.474,0.512,108.947,10.789,1.740,0.784,1,1,3.279
1777577674182,0.241,2.653,-1.255,1.047,-0.233,0.819,109.226,10.112,2.945,1.350,1,1,4.000
1777577674196,0.467,1.755,0.330,1.078,-0.438,0.693,107.920,9.028,1.845,1.354,1,1,3.268
1777577674209,0.337,1.398,0.444,1.667,-0.568,0.137,106.366,8.068,1.505,1.766,1,1,3.942
1777577674223,-0.264,1.033,-0.073,1.837,-0.339,-0.025,105.826,8.341,1.069,1.869,1,1,3.295
1777577674237,-0.317,1.021,-0.128,1.818,0.164,-0.026,105.446,8.725,1.076,1.825,1,1,3.250
1777577674250,-0.025,0.961,-0.324,1.726,0.238,-0.132,105.585,8.404,1.014,1.748,1,1,3.266
1777577674263,-0.093,0.902,-0.369,1.570,0.215,-0.122,105.876,8.276,0.979,1.589,1,1,3.248
1777577674278,-0.226,0.910,-0.385,1.455,0.117,0.069,106.186,8.477,1.013,1.461,1,1,5.223
1777577674292,-0.193,0.874,-0.472,1.327,0.056,0.238,106.719,8.587,1.012,1.349,1,1,3.254
1777577674307,-0.154,0.859,-0.515,1.168,0.086,0.343,107.341,8.593,1.013,1.221,1,1,4.605
1777577674320,-0.154,0.840,-0.539,1.015,0.193,0.353,108.012,8.600,1.009,1.092,1,1,3.268
1777577674334,-0.076,0.760,-0.669,0.753,0.185,0.310,109.033,8.411,1.015,0.835,1,1,3.896
1777577674348,-0.125,0.736,-0.619,0.500,0.184,0.299,109.953,8.367,0.969,0.611,1,1,3.959
1777577674363,-0.049,0.901,-0.475,0.391,0.174,0.305,110.296,8.121,1.019,0.526,1,1,3.508
1777577674376,-0.028,0.903,-0.478,0.365,0.162,0.283,110.628,7.835,1.022,0.489,1,1,3.269
1777577674389,-0.020,0.903,-0.498,0.331,0.146,0.233,110.988,7.540,1.031,0.430,1,1,3.260
1777577674403,0.139,0.715,-0.668,0.247,0.052,0.160,111.954,6.857,0.988,0.299,1,1,3.273
1777577674416,-0.073,0.863,-0.524,0.117,0.030,0.057,112.361,6.739,1.012,0.133,1,1,3.944
1777577674430,0.035,0.941,-0.509,0.118,0.006,0.028,112.625,6.362,1.071,0.121,1,1,3.274
1777577674444,-0.048,0.915,-0.520,0.096,0.002,0.026,112.930,6.197,1.054,0.100,1,1,3.258
1777577674457,-0.051,0.930,-0.499,0.073,0.002,0.014,113.161,6.047,1.056,0.074,1,1,3.656
1777577674471,-0.020,0.948,-0.486,0.078,-0.000,0.001,113.335,5.829,1.066,0.078,1,1,3.259
1777577674484,-0.020,0.900,-0.519,0.059,-0.008,-0.032,113.624,5.623,1.039,0.068,1,1,3.891
1777577674498,-0.068,0.926,-0.497,0.041,-0.008,-0.018,113.826,5.540,1.053,0.046,1,1,3.440
1777577674512,-0.052,0.920,-0.503,0.034,-0.006,-0.013,114.038,5.423,1.050,0.037,1,1,3.259
1777577674525,-0.060,0.932,-0.491,0.021,-0.008,-0.010,114.202,5.328,1.055,0.025,1,1,3.262
1777577674538,-0.055,0.951,-0.497,0.025,-0.008,-0.000,114.350,5.224,1.075,0.026,1,1,3.270
1777577674554,-0.074,0.934,-0.498,0.013,-0.002,0.011,114.513,5.171,1.061,0.017,1,1,3.918
1777577674568,-0.031,0.953,-0.485,0.025,-0.000,0.006,114.621,5.018,1.070,0.026,1,1,3.257
1777577674581,-0.032,0.930,-0.496,0.023,-0.002,-0.008,114.771,4.875,1.055,0.025,1,1,3.653
1777577674595,-0.043,0.914,-0.494,0.014,-0.003,-0.012,114.929,4.767,1.040,0.019,1,1,3.255
1777577674608,-0.034,0.914,-0.499,0.006,-0.008,-0.024,115.091,4.640,1.042,0.026,1,1,3.249
1777577674622,-0.058,0.912,-0.506,-0.004,-0.010,-0.021,115.263,4.576,1.044,0.024,1,1,3.898
1777577674636,-0.053,0.927,-0.498,-0.008,-0.010,-0.017,115.394,4.503,1.054,0.021,1,1,3.269
1777577674649,-0.051,0.914,-0.504,-0.015,-0.010,-0.019,115.546,4.427,1.045,0.026,1,1,3.262
1777577674662,-0.054,0.905,-0.504,-0.021,-0.006,-0.015,115.703,4.364,1.037,0.026,1,1,3.249
1777577674677,-0.054,0.911,-0.500,-0.030,-0.012,-0.013,115.837,4.305,1.041,0.035,1,1,4.009
1777577674690,-0.028,0.921,-0.484,-0.034,-0.018,-0.024,115.918,4.185,1.041,0.045,1,1,3.883
1777577674704,-0.037,0.928,-0.490,-0.030,-0.021,-0.038,116.001,4.091,1.050,0.053,1,1,3.259
1777577674717,-0.028,0.928,-0.497,-0.028,-0.030,-0.064,116.097,3.977,1.053,0.076,1,1,3.253
1777577674731,-0.049,0.944,-0.482,-0.021,-0.032,-0.082,116.138,3.920,1.061,0.091,1,1,3.263
1777577674744,-0.032,0.947,-0.496,-0.009,-0.039,-0.099,116.204,3.825,1.070,0.107,1,1,3.262
1777577674757,-0.058,0.945,-0.482,-0.003,-0.042,-0.114,116.240,3.794,1.062,0.121,1,1,3.887
1777577674771,-0.050,0.948,-0.487,0.012,-0.044,-0.120,116.281,3.746,1.067,0.129,1,1,3.312
1777577674785,-0.073,0.958,-0.481,0.022,-0.044,-0.124,116.299,3.752,1.074,0.133,1,1,3.269
1777577674798,-0.062,0.966,-0.478,0.045,-0.041,-0.134,116.300,3.732,1.079,0.147,1,1,3.256
1777577674812,-0.053,0.962,-0.480,0.063,-0.048,-0.155,116.309,3.692,1.076,0.175,1,1,3.257
1777577674825,-0.056,0.954,-0.479,0.079,-0.052,-0.177,116.325,3.662,1.070,0.201,1,1,3.883
1777577674839,-0.066,0.954,-0.489,0.089,-0.050,-0.188,116.359,3.657,1.074,0.214,1,1,3.343
1777577674852,-0.091,0.937,-0.501,0.097,-0.059,-0.186,116.438,3.712,1.066,0.219,1,1,3.364
1777577674867,-0.120,0.926,-0.502,0.091,-0.062,-0.155,116.527,3.834,1.060,0.190,1,1,4.436
1777577674880,-0.117,0.924,-0.498,0.096,-0.067,-0.133,116.606,3.944,1.056,0.177,1,1,3.248
1777577674894,-0.167,0.946,-0.494,0.105,-0.060,-0.089,116.648,4.160,1.080,0.150,4,4,4.639
1777577674909,-0.141,0.911,-0.507,0.107,-0.051,-0.048,116.755,4.316,1.052,0.128,4,4,3.265
1777577674922,-0.171,0.932,-0.510,0.103,-0.024,0.000,116.839,4.528,1.076,0.105,4,4,3.297
1777577674936,-0.142,0.932,-0.512,0.110,-0.001,0.043,116.924,4.663,1.073,0.118,4,4,3.266
1777577674949,-0.115,0.941,-0.500,0.114,0.013,0.059,116.972,4.728,1.072,0.129,4,4,3.254
1777577674962,-0.091,0.927,-0.522,0.113,0.009,0.066,117.077,4.734,1.068,0.131,4,4,3.854
1777577674976,-0.036,0.926,-0.517,0.112,0.006,0.045,117.169,4.611,1.061,0.121,4,4,3.242
1777577674991,-0.039,0.918,-0.525,0.093,-0.003,0.038,117.282,4.502,1.058,0.100,4,4,4.466
1777577675005,-0.059,0.955,-0.528,0.107,-0.023,0.060,117.354,4.439,1.092,0.125,4,4,3.894
1777577675021,-0.105,0.960,-0.535,0.164,-0.028,0.117,117.431,4.485,1.104,0.203,4,4,5.484
1777577675034,-0.085,1.052,-0.527,0.211,-0.045,0.225,117.394,4.470,1.180,0.312,4,4,3.889
1777577675048,-0.263,1.391,-0.544,0.302,-0.029,0.268,117.130,4.711,1.517,0.405,4,4,3.311
1777577675061,-0.001,1.311,-0.498,0.558,0.043,0.159,116.853,4.506,1.403,0.581,4,4,3.263
1777577675075,-0.075,1.157,-0.541,0.624,0.050,0.197,116.774,4.455,1.279,0.656,4,4,3.257
1777577675088,-0.194,1.197,-0.552,0.702,0.089,0.225,116.686,4.627,1.332,0.742,4,4,3.258
1777577675102,-0.228,1.273,-0.557,0.848,0.134,0.199,116.553,4.832,1.408,0.881,4,4,3.877
1777577675116,-0.154,1.404,-0.556,1.013,0.132,0.111,116.336,4.876,1.518,1.028,4,4,3.265
1777577675129,-0.037,1.245,-0.525,1.149,0.124,0.099,116.184,4.731,1.352,1.160,4,4,3.258
1777577675143,-0.056,1.254,-0.566,1.282,0.114,0.046,116.101,4.626,1.377,1.288,4,4,3.313
1777577675156,0.016,1.238,-0.542,1.438,0.084,0.021,115.993,4.394,1.351,1.440,4,4,3.261
1777577675169,0.013,1.274,-0.530,1.590,0.046,-0.011,115.845,4.179,1.380,1.591,4,4,3.877
1777577675184,0.038,1.309,-0.540,1.792,0.019,-0.070,115.694,3.929,1.417,1.794,4,4,3.262
1777577675198,0.039,1.280,-0.533,1.974,-0.009,-0.146,115.559,3.687,1.387,1.979,4,4,3.258
1777577675211,0.097,1.323,-0.567,2.168,-0.035,-0.206,115.456,3.358,1.443,2.178,4,4,3.285
1777577675224,0.134,1.367,-0.539,2.405,-0.078,-0.241,115.283,2.983,1.475,2.418,4,4,3.269
1777577675238,0.161,1.507,-0.599,2.501,-0.128,-0.280,115.127,2.604,1.629,2.520,4,4,3.962
1777577675252,0.153,1.406,-0.662,2.501,-0.188,-0.203,115.130,2.245,1.562,2.517,4,4,3.269
1777577675265,0.081,1.338,-0.813,2.501,-0.231,-0.175,115.400,2.018,1.568,2.518,4,4,3.272
1777577675279,0.132,1.166,-0.810,2.501,-0.253,-0.194,115.810,1.697,1.426,2.522,4,4,3.276
1777577675292,-0.056,1.274,-0.817,2.501,-0.216,-0.135,116.110,1.716,1.514,2.514,4,4,3.252
1777577675305,-0.001,1.127,-0.910,2.501,-0.172,0.308,116.670,1.643,1.448,2.526,4,4,3.891
1777577675319,0.115,1.007,-0.859,2.501,-0.244,0.734,117.273,1.353,1.328,2.618,4,4,3.259
1777577675333,0.093,0.926,-0.623,2.501,-0.376,0.938,117.565,1.087,1.120,2.698,4,4,3.267
1777577675346,-0.067,1.471,-0.478,2.501,-0.508,1.082,117.147,1.148,1.548,2.772,4,4,3.619
1777577675360,-0.088,1.027,-0.048,2.501,-0.583,1.125,116.076,1.311,1.031,2.804,4,4,3.284
1777577675373,0.083,-0.665,0.292,2.501,-0.637,0.782,108.103,0.970,0.731,2.697,4,4,3.946
1777577675387,-0.284,-0.376,-0.623,1.818,-0.486,0.368,96.864,1.859,0.781,1.917,4,4,3.291
1777577675401,-0.567,-0.770,-0.478,0.757,-0.197,-0.217,87.300,3.179,1.069,0.812,4,4,3.270
1777577675414,-0.558,-0.701,-0.354,-0.317,0.151,-0.736,78.375,4.588,0.963,0.815,4,4,3.350
1777577675428,-0.470,-0.331,-0.338,-1.192,0.434,-0.871,69.017,6.347,0.668,1.539,4,4,3.271
1777577675441,-0.186,-0.114,-0.262,-1.847,0.573,-0.873,59.155,7.517,0.341,2.122,4,4,3.889
1777577675455,-0.052,0.070,-0.229,-2.365,0.542,-0.758,63.697,7.725,0.245,2.542,4,4,3.274
1777577675468,0.056,0.036,-0.218,-2.501,0.436,-0.596,68.374,6.768,0.227,2.608,4,4,3.249
1777577675482,0.040,0.224,-0.239,-2.501,0.264,-0.320,71.368,6.167,0.330,2.536,4,4,3.293
1777577675495,0.140,0.426,-0.248,-2.501,0.114,-0.131,73.503,5.204,0.512,2.507,4,4,3.258
1777577675509,0.177,0.722,-0.292,-2.501,-0.084,0.026,75.187,4.417,0.799,2.503,4,4,3.909
1777577675523,0.110,0.826,-0.415,-2.501,-0.241,0.222,77.000,3.928,0.931,2.523,4,4,3.337
1777577675536,0.079,0.740,-0.489,-2.501,-0.369,0.204,79.031,3.533,0.891,2.537,4,4,3.265
1777577675550,-0.021,0.668,-0.542,-2.501,-0.439,0.028,81.219,3.439,0.861,2.540,4,4,3.335
1777577675563,-0.101,0.664,-0.608,-2.501,-0.460,-0.139,83.461,3.568,0.906,2.547,4,4,3.246
1777577675576,-0.146,0.645,-0.667,-2.501,-0.435,-0.209,85.758,3.804,0.939,2.547,5,5,3.898
1777577675590,-0.215,0.711,-0.722,-2.501,-0.341,-0.203,87.931,4.161,1.036,2.533,5,5,3.253
1777577675604,-0.282,0.798,-0.756,-2.501,-0.168,-0.234,89.922,4.608,1.134,2.518,5,5,3.296
1777577675617,-0.352,0.893,-0.795,-2.501,0.073,-0.315,91.748,5.124,1.246,2.522,5,5,3.256
1777577675630,-0.321,0.960,-0.791,-2.501,0.341,-0.396,93.399,5.533,1.285,2.555,5,5,3.268
1777577675644,-0.244,0.989,-0.795,-2.501,0.583,-0.384,94.948,5.766,1.292,2.597,5,5,3.914
1777577675658,-0.095,1.014,-0.762,-2.501,0.754,-0.272,96.345,5.702,1.272,2.627,5,5,3.281
1777577675671,0.035,1.051,-0.750,-2.501,0.828,-0.138,97.620,5.385,1.292,2.639,5,5,3.271
1777577675685,0.118,1.088,-0.741,-2.501,0.819,-0.052,98.784,4.925,1.322,2.632,5,5,3.296
1777577675699,0.166,1.142,-0.740,-2.501,0.763,0.029,99.842,4.406,1.371,2.615,5,5,3.626
1777577675712,0.183,1.220,-0.746,-2.501,0.675,0.121,100.786,3.893,1.442,2.594,5,5,3.948
1777577675726,0.154,1.328,-0.759,-2.501,0.567,0.207,101.616,3.472,1.537,2.573,5,5,3.279
1777577675740,0.033,1.373,-0.792,-2.501,0.480,0.241,102.418,3.268,1.585,2.558,5,5,3.254
1777577675753,-0.005,1.421,-0.861,-2.469,0.396,0.155,103.240,3.132,1.662,2.505,5,5,3.275
1777577675767,0.008,1.451,-0.942,-2.362,0.306,-0.045,104.103,2.983,1.730,2.382,5,5,3.263
1777577675780,0.112,1.455,-1.043,-2.206,0.210,-0.224,105.045,2.696,1.794,2.228,5,5,3.853
1777577675794,0.292,1.387,-1.170,-2.012,0.064,-0.315,106.143,2.178,1.837,2.037,5,5,3.288
1777577675808,0.416,1.311,-1.299,-1.774,-0.118,-0.195,107.394,1.527,1.892,1.788,5,5,3.253
1777577675822,0.389,1.270,-1.426,-1.432,-0.277,0.235,108.746,0.956,1.948,1.478,5,5,3.880
1777577675835,0.194,1.118,-1.598,-1.023,-0.395,0.823,110.332,0.665,1.960,1.371,5,5,3.262
1777577675848,-0.266,0.927,-1.669,-0.583,-0.349,1.034,112.109,0.983,1.927,1.237,1,1,3.892
1777577675862,-1.032,1.431,-1.722,0.714,-0.079,-0.526,113.340,2.023,2.466,0.890,1,1,3.267
1777577675876,-0.952,1.376,-2.097,1.698,0.105,-0.997,114.800,2.844,2.683,1.972,1,1,3.257
1777577675890,-0.170,0.671,-0.149,2.130,0.543,-0.389,114.262,3.326,0.708,2.232,1,1,4.568
1777577675904,0.023,1.191,0.174,2.112,0.169,-0.304,112.838,3.132,1.204,2.141,1,1,3.252
1777577675918,0.030,1.075,-0.201,2.417,-0.146,-0.421,112.302,2.927,1.094,2.457,1,1,5.091
1777577675932,-0.595,0.773,-0.444,2.281,-0.007,-0.243,112.634,4.274,1.072,2.293,1,1,3.327
1777577675948,-0.028,0.878,-0.581,2.047,0.117,0.008,113.107,4.153,1.053,2.050,1,1,3.268
1777577675962,-0.078,0.760,-0.655,1.803,0.091,-0.056,113.881,4.167,1.006,1.806,1,1,3.256
1777577675978,-0.205,0.320,-1.150,1.260,0.231,0.020,116.092,4.411,1.211,1.281,1,1,3.296
1777577675991,-0.028,0.701,-0.731,0.823,0.107,-0.058,116.971,4.288,1.013,0.832,1,1,3.894
1777577676005,0.170,0.175,-1.013,0.325,-0.019,-0.033,119.299,3.690,1.042,0.327,1,1,3.459
1777577676019,-0.048,0.756,-0.662,0.318,0.022,0.103,119.818,3.649,1.006,0.335,1,1,3.257
1777577676032,-0.116,0.830,-0.574,0.184,0.040,0.139,120.032,3.777,1.016,0.234,1,1,3.266
1777577676045,-0.140,0.816,-0.584,0.085,0.081,0.184,120.275,3.959,1.013,0.219,1,1,3.298
1777577676059,-0.118,0.948,-0.505,0.042,0.083,0.192,120.178,4.060,1.081,0.213,1,1,4.136
1777577676073,-0.044,0.925,-0.495,0.039,0.088,0.165,120.089,3.988,1.050,0.191,1,1,3.287
1777577676086,-0.055,0.919,-0.521,0.041,0.063,0.128,120.066,3.944,1.058,0.149,1,1,3.259
1777577676102,-0.069,0.942,-0.493,0.040,0.049,0.094,119.960,3.935,1.066,0.114,1,1,3.294
1777577676115,-0.096,0.908,-0.521,0.032,0.035,0.081,119.956,3.991,1.052,0.094,1,1,3.256
1777577676129,-0.096,0.931,-0.520,0.029,0.030,0.078,119.922,4.041,1.070,0.089,1,1,4.132
1777577676144,-0.104,0.955,-0.491,0.043,0.029,0.071,119.802,4.107,1.079,0.088,1,1,3.265
1777577676157,-0.082,0.964,-0.497,0.050,0.026,0.062,119.691,4.115,1.088,0.084,1,1,3.256
1777577676173,-0.089,0.949,-0.507,0.059,0.022,0.043,119.622,4.141,1.080,0.076,1,1,3.290
1777577676186,-0.080,0.945,-0.513,0.066,0.023,0.039,119.573,4.146,1.078,0.080,1,1,3.254
1777577676200,-0.102,0.930,-0.522,0.065,0.024,0.044,119.561,4.203,1.071,0.082,1,1,4.704
1777577676215,-0.098,0.934,-0.510,0.064,0.031,0.061,119.519,4.250,1.069,0.093,1,1,3.356
1777577676229,-0.107,0.917,-0.519,0.062,0.034,0.064,119.518,4.318,1.059,0.095,1,1,3.271
1777577676242,-0.095,0.906,-0.525,0.051,0.042,0.068,119.543,4.356,1.052,0.095,1,1,3.262
1777577676255,-0.084,0.919,-0.508,0.053,0.044,0.070,119.517,4.366,1.054,0.098,1,1,3.271
1777577676269,-0.124,0.889,-0.525,0.050,0.042,0.068,119.563,4.475,1.040,0.094,1,1,3.915
1777577676283,0.051,0.961,-0.478,0.062,0.037,0.029,119.426,4.160,1.075,0.078,1,1,3.265
1777577676296,-0.059,0.880,-0.530,0.041,0.036,0.014,119.499,4.122,1.029,0.057,1,1,3.262
1777577676310,-0.067,0.910,-0.509,0.045,0.031,0.006,119.486,4.102,1.045,0.055,1,1,3.264
1777577676324,-0.054,0.898,-0.530,0.031,0.023,-0.009,119.531,4.053,1.044,0.039,1,1,4.385
1777577676337,-0.089,0.932,-0.518,0.066,0.010,0.008,119.510,4.084,1.070,0.067,2,2,3.900
1777577676351,-0.064,0.903,-0.536,0.070,-0.005,0.003,119.563,4.057,1.052,0.070,2,2,3.280
1777577676365,-0.037,0.913,-0.520,0.082,-0.020,-0.001,119.566,3.967,1.051,0.084,2,2,3.638
1777577676378,-0.076,0.865,-0.557,0.061,-0.027,0.038,119.706,3.980,1.032,0.077,2,2,3.266
1777577676392,-0.058,1.022,-0.519,0.096,-0.039,0.077,119.583,3.931,1.148,0.129,2,2,3.341
1777577676405,-0.129,0.988,-0.561,0.207,-0.025,0.114,119.583,4.043,1.143,0.238,1,1,4.015
1777577676420,-0.142,0.979,-0.540,0.254,-0.031,0.061,119.552,4.182,1.127,0.264,1,1,3.279
1777577676433,-0.115,0.924,-0.542,0.264,-0.020,0.092,119.587,4.268,1.077,0.280,1,1,3.284
1777577676446,-0.083,0.934,-0.540,0.278,-0.005,0.135,119.606,4.274,1.082,0.310,1,1,3.269
1777577676460,-0.070,0.949,-0.561,0.302,-0.001,0.156,119.648,4.247,1.104,0.340,1,1,3.253
1777577676473,-0.067,0.998,-0.553,0.334,0.016,0.145,119.620,4.208,1.143,0.364,5,5,3.886
1777577676487,-0.046,0.948,-0.562,0.372,0.023,0.131,119.665,4.128,1.103,0.395,5,5,3.253
1777577676500,-0.108,0.965,-0.592,0.398,0.033,0.113,119.746,4.187,1.137,0.415,5,5,3.248
1777577676514,-0.096,0.954,-0.581,0.434,0.051,0.103,119.816,4.218,1.121,0.449,5,5,3.257
1777577676527,-0.076,0.975,-0.579,0.466,0.063,0.069,119.855,4.201,1.137,0.476,5,5,3.254
1777577676540,-0.087,0.972,-0.595,0.499,0.070,0.038,119.926,4.208,1.143,0.506,4,4,3.905
1777577676559,-0.070,0.997,-0.629,0.553,0.069,0.025,120.027,4.172,1.181,0.558,4,4,4.166
1777577676573,-0.015,1.016,-0.612,0.616,0.061,0.006,120.072,4.020,1.187,0.619,4,4,3.281
1777577676586,-0.077,1.043,-0.611,0.686,0.069,-0.000,120.084,4.004,1.211,0.689,4,4,3.249
1777577676600,-0.078,1.055,-0.642,0.750,0.075,0.019,120.138,3.986,1.237,0.754,4,4,3.317
1777577676613,-0.122,1.076,-0.640,0.826,0.082,0.036,120.165,4.054,1.258,0.831,4,4,3.905
1777577676627,-0.115,1.127,-0.659,0.918,0.075,0.074,120.170,4.098,1.311,0.924,4,4,3.270
1777577676640,-0.184,1.149,-0.680,1.029,0.085,0.091,120.190,4.263,1.348,1.037,4,4,3.267
1777577676654,-0.138,1.253,-0.621,1.184,0.122,0.108,120.022,4.322,1.405,1.195,4,4,3.245
1777577676667,-0.108,1.266,-0.624,1.361,0.143,0.106,119.856,4.324,1.416,1.372,4,4,3.286
1777577676680,-0.083,1.395,-0.640,1.558,0.155,0.105,119.629,4.271,1.537,1.570,4,4,3.903
1777577676697,-0.023,1.447,-0.627,1.889,0.159,0.060,119.358,4.122,1.577,1.896,4,4,5.342
1777577676710,0.024,1.524,-0.658,2.159,0.182,0.078,119.095,3.905,1.660,2.168,4,4,3.251
1777577676723,-0.173,1.661,-0.684,2.483,0.211,0.046,118.801,3.975,1.804,2.493,4,4,3.289
1777577676737,-0.097,1.619,-0.763,2.501,0.245,0.048,118.644,3.938,1.792,2.514,4,4,3.266
1777577676750,-0.120,1.673,-0.861,2.501,0.267,0.115,118.582,3.925,1.886,2.518,4,4,3.957
1777577676764,0.018,1.765,-1.021,2.501,0.264,0.187,118.646,3.730,2.039,2.522,4,4,3.260
1777577676778,0.121,1.355,-0.933,2.501,0.204,0.442,118.904,3.383,1.650,2.548,4,4,3.261
1777577676791,-0.030,1.611,-0.964,2.501,0.212,0.704,118.992,3.276,1.877,2.607,4,4,3.264
1777577676804,0.022,1.965,-0.751,2.501,0.202,1.199,118.639,3.106,2.104,2.781,4,4,3.255
1777577676818,-0.119,1.838,-0.666,2.501,0.104,1.810,118.258,3.123,1.959,3.089,4,4,3.899
1777577676832,0.002,1.584,-0.045,2.501,0.002,2.203,117.094,2.983,1.585,3.333,4,4,3.256
1777577676845,1.091,-1.413,1.104,2.501,-0.501,1.842,109.699,1.482,2.099,3.146,4,4,3.258
1777577676858,0.156,-0.192,-0.865,1.697,-0.648,1.529,97.578,0.981,0.899,2.374,4,4,3.256
1777577676872,-0.082,-0.217,-0.650,0.853,-0.666,0.746,86.248,1.237,0.690,1.315,4,4,3.453
1777577676885,-0.249,-0.129,-0.332,-0.062,-0.549,0.021,75.535,2.712,0.434,0.553,4,4,3.891
1777577676900,-0.418,0.303,-0.414,-0.619,-0.328,-0.388,78.521,4.305,0.662,0.801,4,4,3.506
1777577676916,-0.388,0.406,-0.258,-0.942,-0.069,-0.650,80.441,5.817,0.618,1.147,4,4,3.262
1777577676929,-0.307,0.309,-0.199,-1.173,0.093,-0.707,82.295,7.305,0.478,1.373,4,4,3.457
1777577676943,-0.222,0.235,-0.181,-1.404,0.165,-0.616,84.281,8.597,0.371,1.542,4,4,3.269
1777577676956,-0.179,0.178,-0.138,-1.654,0.184,-0.344,86.182,9.901,0.288,1.700,4,4,3.851
1777577676970,-0.102,0.155,-0.141,-1.945,0.127,-0.088,88.197,10.605,0.233,1.952,4,4,3.260
1777577676983,-0.012,0.183,-0.130,-2.219,-0.026,-0.015,89.820,10.272,0.225,2.219,4,4,3.253
1777577676997,0.008,0.250,-0.183,-2.481,-0.239,-0.013,91.406,9.756,0.310,2.493,4,4,3.288
1777577677010,-0.048,0.308,-0.224,-2.501,-0.441,0.024,92.920,9.641,0.383,2.540,4,4,3.251
1777577677026,-0.122,0.460,-0.261,-2.501,-0.610,0.119,94.087,9.787,0.543,2.577,4,4,3.883
1777577677040,-0.174,0.619,-0.325,-2.501,-0.709,0.182,95.120,9.971,0.720,2.606,4,4,3.257
1777577677053,-0.165,0.779,-0.402,-2.501,-0.772,0.166,96.089,9.999,0.892,2.623,4,4,3.267
1777577677067,-0.173,0.864,-0.540,-2.501,-0.828,0.089,97.222,9.983,1.034,2.636,4,4,3.285
1777577677081,-0.206,0.927,-0.643,-2.501,-0.845,0.003,98.425,9.999,1.146,2.640,4,4,3.645
1777577677097,-0.334,1.105,-0.792,-2.501,-0.752,-0.069,99.615,10.165,1.401,2.613,5,5,6.656
1777577677111,-0.369,1.136,-0.890,-2.501,-0.560,-0.192,100.860,10.348,1.490,2.570,5,5,3.258
1777577677129,-0.383,1.145,-0.962,-2.501,-0.245,-0.360,102.136,10.524,1.544,2.539,5,5,6.356
1777577677142,-0.342,1.110,-0.991,-2.501,0.022,-0.408,103.432,10.630,1.527,2.534,5,5,3.247
1777577677156,-0.259,1.092,-0.990,-2.501,0.274,-0.385,104.690,10.601,1.496,2.545,5,5,3.840
1777577677169,-0.149,1.183,-1.010,-2.501,0.461,-0.270,105.818,10.377,1.563,2.558,5,5,3.875
1777577677186,-0.027,1.377,-1.087,-2.501,0.591,-0.005,106.801,9.962,1.754,2.570,5,5,5.549
1777577677199,0.072,1.471,-1.234,-2.501,0.566,0.183,107.815,9.433,1.921,2.571,5,5,3.250
1777577677213,0.077,1.512,-1.387,-2.501,0.424,0.278,108.896,8.927,2.053,2.552,5,5,3.989
1777577677226,-0.108,1.570,-1.574,-2.501,0.276,0.374,110.040,8.658,2.226,2.544,5,5,3.267
1777577677240,-0.311,1.540,-1.792,-2.501,0.193,0.374,111.321,8.608,2.383,2.537,5,5,3.894
1777577677254,-0.288,1.346,-1.909,-2.069,0.170,0.097,112.785,8.539,2.354,2.078,5,5,3.256
1777577677267,0.072,1.106,-2.067,-1.616,-0.001,-0.224,114.494,8.089,2.345,1.631,5,5,3.258
1777577677281,0.224,0.934,-2.233,-1.124,-0.210,-0.185,116.366,7.504,2.431,1.159,5,5,3.308
1777577677294,0.005,0.911,-2.291,-0.508,-0.258,0.207,118.200,7.170,2.466,0.606,5,5,3.264
1777577677307,-0.370,0.670,-2.242,0.060,-0.151,0.482,120.175,7.250,2.369,0.509,5,5,3.929
1777577677322,1.003,-4.000,-4.000,1.535,0.260,0.297,109.016,6.493,5.745,1.585,5,5,3.269
1777577677335,0.668,1.134,-0.341,2.003,0.093,0.073,108.915,4.922,1.360,2.006,5,5,3.263
1777577677348,0.347,1.330,0.360,2.501,-0.125,-0.154,107.425,4.088,1.421,2.509,5,5,3.265
1777577677362,-0.156,0.737,-0.483,2.487,-0.087,-0.275,108.117,4.348,0.894,2.503,5,5,3.262
1777577677377,-0.105,0.896,-0.411,2.196,0.135,-0.318,108.403,4.423,0.992,2.223,1,1,3.919
1777577677391,-0.127,0.845,-0.601,1.891,0.268,-0.251,109.148,4.536,1.045,1.926,1,1,3.266
1777577677406,-0.232,0.781,-0.601,1.558,0.275,-0.144,109.955,4.918,1.012,1.588,1,1,3.324
1777577677419,-0.269,0.789,-0.651,1.306,0.277,-0.015,110.811,5.348,1.057,1.335,1,1,3.257
1777577677433,-0.121,0.591,-0.845,0.942,0.213,0.057,112.308,5.407,1.039,0.968,1,1,3.506
1777577677446,-0.134,0.796,-0.606,0.697,0.201,0.035,112.964,5.505,1.009,0.726,1,1,3.912
1777577677460,-0.127,0.877,-0.545,0.600,0.196,0.031,113.353,5.571,1.040,0.632,1,1,3.281
1777577677474,-0.007,0.870,-0.508,0.359,0.042,0.002,113.656,5.345,1.008,0.362,1,1,3.257
1777577677487,-0.041,0.740,-0.602,0.220,0.026,0.010,114.331,5.220,0.955,0.222,1,1,3.278
1777577677500,-0.124,0.943,-0.492,0.198,-0.011,-0.008,114.474,5.283,1.071,0.198,1,1,3.390
1777577677514,-0.058,0.872,-0.540,0.165,-0.014,-0.020,114.793,5.194,1.028,0.167,1,1,3.949
1777577677530,-0.074,0.918,-0.520,0.136,-0.050,-0.066,115.000,5.142,1.058,0.159,1,1,3.286
1777577677543,-0.127,0.947,-0.520,0.139,-0.080,-0.079,115.165,5.211,1.088,0.178,1,1,3.245
1777577677560,-0.109,0.915,-0.513,0.139,-0.086,-0.089,115.345,5.241,1.055,0.186,1,1,6.666
1777577677573,-0.145,0.932,-0.524,0.130,-0.091,-0.076,115.520,5.349,1.079,0.176,1,1,3.258
1777577677587,-0.151,0.921,-0.535,0.122,-0.083,-0.060,115.723,5.467,1.075,0.159,1,1,3.937
1777577677601,-0.130,0.922,-0.521,0.116,-0.078,-0.042,115.886,5.535,1.067,0.146,1,1,3.263
1777577677616,-0.156,0.907,-0.526,0.107,-0.062,-0.029,116.072,5.663,1.060,0.127,1,1,3.272
1777577677629,-0.165,0.888,-0.522,0.094,-0.045,-0.004,116.262,5.813,1.043,0.104,1,1,3.256
1777577677643,-0.166,0.887,-0.543,0.083,-0.027,0.012,116.491,5.955,1.054,0.088,1,1,3.300
1777577677656,-0.163,0.893,-0.530,0.067,-0.008,0.027,116.674,6.084,1.051,0.073,1,1,3.859
1777577677670,-0.120,0.901,-0.514,0.059,-0.008,0.021,116.806,6.108,1.044,0.064,1,1,3.630
1777577677684,-0.108,0.911,-0.536,0.057,-0.017,0.012,116.968,6.096,1.062,0.060,1,1,3.262
1777577677697,-0.111,0.892,-0.539,0.057,-0.020,0.004,117.150,6.094,1.048,0.061,1,1,3.250
1777577677710,-0.101,0.878,-0.532,0.053,-0.023,-0.010,117.328,6.072,1.031,0.059,1,1,3.270
1777577677724,-0.144,0.878,-0.533,0.047,-0.014,-0.002,117.501,6.155,1.037,0.049,1,1,3.853
1777577677740,-0.123,0.882,-0.539,0.031,-0.001,0.007,117.672,6.183,1.041,0.032,1,1,3.259
1777577677753,-0.132,0.893,-0.532,0.034,0.001,0.005,117.808,6.229,1.047,0.034,1,1,3.258
1777577677770,-0.109,0.905,-0.542,0.038,-0.004,-0.009,117.944,6.215,1.060,0.039,1,1,3.285
1777577677783,-0.099,0.912,-0.528,0.044,-0.009,-0.026,118.038,6.177,1.058,0.052,1,1,3.257
1777577677797,-0.111,0.914,-0.549,0.049,-0.010,-0.042,118.166,6.166,1.072,0.065,1,1,4.096
1777577677811,-0.143,0.922,-0.542,0.054,-0.001,-0.035,118.264,6.229,1.079,0.064,1,1,3.259
1777577677824,-0.127,0.920,-0.535,0.067,0.002,-0.033,118.349,6.254,1.072,0.075,1,1,3.447
1777577677837,-0.115,0.911,-0.542,0.076,0.006,-0.056,118.455,6.251,1.066,0.095,1,1,3.265
1777577677851,-0.147,0.912,-0.539,0.081,0.016,-0.066,118.548,6.323,1.070,0.106,1,1,3.250
1777577677864,-0.131,0.912,-0.540,0.081,0.023,-0.063,118.639,6.353,1.068,0.105,2,2,3.943
1777577677878,-0.148,0.916,-0.541,0.089,0.036,-0.037,118.723,6.422,1.074,0.103,2,2,3.255
1777577677892,-0.190,0.934,-0.556,0.090,0.043,0.018,118.811,6.576,1.104,0.101,2,2,3.295
1777577677905,-0.201,0.979,-0.555,0.127,0.041,0.103,118.843,6.731,1.144,0.168,2,2,3.268
1777577677919,-0.281,1.083,-0.543,0.248,0.078,0.139,118.747,7.008,1.243,0.295,2,2,3.652
1777577677932,-0.105,0.931,-0.553,0.240,0.071,0.174,118.833,6.944,1.088,0.305,4,4,3.931
1777577677946,-0.114,0.964,-0.561,0.266,0.073,0.180,118.893,6.896,1.121,0.329,4,4,3.262
1777577677960,-0.134,0.944,-0.572,0.290,0.075,0.183,118.994,6.898,1.112,0.351,4,4,3.269
1777577677973,-0.141,1.048,-0.559,0.345,0.085,0.169,118.954,6.893,1.196,0.393,4,4,3.256
1777577677988,-0.146,1.113,-0.585,0.420,0.097,0.146,118.901,6.881,1.266,0.456,4,4,3.401
1777577678002,-0.147,1.243,-0.589,0.536,0.112,0.104,118.746,6.848,1.383,0.558,4,4,3.932
1777577678016,-0.127,1.333,-0.582,0.700,0.129,0.068,118.519,6.766,1.460,0.715,4,4,3.274
1777577678029,-0.140,1.348,-0.577,0.855,0.137,0.051,118.286,6.708,1.473,0.867,4,4,3.263
1777577678043,-0.168,1.370,-0.571,1.029,0.162,0.033,118.039,6.697,1.493,1.042,4,4,3.248
1777577678058,-0.187,1.331,-0.564,1.217,0.166,0.049,117.817,6.727,1.458,1.230,4,4,3.290
1777577678071,-0.203,1.348,-0.576,1.402,0.178,0.060,117.612,6.777,1.480,1.415,4,4,3.862
1777577678085,-0.092,1.346,-0.540,1.616,0.143,0.052,117.361,6.640,1.453,1.624,4,4,3.673
1777577678099,-0.076,1.486,-0.521,1.860,0.128,0.068,117.009,6.471,1.577,1.865,4,4,3.461
1777577678112,-0.024,1.449,-0.511,2.128,0.113,-0.042,116.678,6.227,1.537,2.132,4,4,3.285
1777577678126,0.105,1.613,-0.502,2.431,0.089,-0.135,116.267,5.799,1.693,2.436,4,4,3.257
1777577678139,0.088,1.744,-0.561,2.501,0.051,-0.239,115.897,5.425,1.834,2.513,4,4,3.887
1777577678153,0.081,1.977,-0.622,2.501,0.019,-0.251,115.529,5.090,2.074,2.514,4,4,3.252
1777577678167,0.056,1.919,-0.676,2.501,0.031,-0.132,115.261,4.799,2.035,2.505,4,4,3.249
1777577678180,-0.064,1.513,-0.784,2.501,0.085,-0.100,115.355,4.683,1.706,2.505,4,4,3.280
1777577678194,-0.101,1.465,-0.910,2.501,0.054,-0.005,115.639,4.625,1.728,2.502,4,4,3.290
1777577678207,-0.067,1.340,-0.819,2.501,0.121,0.439,115.893,4.529,1.571,2.542,4,4,4.448
1777577678221,0.187,1.066,-0.606,2.501,0.015,1.085,116.055,3.953,1.241,2.726,4,4,3.276
1777577678235,0.249,1.108,-0.381,2.501,-0.211,1.332,115.745,3.255,1.198,2.841,4,4,3.260
1777577678248,0.088,1.205,0.194,2.501,-0.424,1.438,114.219,2.933,1.224,2.916,4,4,3.255
1777577678262,-0.072,0.309,-0.010,2.501,-0.479,1.095,113.245,3.381,0.317,2.772,4,4,3.308
1777577678275,0.073,-0.913,-0.413,2.422,-0.490,0.672,103.293,3.050,1.004,2.560,4,4,3.915
1777577678289,-0.434,-0.554,-0.536,1.475,-0.271,0.318,92.913,4.201,0.884,1.533,4,4,3.260
1777577678306,-0.423,-0.703,-0.434,0.285,0.153,-0.510,83.529,5.203,0.928,0.604,4,4,3.263
1777577678319,-0.372,-0.515,-0.303,-0.611,0.452,-0.979,74.606,6.370,0.704,1.239,4,4,3.263
1777577678333,-0.103,-0.247,-0.196,-1.358,0.626,-1.207,65.724,6.881,0.331,1.921,4,4,3.848
1777577678346,0.043,-0.068,-0.127,-1.912,0.624,-1.124,56.210,5.849,0.150,2.304,4,4,3.911
1777577678360,0.136,-0.044,-0.126,-2.391,0.558,-0.808,46.722,3.608,0.191,2.585,4,4,3.307
1777577678374,0.177,0.005,-0.108,-2.501,0.402,-0.308,52.432,0.891,0.208,2.552,4,4,3.266
1777577678387,0.191,0.218,-0.128,-2.501,0.259,0.181,55.408,-0.769,0.317,2.521,4,4,3.268
1777577678400,0.277,0.341,-0.142,-2.501,0.066,0.438,57.911,-2.346,0.462,2.540,4,4,3.262
1777577678414,0.278,0.582,-0.157,-2.501,-0.134,0.534,59.976,-3.326,0.664,2.561,4,4,3.929
1777577678428,0.132,0.743,-0.248,-2.501,-0.277,0.636,62.095,-3.598,0.794,2.596,4,4,3.274
1777577678441,0.029,0.735,-0.338,-2.501,-0.339,0.668,64.396,-3.531,0.810,2.611,4,4,3.254
1777577678459,-0.044,0.710,-0.406,-2.501,-0.350,0.553,66.816,-3.240,0.819,2.585,4,4,6.835
1777577678472,-0.129,0.702,-0.486,-2.501,-0.340,0.374,69.346,-2.723,0.863,2.552,4,4,3.264
1777577678485,-0.156,0.828,-0.551,-2.501,-0.304,0.138,71.721,-2.213,1.007,2.524,5,5,3.889
1777577678503,-0.191,1.006,-0.641,-2.501,-0.214,-0.030,73.942,-1.719,1.207,2.511,5,5,3.269
1777577678519,-0.152,1.154,-0.713,-2.501,-0.118,-0.033,76.030,-1.364,1.365,2.504,5,5,5.890
1777577678532,-0.123,1.117,-0.773,-2.501,0.026,0.063,78.158,-1.078,1.364,2.502,5,5,3.246
1777577678545,-0.073,1.140,-0.768,-2.501,0.144,0.140,80.162,-0.897,1.376,2.509,5,5,3.265
1777577678559,-0.014,1.238,-0.776,-2.501,0.247,0.116,81.995,-0.833,1.461,2.516,5,5,3.862
1777577678573,0.026,1.338,-0.784,-2.501,0.323,0.068,83.673,-0.838,1.551,2.523,5,5,3.268
1777577678586,0.059,1.423,-0.810,-2.501,0.351,0.086,85.246,-0.892,1.638,2.527,5,5,3.254
1777577678600,0.122,1.525,-0.859,-2.501,0.316,0.154,86.740,-1.027,1.755,2.526,5,5,3.533
1777577678614,0.117,1.628,-0.920,-2.501,0.233,0.249,88.172,-1.139,1.874,2.524,5,5,3.260
1777577678627,0.137,1.671,-1.012,-2.501,0.141,0.249,89.617,-1.264,1.958,2.518,5,5,3.955
1777577678642,0.242,1.705,-1.157,-2.501,0.012,0.085,91.128,-1.502,2.075,2.503,5,5,3.278
1777577678655,0.369,1.644,-1.340,-2.351,-0.156,-0.084,92.792,-1.868,2.152,2.358,5,5,3.250
1777577678668,0.346,1.508,-1.517,-2.020,-0.323,0.019,94.646,-2.188,2.167,2.046,5,5,3.326
1777577678682,0.211,1.263,-1.704,-1.671,-0.429,0.446,96.780,-2.341,2.131,1.782,5,5,3.250
1777577678695,-0.103,1.050,-1.865,-1.310,-0.440,0.811,99.135,-2.119,2.143,1.602,5,5,3.893
1777577678709,-0.739,0.940,-1.980,-0.806,-0.241,0.719,101.561,-1.211,2.313,1.107,5,5,3.257
1777577678722,-1.123,0.703,-2.032,-0.299,0.151,0.161,104.157,0.048,2.425,0.371,5,5,3.248
1777577678736,-1.013,0.600,-2.044,-0.007,0.677,-0.870,106.758,1.158,2.359,1.102,5,5,3.265
1777577678749,0.610,0.309,-0.969,2.086,0.127,-1.603,109.188,-0.245,1.186,2.634,5,5,3.253
1777577678762,-1.060,1.508,0.161,1.721,0.159,-1.612,108.083,1.295,1.851,2.364,1,1,3.912
1777577678777,-0.482,1.409,0.665,2.296,0.180,-1.121,106.187,1.990,1.631,2.562,1,1,3.273
1777577678790,-0.019,1.076,-0.143,2.501,0.050,-0.988,105.811,1.946,1.086,2.690,1,1,3.267
1777577678803,-0.573,0.989,-0.194,2.501,0.015,-0.665,105.605,3.157,1.160,2.588,1,1,3.312
1777577678817,-0.497,0.793,-0.607,2.320,0.042,-0.302,106.560,4.176,1.116,2.340,1,1,3.255
1777577678830,-0.471,0.849,-0.570,2.015,0.187,-0.077,107.318,5.076,1.126,2.025,1,1,3.906
1777577678844,-0.234,0.822,-0.661,1.740,0.276,0.073,108.258,5.402,1.081,1.763,1,1,3.256
1777577678857,-0.285,0.738,-0.816,1.445,0.429,0.174,109.553,5.801,1.137,1.517,1,1,3.259
1777577678871,0.024,0.657,-0.826,0.890,0.253,0.135,110.950,5.491,1.056,0.935,1,1,3.249
1777577678884,-0.208,0.774,-0.671,0.598,0.315,0.142,111.822,5.752,1.045,0.691,1,1,3.255
1777577678897,-0.125,0.870,-0.655,0.506,0.241,0.169,112.485,5.788,1.096,0.586,1,1,3.836
1777577678911,-0.391,0.743,-0.613,0.205,0.139,0.209,113.231,6.500,1.039,0.323,1,1,3.263
1777577678925,0.067,0.932,-0.507,0.154,0.070,0.134,113.463,6.058,1.063,0.216,1,1,3.254
1777577678938,-0.049,0.831,-0.584,0.116,0.036,0.115,113.972,5.914,1.017,0.167,1,1,3.257
1777577678951,-0.046,1.052,-0.430,0.117,0.031,0.093,113.897,5.757,1.138,0.153,1,1,3.259
1777577678967,-0.087,0.912,-0.533,0.094,0.026,0.056,114.177,5.711,1.060,0.112,1,1,6.631
1777577678983,-0.091,0.926,-0.500,0.099,0.029,0.051,114.360,5.678,1.056,0.115,1,1,4.775
1777577678997,-0.128,0.934,-0.504,0.087,0.035,0.063,114.534,5.730,1.069,0.113,1,1,3.266
1777577679011,-0.087,0.938,-0.506,0.078,0.050,0.065,114.702,5.683,1.069,0.113,1,1,4.173
1777577679024,-0.076,0.930,-0.518,0.078,0.048,0.050,114.896,5.613,1.067,0.104,1,1,3.291
1777577679038,-0.082,0.920,-0.508,0.079,0.050,0.040,115.071,5.563,1.054,0.102,1,1,3.943
1777577679052,-0.070,0.913,-0.525,0.077,0.047,0.028,115.283,5.487,1.056,0.094,1,1,3.280
1777577679065,-0.068,0.904,-0.532,0.072,0.045,0.023,115.511,5.408,1.051,0.088,1,1,3.253
1777577679079,-0.068,0.887,-0.519,0.067,0.042,0.019,115.721,5.337,1.030,0.082,1,1,3.291
1777577679092,-0.048,0.919,-0.521,0.063,0.031,-0.006,115.888,5.218,1.058,0.070,1,1,3.254
1777577679107,-0.044,0.897,-0.525,0.052,0.031,-0.030,116.082,5.096,1.040,0.068,1,1,5.208
1777577679121,-0.048,0.939,-0.511,0.054,0.022,-0.050,116.192,4.986,1.070,0.077,1,1,3.248
1777577679135,-0.081,0.908,-0.531,0.044,0.020,-0.056,116.372,4.961,1.055,0.074,1,1,3.965
1777577679148,-0.071,0.890,-0.531,0.036,0.027,-0.059,116.566,4.915,1.039,0.074,1,1,3.340
1777577679162,-0.152,0.850,-0.565,0.021,0.037,-0.034,116.874,5.070,1.032,0.054,1,1,3.275
1777577679175,-0.107,0.944,-0.510,0.033,0.033,-0.012,116.940,5.098,1.078,0.048,1,1,3.861
1777577679189,-0.093,0.924,-0.532,0.023,0.033,0.011,117.072,5.092,1.070,0.042,1,1,3.252
1777577679202,-0.109,1.002,-0.502,0.054,0.028,0.022,117.052,5.113,1.126,0.065,1,1,3.256
1777577679216,-0.085,0.908,-0.524,0.039,0.022,0.027,117.181,5.092,1.052,0.052,1,1,3.254
1777577679232,-0.100,0.888,-0.549,0.045,0.015,0.034,117.379,5.109,1.049,0.058,1,1,5.970
1777577679245,-0.108,0.872,-0.543,0.044,0.010,0.052,117.578,5.147,1.033,0.069,2,2,3.856
1777577679262,-0.084,0.896,-0.540,0.049,0.008,0.062,117.730,5.123,1.050,0.080,2,2,5.733
1777577679275,-0.117,0.958,-0.528,0.045,0.008,0.104,117.779,5.166,1.101,0.114,2,2,3.242
1777577679288,-0.103,0.943,-0.536,0.062,0.001,0.131,117.861,5.177,1.089,0.145,2,2,3.256
1777577679302,-0.088,0.938,-0.537,0.082,-0.007,0.146,117.946,5.153,1.084,0.168,2,2,3.294
1777577679315,-0.031,0.919,-0.530,0.113,-0.018,0.117,118.034,5.000,1.061,0.164,1,1,3.881
1777577679329,-0.049,0.915,-0.537,0.131,-0.029,0.099,118.137,4.897,1.061,0.167,1,1,3.266
1777577679343,-0.044,0.908,-0.549,0.140,-0.034,0.075,118.269,4.787,1.062,0.163,1,1,3.266
1777577679356,-0.040,0.952,-0.537,0.161,-0.036,0.044,118.319,4.669,1.094,0.171,1,1,3.287
1777577679370,-0.049,0.933,-0.560,0.179,-0.038,0.030,118.436,4.577,1.089,0.186,1,1,3.243
1777577679384,-0.022,0.930,-0.559,0.205,-0.047,0.019,118.548,4.429,1.085,0.211,4,4,4.434
1777577679398,-0.026,0.981,-0.565,0.246,-0.049,0.011,118.610,4.293,1.133,0.252,4,4,3.241
1777577679411,-0.039,1.012,-0.558,0.292,-0.046,0.009,118.621,4.190,1.157,0.295,4,4,3.285
1777577679425,-0.080,1.028,-0.555,0.341,-0.039,0.019,118.610,4.177,1.171,0.343,4,4,3.252
1777577679439,-0.132,0.991,-0.574,0.377,-0.010,0.034,118.675,4.282,1.153,0.379,4,4,4.561
1777577679453,-0.180,1.110,-0.570,0.449,0.048,0.066,118.609,4.454,1.261,0.456,4,4,3.834
1777577679469,-0.117,1.023,-0.609,0.495,0.082,0.075,118.704,4.505,1.196,0.508,4,4,4.619
1777577679482,-0.097,1.101,-0.622,0.595,0.105,0.056,118.737,4.499,1.268,0.606,4,4,3.366
1777577679496,-0.098,1.151,-0.635,0.683,0.103,0.025,118.744,4.490,1.318,0.691,4,4,3.364
1777577679509,-0.104,1.213,-0.609,0.809,0.121,0.026,118.653,4.484,1.361,0.818,4,4,3.273
1777577679523,-0.054,1.200,-0.617,0.923,0.109,0.041,118.589,4.388,1.350,0.930,4,4,3.924
1777577679537,-0.108,1.205,-0.596,1.060,0.102,0.075,118.489,4.396,1.349,1.067,4,4,3.420
1777577679550,-0.175,1.208,-0.593,1.185,0.131,0.108,118.387,4.529,1.357,1.197,4,4,3.256
1777577679564,-0.195,1.216,-0.601,1.330,0.145,0.157,118.295,4.689,1.371,1.347,4,4,3.271
1777577679578,-0.224,1.158,-0.604,1.481,0.173,0.202,118.264,4.910,1.325,1.504,4,4,3.258
1777577679594,-0.183,1.280,-0.557,1.689,0.237,0.238,118.056,5.022,1.408,1.722,4,4,6.890
1777577679608,-0.169,1.237,-0.544,1.973,0.274,0.293,117.867,5.114,1.362,2.013,4,4,3.261
1777577679622,-0.155,1.319,-0.566,2.238,0.330,0.299,117.664,5.159,1.444,2.282,4,4,3.277
1777577679635,-0.247,1.483,-0.658,2.501,0.443,0.308,117.500,5.312,1.641,2.559,4,4,3.269
1777577679648,-0.172,1.662,-0.691,2.501,0.548,0.390,117.285,5.319,1.808,2.590,4,4,3.251
1777577679662,-0.406,1.871,-0.825,2.501,0.715,0.602,117.132,5.577,2.085,2.670,4,4,3.966
1777577679676,-0.236,1.140,-0.895,2.501,0.806,0.674,117.614,5.737,1.469,2.713,4,4,3.263
1777577679690,-0.304,1.294,-1.041,2.501,0.839,0.528,118.103,5.940,1.688,2.691,4,4,3.274
1777577679703,0.235,1.108,-1.036,2.501,0.743,0.785,118.757,5.295,1.535,2.725,4,4,3.254
1777577679717,-0.095,1.264,-1.366,2.501,0.732,1.024,119.565,5.191,1.864,2.800,4,4,4.078
1777577679731,0.279,0.888,-0.732,2.501,0.553,1.170,119.999,4.367,1.184,2.816,4,4,3.918
1777577679745,0.052,1.362,-0.585,2.501,0.419,1.517,119.704,4.089,1.483,2.955,4,4,3.274
1777577679758,0.228,0.892,-0.357,2.501,0.231,1.722,119.360,3.327,0.987,3.045,4,4,3.266
1777577679771,0.843,0.792,-0.157,2.501,-0.371,2.073,118.567,1.160,1.168,3.270,4,4,3.261
1777577679785,0.332,-0.955,-0.667,2.235,-0.722,1.391,107.917,0.413,1.211,2.729,4,4,3.268
1777577679798,0.083,-0.712,-0.586,1.317,-0.764,0.456,97.537,0.169,0.926,1.589,4,4,3.935
1777577679812,-0.012,-0.419,-0.608,0.481,-0.731,-0.740,86.912,0.203,0.739,1.146,4,4,3.278
1777577679825,-0.031,-0.135,-0.560,-0.118,-0.680,-1.570,75.831,0.328,0.577,1.715,4,4,3.266
1777577679839,0.037,-0.051,-0.459,-0.621,-0.631,-2.047,64.918,0.113,0.464,2.230,4,4,3.274
1777577679852,0.181,-0.095,-0.383,-1.071,-0.672,-2.137,54.814,-0.971,0.435,2.483,4,4,3.265
1777577679866,0.256,-0.234,-0.293,-1.570,-0.760,-1.848,46.231,-2.431,0.454,2.541,4,4,4.014
1777577679880,0.252,-0.203,-0.209,-2.117,-0.887,-1.303,38.264,-4.112,0.385,2.640,4,4,3.264
1777577679893,0.278,-0.109,-0.085,-2.501,-1.001,-0.821,30.996,-6.709,0.311,2.817,4,4,3.259
1777577679906,0.264,0.290,-0.029,-2.501,-1.108,-0.436,33.827,-8.262,0.393,2.770,4,4,3.279
1777577679920,0.222,0.531,-0.056,-2.501,-1.151,-0.099,36.549,-8.888,0.579,2.755,4,4,3.472
1777577679933,0.244,0.520,-0.081,-2.501,-1.186,0.126,39.275,-9.588,0.580,2.771,4,4,3.946
1777577679947,0.160,0.481,-0.143,-2.501,-1.218,0.258,42.219,-9.941,0.526,2.794,4,4,3.258
1777577679961,0.022,0.512,-0.200,-2.501,-1.190,0.260,45.243,-9.605,0.550,2.782,4,4,3.272
1777577679974,-0.086,0.444,-0.247,-2.501,-1.090,0.085,48.472,-8.766,0.515,2.730,4,4,3.273
1777577679987,-0.103,0.500,-0.282,-2.501,-0.977,-0.085,51.574,-7.937,0.583,2.687,4,4,3.264
1777577680002,-0.131,0.741,-0.368,-2.501,-0.851,-0.076,54.409,-7.195,0.837,2.643,5,5,3.946
1777577680016,-0.127,0.916,-0.428,-2.501,-0.709,0.082,57.061,-6.566,1.019,2.601,5,5,3.312
1777577680030,-0.197,1.140,-0.551,-2.501,-0.530,0.244,59.630,-5.892,1.281,2.568,5,5,3.279
1777577680043,-0.225,1.143,-0.629,-2.501,-0.325,0.267,62.219,-5.206,1.324,2.536,5,5,3.260
1777577680056,-0.208,1.136,-0.649,-2.501,-0.118,0.160,64.734,-4.583,1.325,2.509,5,5,3.283
1777577680070,-0.150,1.190,-0.644,-2.501,0.062,0.058,67.082,-4.106,1.362,2.503,5,5,3.904
1777577680084,-0.091,1.327,-0.615,-2.501,0.205,0.072,69.172,-3.771,1.465,2.511,5,5,3.271
1777577680097,-0.039,1.493,-0.618,-2.501,0.302,0.196,71.067,-3.546,1.616,2.527,5,5,3.262
1777577680111,-0.040,1.626,-0.646,-2.501,0.382,0.345,72.843,-3.334,1.750,2.554,5,5,3.249
1777577680124,-0.090,1.759,-0.714,-2.501,0.452,0.449,74.559,-3.070,1.901,2.581,5,5,3.762
1777577680138,-0.161,1.835,-0.819,-2.501,0.511,0.439,76.286,-2.735,2.015,2.590,5,5,3.884
1777577680152,-0.127,1.871,-0.953,-2.501,0.540,0.321,78.066,-2.465,2.103,2.579,5,5,3.293
1777577680165,-0.016,1.939,-1.117,-2.501,0.531,0.205,79.897,-2.339,2.237,2.565,5,5,3.356
1777577680179,0.196,1.917,-1.348,-2.501,0.472,0.211,81.874,-2.446,2.352,2.554,5,5,3.296
1777577680192,0.478,1.901,-1.607,-2.496,0.327,0.461,83.988,-2.814,2.534,2.559,5,5,3.268
1777577680206,0.561,1.582,-1.913,-1.922,0.038,1.020,86.455,-3.248,2.545,2.176,5,5,4.361
1777577680220,-0.091,1.358,-2.101,-1.313,-0.153,1.627,89.108,-3.015,2.503,2.096,5,5,3.270
1777577680233,-0.932,1.073,-2.214,-0.706,0.030,1.548,91.953,-1.976,2.631,1.702,5,5,3.263
1777577680247,-1.082,0.591,-2.250,-0.155,0.414,0.402,95.160,-0.799,2.566,0.598,5,5,3.279
1777577680260,-0.699,0.742,-2.199,0.370,0.609,-0.730,98.055,-0.031,2.423,1.020,5,5,3.263
1777577680273,-0.692,0.746,-1.760,2.501,0.481,-0.396,100.634,0.840,2.033,2.578,1,1,3.897
1777577680287,0.716,3.048,0.526,2.163,-0.205,-1.172,99.740,0.233,3.175,2.469,1,1,3.256
1777577680301,-0.091,1.229,0.752,2.416,0.040,-1.022,97.937,0.381,1.443,2.624,1,1,3.261
1777577680314,-0.202,1.005,-0.190,2.501,0.268,-0.860,98.059,0.853,1.042,2.658,1,1,3.258
1777577680327,-0.464,0.847,-0.354,2.406,0.415,-0.671,98.699,1.988,1.029,2.532,1,1,3.350
1777577680341,-0.076,0.900,-0.386,2.187,0.348,-0.471,99.334,2.095,0.982,2.264,1,1,3.893
1777577680355,-0.427,0.851,-0.483,1.967,0.366,-0.212,100.220,3.036,1.068,2.012,1,1,3.256
1777577680368,-0.369,0.875,-0.521,1.763,0.379,0.103,101.119,3.774,1.084,1.806,1,1,3.268
1777577680381,-0.272,0.853,-0.494,1.623,0.419,0.275,101.950,4.283,1.022,1.698,1,1,3.252
1777577680395,0.208,0.372,-0.989,1.245,0.336,0.201,104.461,3.608,1.077,1.305,1,1,3.259
1777577680408,-0.076,0.711,-0.683,0.871,0.242,0.064,105.746,3.643,0.989,0.906,1,1,3.871
1777577680422,-0.023,0.880,-0.594,0.726,0.221,-0.063,106.544,3.538,1.062,0.762,1,1,3.262
1777577680435,0.185,0.898,-0.572,0.463,-0.027,-0.102,107.242,2.953,1.081,0.474,1,1,3.259
1777577680449,0.168,0.936,-0.547,0.352,-0.033,-0.150,107.814,2.439,1.097,0.383,1,1,3.254
1777577680462,-0.142,0.864,-0.557,0.257,-0.089,-0.193,108.469,2.676,1.037,0.334,1,1,3.269
1777577680475,-0.060,0.892,-0.547,0.225,-0.136,-0.205,109.040,2.703,1.048,0.333,1,1,3.880
1777577680489,-0.225,0.934,-0.515,0.206,-0.135,-0.145,109.470,3.105,1.090,0.286,1,1,3.273
1777577680503,-0.225,0.912,-0.534,0.165,-0.065,-0.045,109.946,3.494,1.080,0.183,1,1,3.258
1777577680516,-0.232,0.927,-0.521,0.140,0.010,0.043,110.357,3.880,1.088,0.147,1,1,3.463
1777577680530,-0.205,0.895,-0.554,0.102,0.074,0.115,110.856,4.193,1.072,0.170,1,1,3.754
1777577680544,-0.183,0.943,-0.496,0.098,0.114,0.163,111.157,4.436,1.081,0.222,1,1,3.882
1777577680558,-0.170,0.886,-0.537,0.080,0.127,0.164,111.596,4.651,1.050,0.223,1,1,3.255
1777577680571,-0.095,0.868,-0.541,0.063,0.108,0.170,112.049,4.679,1.027,0.211,1,1,3.288
1777577680584,-0.035,0.905,-0.508,0.063,0.088,0.142,112.365,4.559,1.038,0.179,1,1,3.263
1777577680598,-0.047,0.891,-0.509,0.042,0.063,0.075,112.688,4.474,1.028,0.107,1,1,3.253
1777577680611,-0.042,0.845,-0.537,0.010,0.045,0.018,113.113,4.382,1.002,0.049,1,1,3.892
1777577680625,-0.061,0.963,-0.531,0.029,0.027,-0.033,113.365,4.330,1.101,0.051,1,1,3.263
1777577680638,-0.080,1.075,-0.455,0.095,0.011,-0.050,113.345,4.312,1.170,0.108,1,1,3.260
1777577680652,-0.114,0.912,-0.554,0.079,0.005,-0.073,113.693,4.389,1.073,0.108,1,1,3.250
1777577680665,-0.026,1.000,-0.545,0.138,-0.002,-0.151,113.908,4.255,1.139,0.205,1,1,3.253
1777577680678,-0.172,0.940,-0.548,0.177,-0.006,-0.120,114.184,4.461,1.102,0.214,1,1,3.887
1777577680692,-0.227,1.049,-0.548,0.230,0.003,-0.004,114.333,4.740,1.205,0.230,1,1,3.266
1777577680706,-0.125,0.889,-0.543,0.268,0.017,0.070,114.643,4.831,1.049,0.277,1,1,3.310
1777577680719,-0.144,0.945,-0.552,0.278,0.028,0.085,114.891,4.946,1.104,0.292,1,1,3.257
1777577680733,-0.111,0.933,-0.539,0.293,0.032,0.115,115.114,4.988,1.083,0.317,1,1,3.457
1777577680746,-0.105,0.937,-0.545,0.305,0.040,0.140,115.336,5.012,1.089,0.338,1,1,3.891
1777577680760,-0.115,0.962,-0.575,0.326,0.043,0.174,115.578,5.049,1.127,0.372,1,1,3.254
1777577680773,-0.077,1.018,-0.571,0.367,0.051,0.189,115.741,4.993,1.169,0.416,1,1,3.259
1777577680787,-0.092,1.001,-0.574,0.414,0.060,0.155,115.919,4.973,1.158,0.446,1,1,3.255
1777577680800,-0.135,1.005,-0.586,0.455,0.078,0.145,116.108,5.045,1.171,0.484,1,1,3.264
1777577680813,-0.127,0.969,-0.590,0.488,0.093,0.146,116.337,5.105,1.141,0.518,1,1,3.863
1777577680827,-0.146,0.961,-0.603,0.520,0.109,0.154,116.588,5.203,1.144,0.553,1,1,3.254
1777577680841,-0.098,0.945,-0.607,0.553,0.119,0.165,116.855,5.194,1.127,0.589,1,1,3.256
1777577680854,-0.066,0.987,-0.624,0.604,0.107,0.145,117.092,5.108,1.170,0.630,1,1,3.331
1777577680868,-0.019,0.969,-0.624,0.659,0.094,0.125,117.341,4.926,1.152,0.677,1,1,3.255
1777577680881,-0.004,0.926,-0.636,0.694,0.076,0.105,117.654,4.721,1.123,0.706,1,1,3.878
1777577680895,-0.057,0.900,-0.644,0.724,0.069,0.094,118.000,4.644,1.108,0.733,1,1,3.266
1777577680908,-0.051,0.931,-0.656,0.755,0.069,0.089,118.314,4.553,1.141,0.764,1,1,3.250
1777577680922,-0.063,0.966,-0.670,0.806,0.060,0.066,118.595,4.488,1.177,0.811,1,1,3.255
1777577680935,0.003,1.019,-0.657,0.875,0.043,0.042,118.780,4.286,1.213,0.877,1,1,3.593
1777577680949,-0.021,1.071,-0.692,0.979,0.036,0.029,118.959,4.141,1.275,0.980,4,4,3.908
1777577680963,-0.037,1.125,-0.661,1.111,0.027,-0.007,119.024,4.031,1.306,1.111,4,4,3.262
1777577680976,-0.031,1.181,-0.683,1.255,0.023,-0.017,119.069,3.912,1.365,1.255,4,4,3.251
1777577680989,-0.069,1.210,-0.676,1.440,0.022,-0.066,119.075,3.865,1.388,1.441,4,4,3.274
1777577681003,-0.066,1.198,-0.656,1.636,0.028,-0.095,119.058,3.818,1.368,1.639,4,4,3.259
1777577681016,-0.054,1.380,-0.644,1.901,0.029,-0.137,118.881,3.740,1.524,1.906,4,4,3.915
1777577681030,0.012,1.352,-0.579,2.197,0.034,-0.201,118.632,3.555,1.470,2.206,4,4,3.261
1777577681043,-0.023,1.464,-0.656,2.501,0.079,-0.244,118.435,3.435,1.604,2.514,4,4,3.284
1777577681057,-0.159,1.871,-0.730,2.501,0.116,-0.266,118.124,3.483,2.015,2.518,4,4,3.393
1777577681070,-0.131,1.773,-0.730,2.501,0.185,-0.286,117.873,3.502,1.922,2.524,4,4,3.264
1777577681084,-0.296,1.762,-0.852,2.501,0.291,-0.247,117.783,3.726,1.980,2.530,4,4,3.848
1777577681098,-0.306,1.123,-0.946,2.501,0.484,0.126,118.322,4.078,1.500,2.551,4,4,3.254
1777577681111,-0.238,0.962,-1.095,2.501,0.461,0.391,119.213,4.306,1.477,2.573,4,4,3.260
1777577681124,-0.351,1.023,-1.137,2.501,0.561,0.609,120.035,4.683,1.569,2.635,4,4,3.251
1777577681138,-0.064,0.830,-1.084,2.501,0.602,1.164,121.021,4.597,1.367,2.824,4,4,4.064
1777577681152,0.211,0.773,-0.835,2.501,0.421,1.539,121.729,3.937,1.157,2.967,4,4,3.833
1777577681166,0.299,0.538,-0.500,2.501,0.097,1.533,122.220,2.797,0.793,2.935,4,4,3.252
1777577681179,0.536,-0.353,-0.075,2.141,-0.299,1.322,112.412,0.222,0.646,2.534,4,4,3.252
1777577681192,0.374,-1.059,-1.010,1.904,-0.609,0.754,101.653,-0.414,1.510,2.136,4,4,3.248
1777577681206,-0.409,-0.480,-0.578,0.766,-0.472,0.245,91.073,0.852,0.855,0.932,4,4,3.246
1777577681219,-0.151,-0.465,-0.577,-0.155,-0.345,-0.302,80.918,1.319,0.757,0.484,4,4,3.975
1777577681233,-0.059,-0.051,-0.531,-0.730,-0.240,-0.861,69.748,1.538,0.537,1.154,4,4,3.268
1777577681247,0.035,0.224,-0.442,-1.023,-0.232,-1.089,73.395,1.293,0.497,1.512,4,4,3.269
1777577681260,0.133,0.228,-0.418,-1.232,-0.294,-0.989,76.808,0.556,0.494,1.607,4,4,3.296
1777577681273,0.151,0.152,-0.417,-1.426,-0.365,-0.641,80.448,-0.289,0.469,1.606,4,4,3.258
1777577681287,0.102,0.100,-0.384,-1.649,-0.436,-0.170,84.160,-0.909,0.409,1.714,4,4,3.902
1777577681301,0.046,0.097,-0.357,-1.923,-0.501,0.228,87.684,-1.182,0.373,2.001,4,4,3.268
1777577681314,0.090,0.007,-0.279,-2.250,-0.595,0.379,91.660,-1.910,0.293,2.358,4,4,3.245
1777577681327,0.123,-0.171,-0.180,-2.501,-0.729,0.385,81.685,-2.978,0.277,2.634,4,4,3.263
1777577681341,0.116,-0.336,-0.053,-2.501,-0.884,0.365,73.787,-3.669,0.359,2.678,4,4,3.567
1777577681354,-0.054,0.260,-0.023,-2.501,-0.989,0.490,74.714,-2.999,0.267,2.734,4,4,3.898
1777577681369,-0.159,0.707,-0.099,-2.501,-0.962,0.806,75.731,-2.318,0.732,2.799,4,4,3.337
1777577681382,-0.201,0.840,-0.216,-2.501,-0.867,1.160,76.986,-1.645,0.890,2.891,4,4,3.257
1777577681395,-0.253,0.927,-0.349,-2.501,-0.749,1.342,78.457,-0.947,1.022,2.936,4,4,3.266
1777577681409,-0.244,0.891,-0.474,-2.501,-0.657,1.229,80.187,-0.310,1.039,2.863,4,4,3.251
1777577681422,-0.250,0.823,-0.575,-2.501,-0.628,0.913,82.145,0.315,1.035,2.736,5,5,3.892
1777577681436,-0.290,0.971,-0.668,-2.501,-0.609,0.592,83.999,0.907,1.214,2.642,5,5,3.253
1777577681449,-0.282,1.097,-0.751,-2.501,-0.569,0.410,85.765,1.391,1.359,2.598,5,5,3.274
1777577681463,-0.360,1.177,-0.839,-2.501,-0.460,0.393,87.502,1.941,1.489,2.573,5,5,3.245
1777577681476,-0.479,1.232,-0.900,-2.501,-0.237,0.447,89.193,2.618,1.599,2.552,5,5,3.269
1777577681489,-0.531,1.241,-0.922,-2.501,0.079,0.399,90.828,3.333,1.635,2.534,5,5,3.880
1777577681503,-0.534,1.224,-0.929,-2.501,0.443,0.283,92.419,4.025,1.627,2.556,5,5,3.257
1777577681517,-0.485,1.232,-0.879,-2.501,0.765,0.231,93.866,4.627,1.589,2.626,5,5,3.257
1777577681530,-0.429,1.379,-0.852,-2.501,1.029,0.269,95.084,5.073,1.677,2.718,5,5,3.256
1777577681544,-0.415,1.551,-0.891,-2.501,1.206,0.400,96.168,5.423,1.837,2.805,5,5,3.704
1777577681557,-0.327,1.537,-1.007,-2.501,1.238,0.355,97.351,5.627,1.866,2.813,5,5,4.010
1777577681571,-0.195,1.678,-1.150,-2.501,1.101,0.012,98.534,5.620,2.044,2.733,5,5,3.332
1777577681585,-0.023,1.728,-1.277,-2.501,0.908,-0.427,99.756,5.402,2.149,2.695,5,5,3.267
1777577681598,0.283,1.664,-1.421,-2.212,0.643,-0.680,101.101,4.843,2.207,2.402,5,5,3.281
1777577681612,0.618,1.615,-1.598,-1.670,0.296,-0.546,102.570,3.965,2.354,1.781,5,5,3.265
1777577681625,0.669,1.275,-1.870,-1.150,-0.120,0.191,104.457,3.072,2.360,1.172,5,5,3.886
1777577681639,0.101,0.867,-1.969,-0.710,-0.335,1.026,106.721,2.820,2.154,1.292,5,5,3.265
1777577681652,-0.678,0.700,-2.005,-0.292,-0.186,1.175,109.084,3.471,2.229,1.225,5,5,3.251
1777577681666,-1.034,0.557,-1.967,0.110,0.154,0.454,111.494,4.492,2.291,0.492,5,5,3.264
1777577681679,-0.855,0.488,-1.789,0.484,0.488,-0.710,113.822,5.379,2.042,0.988,5,5,3.251
1777577681692,-0.520,0.818,-1.667,-0.079,0.974,-0.104,115.574,5.828,1.928,0.983,1,1,3.884
1777577681706,0.747,1.145,3.556,1.335,0.493,-0.154,111.300,5.078,3.810,1.432,1,1,3.251
1777577681720,0.246,1.551,0.625,2.501,-0.108,-0.620,109.409,4.490,1.690,2.579,1,1,3.261
1777577681733,-0.450,0.898,-0.110,2.501,-0.072,-0.589,108.864,5.450,1.010,2.571,1,1,3.362
1777577681747,-0.414,0.841,-0.178,2.501,0.011,-0.320,108.561,6.337,0.954,2.522,1,1,3.651
1777577681760,-0.309,0.774,-0.603,2.442,0.002,-0.169,109.408,6.823,1.029,2.448,1,1,3.884
1777577681774,-0.321,0.760,-0.573,2.149,0.141,0.008,110.177,7.341,1.004,2.154,1,1,3.414
1777577681788,-0.209,0.836,-0.656,1.891,0.192,0.090,110.960,7.507,1.083,1.903,1,1,3.256
1777577681801,-0.137,0.745,-0.783,1.597,0.294,0.069,112.074,7.494,1.090,1.626,1,1,3.261
1777577681814,-0.182,0.571,-0.844,1.122,0.328,0.173,113.553,7.610,1.035,1.181,1,1,3.261
1777577681828,-0.072,0.696,-0.765,0.704,0.244,0.149,114.609,7.450,1.037,0.760,1,1,3.892
1777577681842,-0.168,0.796,-0.623,0.504,0.246,0.183,115.197,7.538,1.025,0.590,1,1,3.257
1777577681855,0.068,0.781,-0.627,0.248,0.076,0.152,115.791,7.038,1.003,0.301,1,1,3.261
1777577681868,-0.112,0.887,-0.492,0.155,0.097,0.220,115.932,7.004,1.021,0.286,1,1,3.244
1777577681882,-0.088,0.869,-0.540,0.111,0.071,0.192,116.191,6.913,1.027,0.233,1,1,3.269
1777577681895,-0.045,0.884,-0.527,0.089,0.046,0.208,116.393,6.721,1.030,0.231,1,1,3.887
1777577681909,-0.080,0.933,-0.511,0.078,0.043,0.165,116.495,6.615,1.067,0.187,1,1,3.270
1777577681922,-0.054,0.906,-0.521,0.065,0.046,0.158,116.644,6.456,1.046,0.176,1,1,3.260
1777577681936,-0.079,0.936,-0.521,0.062,0.046,0.142,116.751,6.359,1.074,0.162,1,1,3.264
1777577681950,-0.066,0.934,-0.511,0.058,0.041,0.138,116.835,6.237,1.067,0.155,1,1,3.637
1777577681963,-0.041,0.905,-0.522,0.055,0.057,0.105,116.973,6.062,1.045,0.131,1,1,3.876
1777577681977,-0.072,0.951,-0.504,0.063,0.052,0.111,117.014,5.965,1.079,0.137,1,1,3.289
1777577681990,-0.083,0.922,-0.523,0.049,0.053,0.111,117.126,5.900,1.063,0.132,1,1,3.286
1777577682004,-0.086,0.906,-0.519,0.046,0.053,0.121,117.243,5.847,1.047,0.140,1,1,3.321
1777577682017,-0.075,0.903,-0.527,0.045,0.054,0.144,117.375,5.771,1.048,0.160,1,1,3.275
1777577682030,-0.068,0.959,-0.504,0.048,0.061,0.147,117.390,5.675,1.086,0.166,1,1,3.905
1777577682044,-0.067,0.893,-0.532,0.035,0.063,0.147,117.540,5.588,1.042,0.164,1,1,3.264
1777577682058,-0.071,0.895,-0.539,0.043,0.064,0.154,117.693,5.512,1.047,0.172,1,1,3.255
1777577682071,-0.032,0.918,-0.513,0.046,0.070,0.143,117.758,5.348,1.052,0.166,1,1,3.269
1777577682085,-0.031,0.910,-0.519,0.047,0.065,0.137,117.844,5.188,1.048,0.159,1,1,3.395
1777577682098,0.000,0.896,-0.534,0.045,0.064,0.112,117.973,4.960,1.044,0.137,1,1,3.866
1777577682112,-0.018,0.917,-0.517,0.055,0.062,0.094,118.035,4.785,1.053,0.125,1,1,3.251
1777577682125,-0.004,0.927,-0.508,0.049,0.050,0.072,118.065,4.586,1.058,0.101,1,1,3.269
1777577682139,-0.016,0.913,-0.540,0.041,0.036,0.059,118.176,4.422,1.061,0.080,1,1,3.246
1777577682152,0.012,0.934,-0.526,0.039,0.030,0.017,118.230,4.201,1.072,0.052,1,1,3.433
1777577682166,0.006,0.922,-0.526,0.037,0.020,-0.021,118.295,4.004,1.061,0.047,1,1,3.843
1777577682180,0.003,0.906,-0.539,0.040,0.013,-0.056,118.403,3.821,1.054,0.071,1,1,3.253
1777577682193,-0.021,0.915,-0.540,0.043,0.010,-0.069,118.496,3.704,1.063,0.082,1,1,3.309
1777577682206,-0.030,0.918,-0.528,0.045,0.006,-0.081,118.557,3.612,1.060,0.093,1,1,3.287
1777577682220,-0.050,0.900,-0.537,0.038,0.005,-0.079,118.655,3.572,1.050,0.087,1,1,3.273
1777577682233,-0.043,0.923,-0.529,0.043,0.001,-0.074,118.706,3.518,1.065,0.085,2,2,3.926
1777577682247,-0.038,0.911,-0.534,0.049,0.004,-0.077,118.780,3.454,1.057,0.092,2,2,3.287
1777577682260,-0.056,0.925,-0.536,0.056,0.005,-0.076,118.838,3.433,1.070,0.095,2,2,3.266
1777577682274,-0.062,0.903,-0.545,0.053,0.013,-0.054,118.937,3.430,1.056,0.077,2,2,3.265
1777577682287,-0.059,0.927,-0.536,0.057,0.014,-0.035,118.984,3.418,1.073,0.068,2,2,3.263
1777577682301,-0.058,0.857,-0.568,0.043,0.025,-0.032,119.183,3.410,1.030,0.059,1,1,3.889
1777577682314,-0.070,0.896,-0.543,0.067,0.031,-0.014,119.272,3.428,1.051,0.075,1,1,3.255
1777577682328,-0.033,0.918,-0.549,0.068,0.022,-0.020,119.342,3.356,1.070,0.074,1,1,3.255
1777577682341,-0.067,0.982,-0.524,0.077,0.022,-0.008,119.287,3.359,1.115,0.080,1,1,3.259
1777577682355,-0.109,0.964,-0.528,0.080,0.025,0.019,119.260,3.460,1.105,0.086,1,1,3.521
1777577682368,-0.072,1.004,-0.531,0.082,0.029,0.041,119.200,3.468,1.139,0.096,1,1,3.875
1777577682382,-0.126,0.968,-0.557,0.088,0.040,0.081,119.232,3.598,1.124,0.126,1,1,3.257
1777577682395,-0.074,1.017,-0.539,0.108,0.046,0.124,119.174,3.601,1.153,0.170,1,1,3.298
1777577682409,-0.053,0.985,-0.551,0.126,0.050,0.169,119.176,3.563,1.130,0.217,1,1,3.293
1777577682422,-0.074,0.948,-0.559,0.153,0.054,0.266,119.235,3.574,1.104,0.311,1,1,3.476
1777577682436,-0.024,1.064,-0.544,0.207,0.051,0.261,119.141,3.468,1.196,0.337,4,4,3.942
1777577682450,-0.104,1.070,-0.571,0.332,0.084,0.197,119.095,3.531,1.217,0.395,4,4,3.261
1777577682463,-0.078,0.820,-0.593,0.346,0.088,0.205,119.391,3.571,1.015,0.411,4,4,3.264
1777577682477,-0.105,1.010,-0.580,0.391,0.115,0.227,119.410,3.639,1.169,0.467,4,4,3.256
1777577682490,-0.041,1.021,-0.589,0.445,0.124,0.232,119.434,3.568,1.180,0.516,4,4,3.260
1777577682503,-0.006,1.027,-0.606,0.496,0.123,0.236,119.483,3.425,1.193,0.563,4,4,3.917
1777577682517,-0.030,1.027,-0.601,0.577,0.134,0.242,119.520,3.338,1.190,0.639,4,4,3.291
1777577682531,-0.005,0.981,-0.611,0.622,0.140,0.249,119.625,3.204,1.156,0.685,4,4,3.275
1777577682544,0.020,1.062,-0.603,0.688,0.150,0.248,119.623,3.023,1.221,0.747,4,4,3.269
1777577682558,0.068,1.070,-0.633,0.755,0.126,0.207,119.667,2.755,1.245,0.793,4,4,3.819
1777577682571,0.136,1.147,-0.607,0.863,0.093,0.151,119.589,2.371,1.305,0.881,4,4,3.920
1777577682586,0.167,1.102,-0.635,0.978,0.068,0.104,119.606,1.940,1.283,0.986,4,4,3.513
1777577682599,0.112,1.120,-0.597,1.100,0.056,0.078,119.538,1.635,1.274,1.105,4,4,3.281
1777577682613,0.112,1.101,-0.624,1.199,0.046,0.063,119.538,1.342,1.270,1.202,4,4,3.362
1777577682626,0.118,1.182,-0.612,1.326,0.052,0.040,119.444,1.062,1.336,1.328,4,4,3.271
1777577682640,-0.067,1.064,-0.686,1.480,0.077,0.072,119.591,1.149,1.268,1.484,4,4,3.903
1777577682653,-0.059,1.148,-0.651,1.642,0.088,0.077,119.589,1.210,1.321,1.647,4,4,3.265
1777577682667,-0.120,1.149,-0.650,1.808,0.132,0.119,119.585,1.384,1.325,1.817,4,4,3.259
1777577682680,-0.200,1.412,-0.640,2.020,0.190,0.171,119.358,1.645,1.563,2.036,4,4,3.265
1777577682694,-0.281,1.204,-0.683,2.204,0.250,0.268,119.367,2.074,1.412,2.235,4,4,3.274
1777577682707,-0.043,0.982,-0.642,2.332,0.309,0.343,119.532,2.076,1.174,2.377,4,4,3.877
1777577682721,-0.034,0.951,-0.708,2.436,0.367,0.315,119.844,2.057,1.186,2.484,4,4,3.265
1777577682734,0.010,0.868,-0.824,2.501,0.397,0.326,120.442,1.947,1.197,2.554,4,4,3.254
1777577682748,0.144,0.800,-0.831,2.501,0.383,0.276,121.125,1.551,1.162,2.545,4,4,3.284
1777577682762,0.115,0.769,-0.791,2.501,0.392,0.255,121.767,1.222,1.109,2.545,4,4,3.730
1777577682775,0.051,0.579,-0.889,2.501,0.372,0.221,122.867,1.048,1.062,2.538,4,4,3.911
1777577682789,0.102,0.380,-0.910,2.501,0.435,0.468,124.376,0.743,0.992,2.582,4,4,3.261
1777577682802,0.150,0.338,-0.876,2.501,0.446,0.895,125.887,0.315,0.951,2.694,4,4,3.262
1777577682816,0.357,0.566,-1.093,2.469,0.358,1.288,127.056,-0.406,1.281,2.808,4,4,3.264
1777577682829,0.284,0.053,-1.071,2.354,0.268,1.333,129.248,-1.037,1.110,2.718,4,4,3.256
1777577682842,0.145,0.367,-1.107,2.242,0.165,1.541,130.665,-1.303,1.175,2.725,4,4,3.901
1777577682856,0.105,0.114,-1.135,2.119,0.124,1.739,132.572,-1.476,1.145,2.744,4,4,3.259
1777577682870,0.274,-0.431,-0.963,1.740,0.070,1.834,119.957,-2.048,1.090,2.529,4,4,3.272
1777577682883,0.273,-0.540,-0.866,1.366,-0.050,1.799,108.235,-2.613,1.057,2.260,4,4,3.264
1777577682897,0.190,-0.560,-0.646,0.961,-0.164,1.790,97.420,-3.045,0.876,2.039,4,4,3.265
1777577682910,0.050,-0.365,-0.499,0.742,-0.257,1.818,86.871,-3.116,0.620,1.980,4,4,3.900
1777577682924,0.479,-2.265,-0.322,0.090,-0.457,1.792,78.783,-3.497,2.338,1.852,4,4,3.365
1777577682937,-0.312,-0.318,-0.548,-0.891,-0.458,1.280,68.783,-2.198,0.706,1.625,4,4,3.273
1777577682951,0.041,-0.633,-0.344,-1.641,-0.527,0.991,60.590,-2.243,0.722,1.988,4,4,3.256
1777577682965,0.037,-0.692,-0.328,-2.315,-0.624,0.779,52.894,-2.266,0.767,2.521,4,4,3.281
1777577682978,0.119,-0.440,-0.319,-2.501,-0.816,0.805,45.075,-2.707,0.556,2.751,4,4,3.898
1777577682992,0.027,-0.174,-0.250,-2.501,-0.993,1.073,36.753,-2.807,0.305,2.897,4,4,3.267
1777577683005,0.039,0.143,-0.264,-2.501,-1.150,1.236,41.776,-3.008,0.303,3.018,4,4,3.259
1777577683019,0.146,0.597,-0.262,-2.501,-1.335,1.356,44.922,-3.427,0.668,3.143,4,4,3.256
1777577683032,0.129,1.035,-0.445,-2.501,-1.570,1.643,47.910,-3.564,1.134,3.379,4,4,3.262
1777577683045,0.020,1.025,-0.661,-2.387,-1.771,1.866,51.186,-3.449,1.219,3.509,5,5,3.888
1777577683059,-0.195,0.654,-0.704,-1.985,-1.923,1.892,54.944,-2.796,0.981,3.349,5,5,3.269
1777577683073,-0.363,0.322,-0.591,-1.937,-1.965,1.612,59.162,-1.434,0.765,3.195,5,5,3.255
1777577683086,-0.457,0.378,-0.559,-2.053,-1.949,1.257,62.957,0.122,0.815,3.098,5,5,3.274
1777577683099,-0.580,0.591,-0.600,-2.119,-1.821,1.075,66.126,1.627,1.022,2.994,5,5,3.288
1777577683113,-0.621,0.727,-0.655,-2.099,-1.625,1.110,69.008,2.972,1.159,2.877,5,5,3.939
1777577683127,-0.692,0.809,-0.752,-2.038,-1.363,1.231,71.802,4.244,1.304,2.743,5,5,3.356
1777577683140,-0.611,0.898,-0.827,-1.921,-1.157,1.236,74.463,5.221,1.365,2.561,5,5,3.285
1777577683154,-0.474,0.964,-0.864,-1.713,-1.069,1.086,76.974,5.871,1.379,2.292,5,5,3.282
1777577683167,-0.279,0.885,-0.863,-1.547,-1.148,0.963,79.481,6.171,1.267,2.153,5,5,3.264
1777577683181,-0.140,0.846,-0.846,-1.466,-1.357,1.006,81.909,6.193,1.205,2.236,5,5,3.982
1777577683195,-0.087,0.914,-0.820,-1.419,-1.637,1.269,84.094,6.100,1.231,2.511,5,5,3.267
1777577683208,-0.121,0.969,-0.801,-1.348,-1.891,1.457,86.084,6.072,1.262,2.742,5,5,3.289
1777577683221,-0.214,0.967,-0.778,-1.297,-2.094,1.487,87.953,6.234,1.259,2.877,5,5,3.256
1777577683235,-0.279,1.024,-0.753,-1.227,-2.233,1.406,89.632,6.503,1.302,2.910,5,5,3.551
1777577683248,-0.345,1.112,-0.775,-1.064,-2.320,1.378,91.173,6.844,1.399,2.900,5,5,3.862
1777577683262,-0.390,1.138,-0.786,-0.850,-2.377,1.380,92.637,7.233,1.437,2.876,5,5,3.252
1777577683276,-0.396,1.131,-0.772,-0.658,-2.401,1.365,94.022,7.623,1.425,2.839,5,5,3.271
1777577683289,-0.357,1.110,-0.770,-0.480,-2.473,1.313,95.365,7.937,1.397,2.840,5,5,3.275
1777577683303,-0.339,1.186,-0.735,-0.251,-2.501,1.240,96.521,8.188,1.435,2.803,5,5,3.284
1777577683316,-0.394,1.186,-0.712,0.031,-2.501,1.193,97.591,8.525,1.439,2.771,1,1,3.937
1777577683332,-0.560,1.082,-0.665,0.299,-2.501,1.222,98.639,9.192,1.388,2.800,1,1,3.287
1777577683346,-0.704,1.052,-0.619,0.468,-2.501,1.221,99.593,10.101,1.409,2.823,1,1,3.264
1777577683360,-1.104,0.901,-0.758,1.168,-2.057,0.428,100.926,11.547,1.613,2.404,1,1,3.676
1777577683373,-2.095,0.899,-0.610,1.302,-1.369,-0.271,101.941,13.779,2.360,1.908,1,1,3.269
1777577683386,-1.697,0.191,-0.454,0.653,-0.100,1.422,104.358,16.405,1.767,1.568,1,1,3.920
1777577683401,-1.212,0.766,-0.347,0.167,0.102,0.871,104.795,18.103,1.475,0.893,1,1,3.282
1777577683414,-0.159,0.559,-0.693,-0.025,0.390,0.940,106.383,17.754,0.904,1.018,1,1,3.259
1777577683427,-0.018,0.935,-0.570,-0.084,0.264,0.888,107.040,17.019,1.095,0.930,1,1,3.279
1777577683441,-0.007,0.869,-0.610,-0.206,0.214,0.717,107.827,16.290,1.062,0.776,1,1,3.266
1777577683456,0.105,1.001,-0.569,-0.109,0.145,0.269,108.343,15.351,1.157,0.325,1,1,3.941
1777577683471,-0.203,0.930,-0.459,-0.005,0.086,0.204,108.690,15.165,1.057,0.221,1,1,3.534
1777577683485,-0.112,0.923,-0.513,-0.002,0.095,0.198,109.143,14.767,1.062,0.219,1,1,4.000
1777577683498,0.049,0.973,-0.473,0.022,0.074,0.142,109.440,14.007,1.083,0.162,1,1,3.267
1777577683512,0.056,0.938,-0.487,0.029,0.038,0.068,109.789,13.262,1.059,0.083,1,1,3.259
1777577683526,0.022,0.903,-0.503,0.015,0.015,0.027,110.198,12.627,1.034,0.034,1,1,3.943
1777577683540,0.011,0.931,-0.489,-0.005,-0.011,-0.014,110.526,12.048,1.051,0.018,1,1,3.274
1777577683553,-0.005,0.916,-0.493,-0.014,-0.033,-0.055,110.867,11.532,1.040,0.065,1,1,3.268
1777577683566,-0.051,0.937,-0.480,-0.007,-0.036,-0.063,111.141,11.149,1.054,0.073,1,1,3.260
1777577683580,-0.055,0.956,-0.487,0.008,-0.036,-0.059,111.397,10.791,1.075,0.070,1,1,3.271
1777577683593,-0.089,0.933,-0.494,0.018,-0.025,-0.037,111.681,10.529,1.059,0.048,1,1,3.925
1777577683607,-0.116,0.933,-0.503,0.021,-0.012,-0.001,111.971,10.342,1.066,0.024,1,1,3.265
1777577683621,-0.092,0.933,-0.499,0.032,-0.001,0.022,112.240,10.107,1.062,0.039,1,1,3.268
1777577683634,-0.062,0.911,-0.502,0.034,-0.004,0.028,112.529,9.815,1.042,0.044,1,1,3.342
1777577683648,-0.051,0.917,-0.504,0.033,-0.012,0.030,112.804,9.507,1.047,0.046,1,1,3.381
1777577683661,-0.040,0.933,-0.488,0.041,-0.008,0.026,113.014,9.187,1.054,0.050,1,1,3.946
1777577683675,-0.037,0.935,-0.509,0.042,-0.015,0.005,113.257,8.873,1.065,0.045,1,1,3.418
1777577683689,-0.053,0.939,-0.500,0.035,-0.016,-0.007,113.466,8.610,1.065,0.039,1,1,3.255
1777577683702,-0.064,0.954,-0.505,0.028,-0.029,-0.024,113.661,8.381,1.081,0.046,1,1,3.284
1777577683715,-0.064,0.932,-0.512,0.016,-0.030,-0.024,113.885,8.166,1.066,0.041,1,1,3.249
1777577683729,-0.081,0.950,-0.508,0.012,-0.017,-0.013,114.071,7.997,1.080,0.024,1,1,3.855
1777577683743,-0.088,0.939,-0.506,0.010,-0.006,0.002,114.256,7.853,1.070,0.012,1,1,3.261
1777577683756,-0.087,0.931,-0.506,0.006,0.002,0.013,114.443,7.716,1.063,0.014,1,1,3.249
1777577683769,-0.065,0.956,-0.496,0.018,0.010,0.021,114.573,7.530,1.079,0.029,1,1,3.272
1777577683783,-0.058,0.922,-0.509,0.021,0.011,0.015,114.761,7.338,1.054,0.028,1,1,3.250
1777577683796,-0.048,0.906,-0.512,0.018,0.006,0.006,114.967,7.132,1.042,0.020,1,1,3.886
1777577683810,-0.050,0.897,-0.511,0.012,0.002,0.001,115.174,6.941,1.034,0.012,1,1,3.564
1777577683824,-0.050,0.906,-0.503,0.012,-0.002,-0.006,115.343,6.759,1.037,0.013,1,1,3.501
1777577683837,-0.051,0.908,-0.498,0.010,-0.005,-0.013,115.491,6.587,1.037,0.017,1,1,3.268
1777577683851,-0.051,0.902,-0.512,0.004,-0.008,-0.021,115.669,6.421,1.039,0.022,1,1,3.268
1777577683866,-0.041,0.906,-0.496,0.002,-0.015,-0.037,115.801,6.239,1.034,0.040,1,1,3.978
1777577683880,-0.050,0.906,-0.496,-0.003,-0.017,-0.048,115.928,6.087,1.034,0.051,1,1,3.272
1777577683896,-0.045,0.934,-0.494,0.003,-0.024,-0.069,116.014,5.927,1.057,0.073,1,1,6.232
1777577683909,-0.046,0.920,-0.495,0.006,-0.030,-0.080,116.112,5.778,1.046,0.085,1,1,3.278
1777577683924,-0.075,0.935,-0.505,0.010,-0.034,-0.079,116.212,5.702,1.065,0.086,1,1,4.237
1777577683937,-0.080,0.937,-0.506,0.006,-0.034,-0.075,116.306,5.640,1.067,0.083,1,1,3.931
1777577683951,-0.081,0.919,-0.509,-0.001,-0.034,-0.072,116.423,5.585,1.054,0.080,1,1,3.274
1777577683965,-0.073,0.923,-0.505,0.004,-0.032,-0.071,116.522,5.514,1.055,0.078,1,1,3.269
1777577683978,-0.089,0.926,-0.506,-0.001,-0.031,-0.065,116.615,5.485,1.058,0.072,1,1,3.649
1777577683992,-0.079,0.930,-0.496,-0.004,-0.036,-0.066,116.680,5.433,1.057,0.075,1,1,3.272
1777577684005,-0.072,0.923,-0.500,-0.008,-0.042,-0.070,116.757,5.365,1.052,0.082,2,2,3.930
1777577684019,-0.151,0.859,-0.540,0.007,-0.106,-0.082,116.993,5.501,1.026,0.134,2,2,3.280
1777577684033,0.011,0.923,-0.550,-0.009,-0.058,-0.141,117.159,5.235,1.074,0.153,2,2,3.265
1777577684046,-0.104,0.910,-0.500,-0.027,-0.078,-0.127,117.229,5.257,1.043,0.152,2,2,3.283
1777577684059,0.009,0.925,-0.510,-0.032,-0.155,-0.151,117.301,5.006,1.057,0.218,2,2,3.266
1777577684074,-0.127,0.958,-0.475,-0.020,-0.220,-0.090,117.260,5.082,1.076,0.238,4,4,3.954
1777577684088,-0.204,0.922,-0.545,-0.064,-0.226,0.015,117.405,5.331,1.090,0.235,4,4,3.267
1777577684101,-0.210,0.962,-0.522,-0.101,-0.207,0.127,117.452,5.573,1.114,0.263,4,4,3.257
1777577684114,-0.097,0.966,-0.502,-0.084,-0.239,0.215,117.452,5.552,1.092,0.332,4,4,3.267
1777577684128,0.125,1.023,-0.505,-0.023,-0.456,0.347,117.401,5.037,1.148,0.574,4,4,3.255
1777577684141,0.583,1.098,-0.440,0.132,-1.169,0.652,117.159,3.670,1.319,1.345,4,4,3.958
1777577684155,0.861,1.165,-0.329,0.369,-2.499,1.218,116.661,1.960,1.486,2.804,4,4,3.276
1777577684169,1.007,1.194,-0.045,0.595,-2.501,1.814,115.590,0.120,1.563,3.147,4,4,4.033
1777577684183,0.714,1.399,0.266,0.748,-2.501,2.189,114.000,-1.050,1.593,3.407,4,4,3.381
1777577684197,0.285,1.114,0.460,0.734,-2.501,2.369,111.968,-1.585,1.239,3.523,4,4,3.960
1777577684210,-0.030,1.380,0.573,0.628,-2.501,2.113,110.022,-1.465,1.494,3.334,4,4,3.923
1777577684224,-0.267,1.142,0.679,0.561,-2.501,1.938,107.803,-0.904,1.355,3.214,4,4,3.257
1777577684238,-1.096,1.331,0.396,0.473,-2.501,1.379,106.299,0.810,1.769,2.895,4,4,3.248
1777577684251,-1.390,0.798,0.053,0.455,-2.501,0.710,105.420,3.402,1.604,2.640,4,4,3.249
1777577684266,-1.310,0.571,-0.063,0.307,-1.724,0.782,105.023,6.154,1.430,1.918,4,4,4.411
1777577684279,-1.010,0.680,-0.287,0.158,-0.647,0.903,105.365,8.240,1.251,1.122,4,4,3.843
1777577684294,-0.702,1.460,-0.643,0.364,0.026,0.474,105.733,8.919,1.743,0.598,4,4,4.575
1777577684308,-0.376,0.678,-1.194,0.323,0.123,0.165,107.687,9.198,1.423,0.383,4,4,3.250
1777577684322,-0.263,0.474,-2.159,0.322,0.243,0.035,110.308,9.093,2.226,0.405,4,4,3.401
1777577684335,0.056,0.985,-1.156,0.137,0.088,0.222,111.587,8.603,1.520,0.275,4,4,3.272
1777577684349,-0.271,0.737,-0.734,-0.091,0.144,0.272,112.605,8.866,1.075,0.321,4,4,3.945
1777577684363,-0.019,1.071,-0.370,-0.011,0.101,0.203,112.450,8.521,1.134,0.227,4,4,3.278
1777577684376,0.078,0.917,-0.503,-0.026,0.061,0.134,112.725,7.961,1.048,0.149,4,4,3.259
1777577684389,0.233,0.994,-0.444,-0.034,-0.005,-0.048,112.784,7.084,1.113,0.059,4,4,3.274
1777577684403,0.170,1.015,-0.465,0.020,-0.058,-0.247,112.865,6.396,1.130,0.254,4,4,3.264
1777577684416,0.051,0.944,-0.503,0.034,-0.108,-0.359,113.092,5.998,1.071,0.376,1,1,3.939
1777577684430,-0.122,0.929,-0.501,0.053,-0.145,-0.347,113.322,6.023,1.063,0.380,1,1,3.262
1777577684444,-0.201,0.920,-0.518,0.059,-0.141,-0.288,113.587,6.231,1.075,0.326,1,1,3.312
1777577684457,-0.232,0.917,-0.523,0.054,-0.116,-0.194,113.856,6.500,1.081,0.232,1,1,3.265
1777577684471,-0.242,0.910,-0.533,0.038,-0.073,-0.089,114.140,6.781,1.082,0.121,1,1,3.567
1777577684485,-0.212,0.928,-0.527,0.022,-0.031,-0.003,114.378,6.975,1.088,0.038,1,1,4.223
1777577684499,-0.147,0.944,-0.506,0.024,-0.004,0.047,114.544,7.013,1.081,0.053,1,1,3.268
1777577684512,-0.086,0.932,-0.510,0.032,-0.003,0.044,114.724,6.909,1.066,0.054,1,1,3.311
1777577684526,-0.071,0.916,-0.503,0.042,-0.008,0.023,114.903,6.777,1.047,0.049,1,1,3.262
1777577684539,-0.053,0.906,-0.515,0.050,-0.023,-0.006,115.109,6.608,1.044,0.055,1,1,3.279
1777577684553,-0.058,0.900,-0.515,0.042,-0.036,-0.030,115.314,6.458,1.039,0.063,1,1,3.891
1777577684567,-0.099,0.880,-0.523,0.024,-0.038,-0.034,115.551,6.418,1.028,0.056,1,1,3.318
1777577684580,-0.098,0.910,-0.513,0.023,-0.037,-0.042,115.720,6.372,1.049,0.060,1,1,3.255
1777577684594,-0.104,0.918,-0.511,0.024,-0.043,-0.050,115.868,6.340,1.056,0.070,1,1,3.527
1777577684607,-0.090,0.903,-0.513,0.029,-0.054,-0.059,116.031,6.279,1.042,0.085,1,1,3.261
1777577684621,-0.118,0.896,-0.516,0.034,-0.063,-0.059,116.202,6.290,1.041,0.093,1,1,3.926
1777577684635,-0.133,0.909,-0.514,0.044,-0.064,-0.052,116.346,6.332,1.053,0.094,1,1,3.282
1777577684648,-0.146,0.900,-0.529,0.041,-0.047,-0.034,116.525,6.403,1.054,0.071,1,1,3.254
1777577684661,-0.136,0.928,-0.513,0.038,-0.032,-0.017,116.629,6.442,1.069,0.053,1,1,3.298
1777577684675,-0.116,0.933,-0.510,0.036,-0.023,0.002,116.718,6.432,1.069,0.043,1,1,3.440
1777577684689,-0.112,0.936,-0.521,0.039,-0.016,0.008,116.821,6.412,1.077,0.042,1,1,4.594
1777577684703,-0.130,0.938,-0.532,0.039,-0.009,0.024,116.941,6.433,1.086,0.047,1,1,3.269
1777577684717,-0.125,0.939,-0.524,0.044,-0.004,0.037,117.039,6.443,1.083,0.058,1,1,3.475
1777577684730,-0.123,0.945,-0.531,0.057,-0.004,0.046,117.140,6.443,1.091,0.073,1,1,3.252
1777577684744,-0.138,0.939,-0.516,0.066,0.005,0.061,117.213,6.483,1.080,0.090,1,1,3.245
1777577684757,-0.142,0.936,-0.529,0.076,0.011,0.076,117.312,6.529,1.085,0.108,1,1,3.882
1777577684771,-0.125,0.936,-0.514,0.085,0.022,0.105,117.377,6.534,1.075,0.136,1,1,3.246
1777577684785,-0.085,0.938,-0.531,0.108,0.014,0.089,117.471,6.446,1.081,0.141,1,1,3.252
1777577684798,-0.058,0.941,-0.515,0.127,0.010,0.071,117.524,6.299,1.074,0.146,1,1,3.252
1777577684812,-0.047,0.936,-0.558,0.165,-0.003,0.053,117.668,6.132,1.090,0.174,1,1,3.576
1777577684825,-0.082,1.036,-0.483,0.241,-0.006,0.020,117.551,6.043,1.146,0.241,4,4,3.934
1777577684839,-0.044,1.051,-0.506,0.254,-0.020,-0.005,117.470,5.875,1.167,0.254,4,4,3.410
1777577684853,-0.153,0.928,-0.557,0.246,-0.027,0.075,117.622,5.970,1.093,0.258,4,4,3.275
1777577684866,-0.474,1.326,-0.517,0.350,0.042,0.141,117.346,6.514,1.500,0.379,4,4,3.258
1777577684880,-0.064,0.740,-0.594,0.324,0.049,0.212,117.844,6.398,0.951,0.390,4,4,3.273
1777577684893,-0.166,0.961,-0.564,0.349,0.071,0.262,117.956,6.489,1.126,0.442,4,4,3.943
1777577684908,-0.106,0.952,-0.571,0.363,0.079,0.260,118.087,6.443,1.115,0.454,4,4,3.285
1777577684921,-0.065,0.956,-0.572,0.396,0.074,0.238,118.209,6.308,1.116,0.468,4,4,3.259
1777577684935,-0.080,1.026,-0.588,0.445,0.076,0.190,118.279,6.201,1.185,0.489,4,4,3.573
1777577684948,-0.064,1.028,-0.587,0.504,0.068,0.136,118.342,6.066,1.186,0.527,4,4,3.270
1777577684962,-0.039,0.977,-0.601,0.538,0.060,0.102,118.484,5.885,1.148,0.551,4,4,3.926
1777577684976,-0.056,0.875,-0.608,0.558,0.057,0.085,118.760,5.760,1.067,0.568,4,4,3.268
1777577684989,-0.115,0.853,-0.635,0.550,0.067,0.095,119.107,5.778,1.070,0.562,4,4,3.255
1777577685003,-0.151,0.809,-0.638,0.540,0.083,0.114,119.506,5.891,1.041,0.558,4,4,3.285
1777577685016,-0.066,0.816,-0.647,0.540,0.090,0.118,119.895,5.791,1.043,0.560,4,4,3.264
1777577685030,-0.005,0.848,-0.649,0.546,0.073,0.125,120.223,5.550,1.068,0.565,4,4,4.007
1777577685044,-0.020,0.897,-0.661,0.576,0.064,0.093,120.493,5.352,1.114,0.587,4,4,3.266
1777577685057,0.040,0.896,-0.646,0.606,0.043,0.082,120.726,5.027,1.105,0.613,4,4,3.293
1777577685070,-0.044,0.948,-0.688,0.641,0.031,0.069,120.956,4.901,1.172,0.645,4,4,3.270
1777577685084,-0.039,0.971,-0.673,0.695,0.032,0.051,121.121,4.769,1.182,0.698,4,4,3.267
1777577685097,-0.020,0.904,-0.708,0.739,-0.001,0.039,121.424,4.603,1.148,0.740,4,4,3.987
1777577685111,0.044,0.995,-0.692,0.812,-0.022,-0.008,121.573,4.310,1.213,0.812,4,4,3.259
1777577685125,-0.010,0.963,-0.715,0.875,-0.030,-0.044,121.792,4.142,1.199,0.876,4,4,3.281
1777577685138,0.021,1.049,-0.694,0.984,-0.063,-0.098,121.867,3.920,1.258,0.990,4,4,3.274
1777577685152,0.074,0.950,-0.719,1.063,-0.113,-0.145,122.097,3.593,1.193,1.079,4,4,3.277
1777577685165,-0.006,1.073,-0.733,1.182,-0.126,-0.179,122.196,3.447,1.299,1.202,4,4,3.942
1777577685180,-0.052,1.101,-0.691,1.345,-0.128,-0.187,122.192,3.396,1.301,1.364,4,4,4.371
1777577685194,-0.120,1.084,-0.702,1.519,-0.109,-0.174,122.224,3.480,1.298,1.533,4,4,3.403
1777577685207,-0.125,1.196,-0.717,1.727,-0.082,-0.184,122.168,3.552,1.400,1.739,4,4,3.291
1777577685221,-0.160,1.348,-0.708,1.987,-0.038,-0.193,121.973,3.658,1.531,1.997,4,4,3.274
1777577685234,-0.096,1.363,-0.709,2.263,0.012,-0.204,121.777,3.655,1.539,2.273,4,4,3.851
1777577685248,-0.155,1.587,-0.764,2.501,0.071,-0.212,121.512,3.715,1.768,2.511,4,4,3.259
1777577685262,0.000,1.489,-0.873,2.501,0.109,-0.232,121.462,3.552,1.726,2.514,4,4,3.253
1777577685276,-0.076,1.604,-1.022,2.501,0.191,-0.153,121.507,3.497,1.903,2.513,4,4,3.800
1777577685289,-0.176,1.389,-1.033,2.501,0.295,0.191,121.731,3.598,1.740,2.526,4,4,3.247
1777577685303,-0.306,1.386,-1.173,2.501,0.276,0.155,122.103,3.859,1.842,2.521,4,4,4.047
1777577685318,-0.321,1.188,-1.099,2.501,0.462,0.481,122.569,4.180,1.650,2.589,4,4,3.255
1777577685332,-0.186,1.086,-1.022,2.501,0.491,0.881,123.037,4.309,1.503,2.697,4,4,3.260
1777577685345,-0.124,0.884,-0.785,2.501,0.405,1.103,123.413,4.382,1.188,2.764,4,4,3.269
1777577685359,-0.043,0.730,-0.384,2.501,0.276,1.105,123.163,4.322,0.826,2.749,4,4,3.268
1777577685372,0.230,-0.112,-0.202,2.501,0.078,0.755,111.174,2.171,0.327,2.614,4,4,3.949
1777577685386,-0.156,-1.004,-1.053,2.276,0.382,-0.236,100.348,2.343,1.463,2.320,4,4,3.262
1777577685401,-0.280,-0.471,-0.527,0.931,0.532,-0.504,89.913,3.186,0.760,1.185,4,4,3.278
1777577685414,0.165,-0.667,-0.451,-0.171,0.552,-0.791,80.555,2.541,0.822,0.979,4,4,3.258
1777577685428,0.371,-0.232,-0.405,-0.983,0.345,-0.931,70.464,0.746,0.596,1.397,4,4,3.589
1777577685441,0.327,-0.046,-0.349,-1.546,0.043,-0.747,59.840,-1.161,0.480,1.717,4,4,3.938
1777577685456,0.421,-0.185,-0.270,-2.132,-0.328,-0.374,50.859,-3.389,0.533,2.189,4,4,3.254
1777577685469,0.287,-0.189,-0.181,-2.501,-0.692,0.013,42.787,-5.323,0.388,2.595,4,4,3.268
1777577685483,0.100,0.082,-0.092,-2.501,-0.940,0.370,46.954,-6.801,0.159,2.698,4,4,3.254
1777577685496,-0.070,0.265,-0.012,-2.501,-1.063,0.650,48.951,-5.860,0.275,2.795,4,4,3.270
1777577685509,-0.217,0.482,0.080,-2.501,-1.073,0.819,50.337,-4.557,0.535,2.842,4,4,3.932
1777577685524,-0.253,0.789,0.038,-2.501,-0.996,0.867,51.952,-3.580,0.829,2.829,4,4,3.289
1777577685537,-0.224,0.826,-0.060,-2.501,-0.946,0.811,53.797,-2.762,0.858,2.795,4,4,3.272
1777577685551,-0.285,0.683,-0.111,-2.501,-0.901,0.636,55.783,-1.662,0.749,2.734,4,4,3.530
1777577685564,-0.298,0.546,-0.142,-2.501,-0.860,0.375,57.917,-0.373,0.638,2.672,4,4,3.266
1777577685578,-0.248,0.685,-0.157,-2.501,-0.859,0.168,59.886,0.495,0.745,2.650,5,5,3.931
1777577685592,-0.161,1.030,-0.263,-2.501,-0.893,0.176,61.831,0.850,1.075,2.662,5,5,3.270
1777577685605,-0.135,1.314,-0.446,-2.501,-0.940,0.366,63.882,1.056,1.394,2.697,5,5,3.270
1777577685618,-0.166,1.282,-0.612,-2.501,-0.990,0.553,66.140,1.302,1.431,2.746,5,5,3.264
1777577685632,-0.287,1.289,-0.777,-2.501,-0.988,0.605,68.543,1.716,1.532,2.757,5,5,3.266
1777577685645,-0.436,1.373,-0.822,-2.501,-0.848,0.441,70.833,2.308,1.658,2.678,5,5,3.986
1777577685659,-0.562,1.428,-0.883,-2.501,-0.546,0.196,73.059,3.016,1.771,2.568,5,5,3.263
1777577685673,-0.574,1.486,-0.895,-2.501,-0.164,0.007,75.159,3.686,1.827,2.507,5,5,3.435
1777577685686,-0.537,1.620,-0.925,-2.501,0.245,-0.102,77.108,4.227,1.942,2.515,5,5,3.266
1777577685700,-0.480,1.621,-0.968,-2.501,0.630,-0.112,79.020,4.666,1.948,2.582,5,5,3.286
1777577685713,-0.355,1.411,-0.978,-2.501,0.938,0.065,81.019,4.973,1.753,2.672,5,5,4.132
1777577685728,-0.181,1.449,-1.013,-2.501,1.096,0.296,82.941,5.011,1.777,2.747,5,5,3.370
1777577685741,-0.058,1.539,-1.125,-2.501,1.080,0.283,84.831,4.868,1.907,2.739,5,5,3.293
1777577685755,-0.080,1.544,-1.322,-2.501,0.907,0.084,86.831,4.754,2.035,2.662,5,5,3.259
1777577685770,-0.157,1.428,-1.570,-2.501,0.746,-0.102,89.057,4.731,2.128,2.612,5,5,4.930
1777577685783,-0.150,1.444,-1.734,-2.213,0.682,-0.171,91.294,4.690,2.262,2.322,5,5,3.848
1777577685797,0.236,1.328,-1.862,-1.693,0.548,-0.067,93.621,4.227,2.299,1.780,5,5,3.492
1777577685811,0.484,0.954,-2.164,-1.231,0.142,0.459,96.359,3.536,2.414,1.321,5,5,3.254
1777577685824,0.044,0.833,-2.260,-0.717,-0.138,0.854,99.132,3.335,2.408,1.124,5,5,3.247
1777577685838,-0.495,0.653,-2.237,-0.160,-0.189,0.744,101.957,3.714,2.383,0.784,5,5,3.272
1777577685851,-0.804,0.538,-2.125,0.316,-0.067,0.140,104.748,4.433,2.335,0.352,1,1,3.926
1777577685865,-0.702,0.575,-1.920,0.500,0.019,0.274,107.310,5.083,2.123,0.570,1,1,3.282
1777577685878,0.573,0.389,1.323,1.493,0.140,0.270,103.334,3.874,1.493,1.524,1,1,3.270
1777577685892,-0.140,1.330,1.027,2.501,-0.334,-0.305,101.104,3.913,1.686,2.542,1,1,3.303
1777577685905,-0.353,0.997,0.022,2.501,-0.110,-0.420,100.563,4.594,1.058,2.539,1,1,3.293
1777577685919,-0.308,0.867,-0.275,2.501,0.125,-0.279,100.870,5.212,0.960,2.520,1,1,3.929
1777577685933,-0.299,0.733,-0.643,2.439,0.187,-0.234,102.198,5.730,1.020,2.457,1,1,3.325
1777577685947,-0.340,0.740,-0.605,2.127,0.194,-0.128,103.382,6.334,1.015,2.139,1,1,3.264
1777577685960,-0.180,0.734,-0.712,1.785,0.208,-0.052,104.728,6.493,1.038,1.798,1,1,3.273
1777577685974,0.150,0.610,-0.917,1.255,0.032,-0.173,106.550,5.869,1.111,1.267,1,1,3.257
1777577685987,-0.303,0.722,-0.716,0.845,0.129,-0.171,107.784,6.338,1.061,0.872,1,1,3.951
1777577686001,-0.139,0.845,-0.603,0.637,0.115,-0.101,108.559,6.394,1.047,0.655,1,1,3.262
1777577686015,-0.087,0.852,-0.602,0.398,-0.001,0.016,109.288,6.324,1.046,0.399,1,1,3.635
1777577686028,-0.089,0.893,-0.571,0.194,0.054,0.126,109.870,6.258,1.063,0.237,1,1,3.280
1777577686042,-0.094,0.895,-0.574,0.163,0.066,0.129,110.431,6.204,1.067,0.218,1,1,3.252
1777577686055,-0.106,0.930,-0.518,0.095,0.070,0.156,110.811,6.180,1.070,0.195,1,1,3.939
1777577686069,-0.131,0.921,-0.510,0.076,0.085,0.147,111.169,6.219,1.061,0.186,1,1,3.264
1777577686083,-0.142,0.921,-0.488,0.069,0.100,0.154,111.464,6.287,1.052,0.196,1,1,3.280
1777577686096,-0.096,0.918,-0.504,0.072,0.105,0.165,111.783,6.240,1.052,0.208,1,1,3.257
1777577686110,-0.091,0.919,-0.516,0.074,0.110,0.155,112.112,6.183,1.058,0.203,1,1,4.051
1777577686124,-0.085,0.917,-0.509,0.081,0.118,0.149,112.415,6.115,1.053,0.206,1,1,3.933
1777577686138,-0.064,0.897,-0.528,0.087,0.103,0.122,112.767,6.003,1.043,0.182,1,1,3.701
1777577686152,-0.050,0.915,-0.509,0.085,0.094,0.096,113.044,5.861,1.048,0.159,1,1,3.272
1777577686165,-0.074,0.934,-0.505,0.086,0.090,0.074,113.279,5.779,1.064,0.145,1,1,3.254
1777577686179,-0.054,0.892,-0.504,0.073,0.076,0.063,113.550,5.658,1.026,0.123,1,1,3.266
1777577686192,-0.062,0.919,-0.509,0.058,0.079,0.051,113.788,5.560,1.052,0.110,1,1,3.931
1777577686206,-0.042,0.909,-0.526,0.045,0.070,0.022,114.062,5.418,1.051,0.086,1,1,3.282
1777577686219,-0.057,0.934,-0.501,0.043,0.060,0.000,114.243,5.316,1.062,0.074,1,1,3.286
1777577686234,-0.052,0.892,-0.530,0.017,0.071,-0.042,114.526,5.210,1.039,0.084,1,1,3.320
1777577686247,-0.081,0.959,-0.497,0.028,0.053,-0.037,114.652,5.168,1.084,0.070,1,1,3.275
1777577686260,-0.090,0.925,-0.515,0.024,0.032,-0.019,114.847,5.154,1.062,0.044,1,1,3.930
1777577686274,-0.049,1.080,-0.500,0.052,0.010,-0.018,114.847,5.032,1.191,0.056,1,1,3.270
1777577686288,-0.064,0.899,-0.526,0.064,-0.019,-0.018,115.087,4.965,1.044,0.069,1,1,3.257
1777577686302,-0.066,0.950,-0.513,0.080,-0.037,-0.006,115.230,4.900,1.082,0.088,1,1,3.275
1777577686315,-0.100,1.032,-0.524,0.105,-0.053,0.049,115.304,4.902,1.162,0.127,1,1,3.475
1777577686329,-0.095,1.162,-0.531,0.208,-0.054,0.016,115.271,4.874,1.281,0.215,1,1,3.904
1777577686343,-0.073,0.997,-0.527,0.308,-0.044,0.092,115.385,4.824,1.131,0.325,1,1,3.260
1777577686356,-0.099,0.990,-0.529,0.391,-0.049,0.025,115.505,4.834,1.127,0.395,1,1,3.265
1777577686369,-0.081,0.963,-0.545,0.413,-0.035,0.063,115.681,4.806,1.110,0.419,1,1,3.260
1777577686383,-0.081,0.907,-0.553,0.415,-0.017,0.109,115.930,4.787,1.066,0.429,1,1,3.260
1777577686397,-0.105,1.020,-0.584,0.452,0.002,0.156,116.099,4.800,1.180,0.478,1,1,4.354
1777577686411,-0.162,1.051,-0.585,0.525,0.043,0.136,116.230,4.925,1.213,0.544,1,1,3.258
1777577686424,-0.101,1.062,-0.599,0.581,0.067,0.102,116.371,4.917,1.223,0.594,1,1,3.279
1777577686437,-0.121,1.113,-0.590,0.650,0.082,0.045,116.438,4.943,1.265,0.656,1,1,3.270
1777577686451,-0.080,1.035,-0.592,0.713,0.090,0.040,116.583,4.894,1.195,0.720,1,1,3.265
1777577686464,-0.064,0.964,-0.581,0.754,0.078,0.024,116.779,4.822,1.127,0.758,4,4,3.923
1777577686478,-0.022,0.908,-0.626,0.761,0.055,0.003,117.120,4.662,1.104,0.763,4,4,3.292
1777577686491,0.006,0.868,-0.606,0.787,0.043,-0.013,117.461,4.444,1.059,0.788,4,4,3.276
1777577686505,-0.012,0.894,-0.624,0.801,0.017,-0.024,117.788,4.278,1.090,0.802,4,4,3.260
1777577686518,-0.117,0.833,-0.655,0.804,0.024,-0.052,118.243,4.366,1.066,0.806,4,4,3.277
1777577686532,-0.004,0.865,-0.642,0.835,-0.013,-0.034,118.607,4.184,1.077,0.835,4,4,3.912
1777577686546,-0.045,0.821,-0.688,0.846,-0.012,-0.063,119.104,4.107,1.072,0.849,4,4,3.809
1777577686559,-0.055,0.861,-0.687,0.870,-0.032,-0.037,119.519,4.053,1.103,0.872,4,4,3.262
1777577686573,-0.083,0.947,-0.705,0.914,-0.006,-0.035,119.831,4.053,1.184,0.915,4,4,3.283
1777577686586,-0.053,0.915,-0.674,0.972,-0.030,-0.047,120.117,3.993,1.137,0.973,4,4,3.271
1777577686600,-0.082,0.972,-0.722,1.043,-0.052,-0.071,120.399,3.987,1.214,1.046,4,4,3.915
1777577686614,-0.047,0.992,-0.697,1.147,-0.060,-0.087,120.603,3.910,1.213,1.151,4,4,3.292
1777577686627,-0.050,1.128,-0.690,1.297,-0.055,-0.125,120.641,3.834,1.323,1.304,4,4,3.260
1777577686640,-0.052,1.139,-0.686,1.464,-0.068,-0.127,120.660,3.764,1.331,1.471,4,4,3.306
1777577686654,-0.195,1.200,-0.691,1.667,-0.035,-0.138,120.629,3.951,1.398,1.673,4,4,3.281
1777577686667,-0.098,1.326,-0.675,1.921,-0.017,-0.145,120.469,3.943,1.491,1.926,4,4,4.220
1777577686681,-0.162,1.541,-0.714,2.263,0.050,-0.150,120.224,4.008,1.706,2.268,4,4,3.271
1777577686695,-0.097,1.613,-0.698,2.501,0.116,-0.191,119.926,3.972,1.760,2.511,4,4,3.273
1777577686708,-0.290,1.652,-0.827,2.501,0.213,-0.144,119.780,4.188,1.870,2.514,4,4,3.273
1777577686722,-0.218,1.588,-0.903,2.501,0.294,-0.067,119.774,4.303,1.840,2.519,4,4,3.275
1777577686737,-0.227,1.535,-0.989,2.501,0.430,0.341,119.905,4.424,1.840,2.561,4,4,5.764
1777577686751,-0.315,1.082,-1.252,2.501,0.495,1.079,120.748,4.701,1.685,2.769,4,4,3.384
1777577686765,-0.108,0.800,-1.302,2.501,0.537,1.499,121.960,4.673,1.532,2.965,4,4,3.886
1777577686778,0.062,0.615,-1.181,2.501,0.420,1.730,123.294,4.353,1.333,3.070,4,4,3.262
1777577686792,0.183,0.575,-1.086,2.501,0.171,1.906,124.553,3.793,1.243,3.150,4,4,3.271
1777577686805,0.289,0.375,-0.833,2.501,-0.192,1.991,125.919,2.859,0.959,3.203,4,4,3.951
1777577686819,0.431,-0.370,-0.312,1.766,-0.600,1.681,114.717,0.912,0.648,2.511,4,4,3.314
1777577686833,-0.313,0.222,-0.849,1.873,-0.487,0.535,116.932,1.732,0.932,2.008,4,4,3.266
1777577686846,-0.500,-0.098,-0.671,0.989,-0.231,-0.148,104.308,3.249,0.842,1.027,4,4,3.253
1777577686859,-0.206,-0.402,-0.587,0.277,0.020,-0.535,93.380,3.811,0.741,0.602,4,4,3.267
1777577686873,-0.118,-0.103,-0.514,-0.301,0.139,-0.749,81.919,4.197,0.537,0.819,4,4,3.893
1777577686887,0.054,0.030,-0.351,-0.783,0.111,-0.791,85.994,3.633,0.356,1.119,4,4,3.266
1777577686900,0.070,0.062,-0.230,-1.174,0.049,-0.676,89.441,2.758,0.248,1.356,4,4,3.263
1777577686914,0.026,0.016,-0.268,-1.568,-0.045,-0.572,93.253,2.391,0.269,1.670,4,4,3.295
1777577686927,0.010,0.027,-0.133,-1.935,-0.145,-0.502,96.546,2.097,0.136,2.004,4,4,3.293
1777577686940,0.002,-0.002,-0.071,-2.343,-0.262,-0.441,84.538,1.937,0.071,2.398,4,4,3.891
1777577686955,-0.024,-0.092,0.039,-2.501,-0.400,-0.383,77.916,2.449,0.102,2.562,4,4,3.277
1777577686969,0.062,-0.131,0.158,-2.501,-0.544,-0.290,72.778,1.613,0.215,2.576,4,4,3.264
1777577686986,0.019,0.615,0.184,-2.501,-0.682,-0.012,72.803,1.468,0.642,2.593,4,4,3.285
1777577686999,-0.016,0.845,0.071,-2.501,-0.708,0.320,73.346,1.451,0.849,2.619,4,4,3.263
1777577687013,-0.047,0.843,-0.088,-2.501,-0.692,0.600,74.336,1.527,0.848,2.664,4,4,4.463
1777577687027,-0.099,0.754,-0.259,-2.501,-0.657,0.652,75.850,1.771,0.803,2.667,4,4,3.264
1777577687040,-0.164,0.704,-0.349,-2.501,-0.602,0.470,77.622,2.210,0.802,2.615,4,4,3.260
1777577687054,-0.155,0.813,-0.436,-2.501,-0.547,0.197,79.398,2.531,0.935,2.568,4,4,3.262
1777577687067,-0.200,1.125,-0.593,-2.501,-0.469,0.099,81.077,2.811,1.287,2.547,4,4,3.517
1777577687081,-0.263,1.260,-0.712,-2.501,-0.330,0.123,82.757,3.139,1.471,2.526,5,5,4.106
1777577687095,-0.354,1.298,-0.814,-2.501,-0.095,0.132,84.478,3.571,1.572,2.507,5,5,3.516
1777577687109,-0.411,1.325,-0.847,-2.501,0.191,0.080,86.144,4.056,1.625,2.510,5,5,3.266
1777577687122,-0.355,1.336,-0.822,-2.501,0.466,-0.044,87.695,4.436,1.608,2.545,5,5,3.255
1777577687136,-0.276,1.466,-0.819,-2.501,0.675,-0.154,89.073,4.650,1.702,2.595,5,5,3.270
1777577687149,-0.157,1.518,-0.850,-2.501,0.800,-0.212,90.392,4.672,1.747,2.635,5,5,3.932
1777577687163,-0.026,1.593,-0.879,-2.501,0.817,-0.162,91.639,4.503,1.819,2.636,5,5,3.271
1777577687176,0.077,1.654,-0.927,-2.501,0.730,-0.023,92.847,4.205,1.897,2.606,5,5,3.273
1777577687190,0.145,1.664,-0.968,-2.501,0.582,0.053,94.042,3.833,1.930,2.569,5,5,3.531
1777577687203,0.194,1.743,-1.039,-2.501,0.410,0.014,95.212,3.427,2.039,2.535,5,5,3.268
1777577687217,0.254,1.739,-1.088,-2.501,0.241,-0.011,96.386,2.969,2.067,2.513,5,5,3.929
1777577687231,0.456,0.938,-0.977,-2.397,0.119,0.154,98.126,2.025,1.429,2.405,5,5,3.273
1777577687244,0.271,0.702,-0.843,-2.250,0.003,0.500,99.966,1.331,1.130,2.305,5,5,3.253
1777577687258,0.122,1.836,-1.467,-1.948,-0.128,0.876,101.220,1.143,2.354,2.140,5,5,3.304
1777577687272,-0.026,1.057,-1.497,-1.549,-0.255,1.122,103.125,1.129,1.833,1.930,5,5,3.399
1777577687286,-0.617,1.062,-1.685,-1.105,-0.179,0.880,105.077,1.833,2.085,1.424,5,5,3.961
1777577687300,-0.843,0.781,-1.725,-0.620,0.079,0.243,107.288,2.802,2.073,0.671,5,5,3.264
1777577687313,-0.635,0.730,-1.708,-0.182,0.252,-0.370,109.456,3.506,1.964,0.483,5,5,3.313
1777577687327,0.049,4.000,-1.561,1.068,0.116,-1.404,109.537,3.324,4.294,1.768,5,5,3.639
1777577687340,0.953,0.650,-1.347,2.085,-0.111,-0.626,111.492,1.757,1.773,2.180,5,5,3.257
1777577687354,-1.165,1.302,0.013,2.179,-0.208,-0.433,110.527,3.509,1.748,2.231,1,1,3.883
1777577687368,-0.325,1.104,0.485,2.433,-0.223,-0.368,108.591,4.015,1.248,2.470,1,1,3.248
1777577687381,0.018,0.890,-0.219,2.501,-0.199,-0.505,108.384,3.790,0.917,2.560,1,1,3.250
1777577687394,-0.392,0.837,-0.298,2.390,0.097,-0.425,108.437,4.665,0.971,2.429,1,1,3.248
1777577687410,-0.333,0.750,-0.559,2.139,0.208,-0.313,109.235,5.317,0.993,2.172,1,1,3.258
1777577687423,-0.349,0.800,-0.531,1.865,0.267,-0.169,109.861,5.959,1.022,1.892,1,1,4.011
1777577687437,-0.277,0.902,-0.528,1.706,0.262,-0.047,110.320,6.346,1.081,1.726,1,1,3.600
1777577687451,-0.076,0.827,-0.612,1.506,0.316,-0.048,111.028,6.253,1.032,1.540,1,1,3.264
1777577687464,0.070,0.701,-0.742,1.059,0.140,-0.160,112.149,5.808,1.023,1.081,1,1,3.315
1777577687478,-0.205,0.848,-0.589,0.753,0.177,-0.129,112.702,6.044,1.053,0.784,1,1,3.267
1777577687491,-0.211,0.885,-0.559,0.595,0.170,-0.061,113.121,6.279,1.068,0.622,1,1,3.926
1777577687505,-0.080,0.843,-0.621,0.340,0.009,0.040,113.701,6.195,1.049,0.342,1,1,3.299
1777577687519,-0.034,0.989,-0.510,0.264,0.066,0.091,113.858,6.001,1.113,0.287,1,1,3.263
1777577687532,-0.225,0.902,-0.553,0.209,0.072,0.119,114.194,6.264,1.081,0.251,1,1,3.321
1777577687546,-0.103,0.983,-0.478,0.162,0.088,0.122,114.269,6.226,1.097,0.221,1,1,3.259
1777577687559,-0.154,1.004,-0.472,0.152,0.100,0.151,114.309,6.299,1.120,0.237,1,1,4.158
1777577687575,-0.104,0.865,-0.551,0.127,0.110,0.156,114.668,6.275,1.031,0.230,1,1,3.268
1777577687588,-0.080,0.888,-0.531,0.108,0.115,0.136,114.938,6.195,1.037,0.208,1,1,3.263
1777577687602,-0.021,0.894,-0.527,0.105,0.095,0.077,115.183,5.976,1.038,0.161,1,1,3.257
1777577687616,-0.016,0.851,-0.532,0.075,0.067,0.010,115.481,5.754,1.004,0.101,1,1,3.251
1777577687629,-0.026,0.902,-0.503,0.069,0.030,-0.039,115.640,5.565,1.033,0.085,1,1,3.917
1777577687643,-0.047,0.873,-0.520,0.055,-0.009,-0.083,115.866,5.438,1.017,0.100,1,1,3.268
1777577687657,-0.054,0.924,-0.510,0.071,-0.055,-0.101,115.998,5.328,1.057,0.135,1,1,3.262
1777577687670,-0.096,0.901,-0.508,0.076,-0.074,-0.107,116.148,5.327,1.038,0.151,1,1,3.252
1777577687684,-0.090,0.907,-0.519,0.082,-0.089,-0.101,116.305,5.310,1.049,0.158,1,1,3.596
1777577687697,-0.090,0.916,-0.510,0.081,-0.090,-0.098,116.427,5.292,1.052,0.155,1,1,3.893
1777577687711,-0.143,0.902,-0.530,0.081,-0.080,-0.083,116.602,5.400,1.056,0.140,1,1,3.253
1777577687725,-0.143,0.923,-0.524,0.074,-0.063,-0.060,116.731,5.498,1.071,0.114,1,1,3.263
1777577687738,-0.133,0.894,-0.522,0.068,-0.039,-0.057,116.886,5.578,1.044,0.097,1,1,3.257
1777577687751,-0.139,0.939,-0.520,0.100,-0.018,-0.051,116.977,5.656,1.082,0.114,1,1,3.267
1777577687765,-0.062,0.995,-0.542,0.130,-0.009,-0.134,117.046,5.546,1.135,0.187,1,1,3.885
1777577687781,-0.112,0.934,-0.532,0.181,-0.013,-0.228,117.162,5.565,1.081,0.291,1,1,3.595
1777577687794,-0.136,0.955,-0.555,0.205,-0.006,-0.207,117.294,5.628,1.113,0.291,1,1,3.276
1777577687808,-0.331,1.117,-0.538,0.274,0.008,-0.047,117.226,6.035,1.283,0.278,1,1,3.661
1777577687822,-0.155,0.958,-0.565,0.378,0.038,0.072,117.371,6.119,1.123,0.387,1,1,3.254
1777577687835,-0.159,1.015,-0.551,0.411,0.038,0.076,117.420,6.194,1.166,0.419,1,1,3.906
1777577687849,-0.090,1.013,-0.573,0.455,0.049,0.133,117.511,6.116,1.168,0.476,1,1,3.273
1777577687862,-0.147,1.083,-0.577,0.507,0.061,0.105,117.534,6.148,1.236,0.521,1,1,3.250
1777577687876,-0.135,0.977,-0.579,0.563,0.075,0.100,117.671,6.175,1.144,0.577,1,1,3.260
1777577687889,-0.151,0.953,-0.590,0.580,0.095,0.108,117.849,6.241,1.131,0.598,1,1,3.259
1777577687903,-0.144,0.956,-0.583,0.607,0.105,0.109,118.003,6.288,1.128,0.625,4,4,3.920
1777577687917,-0.106,0.927,-0.614,0.623,0.107,0.120,118.243,6.251,1.117,0.643,4,4,3.255
1777577687930,-0.095,0.922,-0.611,0.643,0.101,0.116,118.474,6.193,1.111,0.661,4,4,3.529
1777577687944,-0.103,0.902,-0.620,0.675,0.099,0.105,118.737,6.157,1.099,0.690,4,4,3.258
1777577687957,-0.078,0.881,-0.630,0.687,0.088,0.077,119.035,6.069,1.086,0.697,4,4,3.284
1777577687970,-0.078,0.818,-0.637,0.695,0.079,0.087,119.423,5.992,1.040,0.705,4,4,3.898
1777577687984,-0.083,0.792,-0.683,0.691,0.061,0.062,119.920,5.929,1.049,0.697,4,4,3.259
1777577687998,-0.038,0.759,-0.655,0.682,0.052,0.048,120.396,5.764,1.003,0.686,4,4,3.397
1777577688011,-0.018,0.755,-0.689,0.670,0.033,0.036,120.920,5.557,1.022,0.671,4,4,3.259
1777577688025,-0.107,0.789,-0.702,0.660,0.039,0.037,121.389,5.567,1.061,0.663,4,4,3.488
1777577688038,-0.082,0.837,-0.766,0.671,0.022,0.033,121.873,5.504,1.138,0.672,4,4,3.902
1777577688053,0.009,0.869,-0.720,0.702,0.002,-0.011,122.212,5.243,1.129,0.702,4,4,3.459
1777577688066,-0.011,0.955,-0.714,0.770,-0.024,-0.004,122.412,5.038,1.192,0.770,4,4,3.266
1777577688079,-0.069,0.978,-0.737,0.843,-0.024,-0.036,122.613,4.958,1.226,0.844,4,4,3.266
1777577688093,-0.193,0.995,-0.711,0.934,0.003,0.000,122.741,5.133,1.238,0.934,4,4,3.269
1777577688106,-0.182,1.024,-0.770,1.045,0.015,-0.031,122.924,5.262,1.294,1.045,4,4,4.166
1777577688120,-0.062,1.100,-0.741,1.210,-0.014,-0.033,122.970,5.150,1.328,1.210,4,4,3.278
1777577688134,-0.131,1.175,-0.732,1.384,0.011,-0.056,122.924,5.161,1.391,1.386,4,4,3.265
1777577688148,-0.176,1.221,-0.725,1.609,0.049,-0.046,122.827,5.244,1.431,1.610,4,4,3.664
1777577688161,-0.217,1.387,-0.709,1.868,0.099,-0.063,122.575,5.361,1.573,1.871,4,4,3.272
1777577688174,-0.075,1.514,-0.769,2.186,0.120,-0.091,122.328,5.237,1.700,2.191,4,4,3.878
1777577688189,0.020,1.469,-0.808,2.501,0.135,-0.161,122.174,4.978,1.677,2.510,4,4,3.272
1777577688202,-0.073,1.666,-0.859,2.501,0.150,-0.204,121.960,4.858,1.876,2.514,4,4,3.255
1777577688215,0.005,1.597,-1.004,2.501,0.161,-0.245,121.969,4.638,1.887,2.518,4,4,3.272
1777577688229,0.130,1.411,-0.972,2.501,0.188,0.055,122.082,4.246,1.719,2.509,4,4,3.258
1777577688244,0.008,1.295,-1.130,2.501,0.104,0.207,122.476,4.049,1.719,2.512,4,4,3.906
1777577688258,0.019,1.109,-1.064,2.501,0.142,0.531,122.973,3.840,1.537,2.561,4,4,3.268
1777577688273,0.152,1.008,-0.986,2.501,0.086,1.156,123.471,3.404,1.418,2.757,4,4,4.334
1777577688286,0.207,0.814,-0.835,2.501,-0.081,1.570,124.006,2.816,1.184,2.954,4,4,3.261
1777577688299,0.115,0.758,-0.593,2.501,-0.297,1.701,124.183,2.395,0.969,3.039,4,4,3.291
1777577688313,0.336,-0.295,-0.134,2.424,-0.585,1.837,113.750,0.275,0.467,3.097,4,4,3.997
1777577688327,-0.162,0.105,-0.197,1.961,-0.713,1.516,115.417,1.836,0.276,2.579,4,4,3.268
1777577688340,-0.414,-0.323,-0.607,1.001,-0.481,0.980,103.722,3.114,0.803,1.481,4,4,3.359
1777577688354,-0.519,-0.598,-0.560,0.017,-0.135,0.527,93.364,4.393,0.970,0.544,4,4,3.248
1777577688367,-0.537,-0.229,-0.573,-0.678,0.239,-0.062,82.364,5.996,0.818,0.721,4,4,3.267
1777577688380,-0.334,-0.023,-0.513,-1.161,0.438,-0.581,71.001,7.178,0.613,1.370,4,4,3.853
1777577688394,-0.105,0.122,-0.403,-1.518,0.455,-0.992,75.034,7.476,0.434,1.870,4,4,3.250
1777577688408,0.004,0.075,-0.399,-1.823,0.328,-1.013,79.158,7.125,0.406,2.112,4,4,3.259
1777577688421,0.107,-0.011,-0.367,-2.180,0.125,-0.811,67.897,6.100,0.382,2.329,4,4,3.248
1777577688434,0.150,-0.096,-0.268,-2.501,-0.146,-0.505,57.915,4.616,0.322,2.556,4,4,3.264
1777577688448,0.189,0.032,-0.157,-2.501,-0.415,-0.111,62.755,2.242,0.248,2.538,4,4,3.885
1777577688462,0.181,0.467,-0.063,-2.501,-0.626,0.275,64.282,1.222,0.505,2.593,4,4,3.294
1777577688475,0.113,0.569,-0.107,-2.501,-0.779,0.682,65.874,0.687,0.590,2.707,4,4,3.268
1777577688488,-0.024,0.661,-0.137,-2.501,-0.825,0.993,67.440,0.745,0.676,2.815,4,4,3.263
1777577688502,-0.215,0.677,-0.220,-2.501,-0.751,1.099,69.214,1.448,0.744,2.834,4,4,3.261
1777577688515,-0.359,0.618,-0.281,-2.501,-0.614,0.968,71.193,2.603,0.768,2.752,4,4,3.924
1777577688529,-0.344,0.578,-0.294,-2.501,-0.447,0.561,73.196,3.711,0.734,2.602,4,4,3.271
1777577688543,-0.328,0.696,-0.329,-2.501,-0.336,0.250,75.038,4.558,0.837,2.536,4,4,3.274
1777577688557,-0.320,0.946,-0.415,-2.501,-0.220,0.231,76.729,5.111,1.081,2.522,4,4,4.539
1777577688571,-0.328,1.113,-0.541,-2.501,-0.100,0.337,78.443,5.537,1.280,2.526,4,4,3.259
1777577688585,-0.323,1.109,-0.635,-2.501,0.029,0.385,80.251,5.916,1.318,2.531,5,5,4.470
1777577688599,-0.326,1.114,-0.682,-2.501,0.148,0.320,82.055,6.271,1.346,2.526,5,5,3.336
1777577688612,-0.295,1.214,-0.665,-2.501,0.254,0.148,83.659,6.523,1.415,2.519,5,5,3.259
1777577688625,-0.231,1.314,-0.680,-2.501,0.344,0.022,85.133,6.626,1.498,2.525,5,5,3.274
1777577688639,-0.156,1.418,-0.688,-2.501,0.406,0.019,86.479,6.584,1.584,2.534,5,5,3.268
1777577688652,-0.159,1.562,-0.762,-2.501,0.498,0.115,87.770,6.525,1.745,2.553,5,5,4.109
1777577688666,-0.138,1.674,-0.849,-2.501,0.596,0.249,89.044,6.424,1.882,2.584,5,5,3.256
1777577688680,-0.115,1.684,-0.961,-2.501,0.655,0.404,90.386,6.291,1.943,2.617,5,5,3.298
1777577688693,-0.170,1.775,-1.069,-2.501,0.694,0.511,91.727,6.221,2.079,2.646,5,5,3.284
1777577688707,-0.198,1.812,-1.210,-2.501,0.752,0.417,93.127,6.176,2.188,2.645,5,5,3.276
1777577688720,-0.096,1.710,-1.315,-2.501,0.785,0.124,94.633,6.017,2.160,2.624,5,5,3.951
1777577688734,0.293,1.749,-1.436,-2.320,0.685,-0.010,96.153,5.431,2.282,2.419,5,5,3.253
1777577688748,0.614,1.622,-1.665,-1.758,0.305,0.436,97.884,4.546,2.404,1.837,5,5,3.580
1777577688761,0.525,1.421,-1.782,-1.132,-0.106,0.937,99.789,3.780,2.339,1.473,5,5,3.252
1777577688777,-0.187,0.995,-1.766,-0.522,-0.262,1.129,102.011,3.845,2.036,1.271,5,5,5.978
1777577688790,-0.851,0.800,-1.676,-0.141,-0.070,0.741,104.306,4.753,2.043,0.758,1,1,3.890
1777577688806,-0.800,0.534,-1.592,0.174,0.242,-0.165,106.805,5.659,1.860,0.341,1,1,4.971
1777577688820,-0.438,0.790,-1.521,0.317,0.581,-0.770,108.805,6.038,1.769,1.015,1,1,3.299
1777577688833,0.798,-0.408,0.090,1.942,0.269,-0.984,100.655,3.046,0.901,2.194,1,1,3.433
1777577688847,-1.003,1.364,0.353,1.843,0.373,-0.920,99.555,4.463,1.730,2.093,1,1,3.275
1777577688860,-0.299,1.413,0.516,2.388,0.357,-0.753,98.259,4.760,1.534,2.529,1,1,3.914
1777577688874,-0.119,1.081,-0.072,2.501,0.333,-0.655,98.065,4.826,1.090,2.607,1,1,3.267
1777577688887,-0.296,0.910,-0.288,2.424,0.274,-0.402,98.481,5.368,0.999,2.472,1,1,3.251
1777577688901,-0.304,0.872,-0.502,2.216,0.148,-0.262,99.420,5.868,1.051,2.236,1,1,3.283
1777577688914,-0.340,0.844,-0.458,2.027,0.178,-0.047,100.255,6.463,1.018,2.035,1,1,3.258
1777577688928,-0.286,0.782,-0.571,1.821,0.248,-0.009,101.387,6.900,1.009,1.838,1,1,4.435
1777577688942,-0.007,0.813,-0.596,1.620,0.356,-0.044,102.474,6.616,1.008,1.659,1,1,3.258
1777577688955,0.180,0.619,-0.662,1.170,0.094,-0.175,103.981,5.835,0.924,1.187,1,1,3.281
1777577688969,-0.061,0.821,-0.632,0.865,0.095,-0.239,105.013,5.728,1.038,0.903,1,1,3.266
1777577688983,-0.092,0.800,-0.655,0.693,0.065,-0.314,106.075,5.699,1.038,0.763,1,1,3.670
1777577688996,-0.403,0.636,-0.764,0.395,-0.094,-0.185,107.568,6.415,1.073,0.446,1,1,3.953
1777577689010,-0.040,0.943,-0.558,0.243,-0.098,-0.166,108.137,6.226,1.097,0.310,1,1,3.266
1777577689024,-0.186,0.944,-0.504,0.221,-0.122,-0.137,108.573,6.384,1.086,0.287,1,1,3.480
1777577689037,-0.200,0.862,-0.539,0.170,-0.114,-0.093,109.161,6.591,1.036,0.225,1,1,3.263
1777577689051,-0.239,0.932,-0.482,0.181,-0.102,-0.064,109.520,6.864,1.076,0.218,1,1,3.654
1777577689064,-0.223,0.899,-0.514,0.166,-0.083,-0.009,109.968,7.094,1.059,0.186,1,1,3.927
1777577689079,-0.246,0.943,-0.525,0.162,-0.038,0.058,110.368,7.346,1.107,0.176,1,1,3.268
1777577689093,-0.206,0.892,-0.531,0.135,0.005,0.088,110.823,7.515,1.058,0.161,1,1,3.263
1777577689106,-0.129,0.929,-0.529,0.124,0.002,0.072,111.209,7.487,1.077,0.144,1,1,3.657
1777577689120,-0.066,0.830,-0.555,0.097,-0.022,0.027,111.759,7.326,1.001,0.103,1,1,3.269
1777577689133,-0.140,0.894,-0.502,0.096,-0.016,0.001,112.090,7.345,1.035,0.097,1,1,3.940
1777577689147,-0.137,0.893,-0.529,0.086,-0.024,-0.017,112.464,7.354,1.047,0.091,1,1,3.280
1777577689160,-0.187,0.896,-0.532,0.076,-0.012,0.004,112.824,7.478,1.059,0.077,1,1,3.254
1777577689174,-0.132,0.899,-0.529,0.070,-0.012,0.010,113.158,7.466,1.051,0.072,1,1,3.396
1777577689187,-0.119,0.887,-0.537,0.062,-0.006,0.002,113.509,7.427,1.044,0.062,1,1,3.259
1777577689202,-0.171,0.885,-0.536,0.059,-0.002,0.010,113.846,7.513,1.049,0.060,1,1,3.952
1777577689216,-0.197,0.896,-0.562,0.048,0.017,0.027,114.207,7.647,1.075,0.057,1,1,3.283
1777577689229,-0.147,0.873,-0.566,0.056,0.029,0.024,114.589,7.665,1.050,0.067,1,1,3.272
1777577689243,-0.123,0.931,-0.539,0.072,0.038,0.000,114.828,7.616,1.083,0.082,1,1,3.274
1777577689256,-0.128,0.902,-0.571,0.066,0.037,-0.014,115.156,7.583,1.075,0.077,1,1,3.264
1777577689273,-0.092,1.047,-0.499,0.113,0.023,-0.113,115.170,7.449,1.163,0.162,1,1,3.957
1777577689287,-0.098,0.915,-0.551,0.120,0.009,-0.159,115.428,7.353,1.072,0.199,1,1,3.269
1777577689302,-0.123,0.886,-0.569,0.126,0.003,-0.183,115.746,7.322,1.060,0.223,1,1,3.275
1777577689315,-0.151,0.898,-0.537,0.133,0.009,-0.182,115.970,7.362,1.057,0.226,1,1,3.265
1777577689328,-0.182,0.902,-0.557,0.139,0.020,-0.170,116.220,7.467,1.076,0.221,1,1,3.278
1777577689342,-0.259,1.013,-0.550,0.174,0.031,-0.117,116.318,7.693,1.182,0.212,1,1,3.988
1777577689356,-0.391,1.232,-0.540,0.346,0.064,0.019,116.203,8.065,1.401,0.353,1,1,3.787
1777577689370,-0.095,0.928,-0.579,0.336,0.059,0.041,116.454,7.930,1.098,0.344,1,1,3.245
1777577689383,-0.196,1.048,-0.573,0.400,0.072,0.076,116.550,7.992,1.211,0.414,1,1,3.250
1777577689396,-0.146,1.014,-0.593,0.448,0.076,0.095,116.715,7.952,1.183,0.464,1,1,3.264
1777577689410,-0.156,1.008,-0.601,0.501,0.085,0.090,116.893,7.937,1.184,0.516,1,1,3.848
1777577689424,-0.181,0.986,-0.584,0.530,0.097,0.093,117.057,7.983,1.160,0.547,1,1,3.258
1777577689437,-0.164,1.000,-0.607,0.582,0.097,0.071,117.241,7.982,1.181,0.594,1,1,3.247
1777577689450,-0.119,0.973,-0.603,0.624,0.097,0.068,117.440,7.892,1.151,0.635,1,1,3.251
1777577689464,-0.160,0.969,-0.614,0.674,0.083,0.051,117.656,7.895,1.158,0.681,1,1,3.255
1777577689477,-0.163,0.971,-0.633,0.722,0.093,0.044,117.894,7.901,1.170,0.729,4,4,3.898
1777577689491,-0.137,0.924,-0.641,0.768,0.091,0.045,118.195,7.859,1.133,0.775,4,4,3.298
1777577689505,-0.142,0.994,-0.609,0.829,0.086,0.029,118.339,7.819,1.174,0.834,4,4,3.268
1777577689518,-0.139,1.005,-0.657,0.893,0.092,0.034,118.550,7.766,1.209,0.899,4,4,3.273
1777577689531,-0.132,1.061,-0.694,0.976,0.068,0.021,118.753,7.686,1.275,0.978,4,4,3.255
1777577689545,-0.114,1.034,-0.614,1.066,0.039,-0.001,118.838,7.587,1.208,1.067,4,4,3.895
1777577689559,-0.143,1.212,-0.625,1.208,0.034,-0.009,118.769,7.516,1.371,1.208,4,4,3.431
1777577689572,-0.107,1.263,-0.686,1.379,-0.016,-0.037,118.757,7.373,1.442,1.380,4,4,3.285
1777577689586,0.022,1.335,-0.644,1.605,-0.066,-0.101,118.626,7.013,1.483,1.610,4,4,3.289
1777577689599,-0.024,1.374,-0.619,1.875,-0.084,-0.144,118.434,6.746,1.507,1.882,4,4,3.257
1777577689612,-0.034,1.360,-0.593,2.151,-0.118,-0.206,118.220,6.509,1.484,2.164,4,4,3.882
1777577689626,-0.038,1.528,-0.601,2.501,-0.144,-0.278,117.925,6.282,1.642,2.521,4,4,3.257
1777577689640,-0.146,1.541,-0.678,2.501,-0.120,-0.221,117.743,6.224,1.690,2.514,4,4,3.263
1777577689653,-0.302,1.664,-0.766,2.501,-0.102,-0.151,117.610,6.360,1.857,2.508,4,4,3.246
1777577689669,-0.279,1.755,-0.842,2.501,-0.020,0.067,117.523,6.438,1.967,2.502,4,4,6.161
1777577689683,-0.348,1.287,-0.883,2.501,0.064,-0.003,117.826,6.706,1.599,2.502,4,4,3.924
1777577689697,-0.261,1.037,-0.918,2.501,0.094,0.083,118.425,6.879,1.409,2.504,4,4,3.263
1777577689710,-0.084,0.866,-0.982,2.501,0.081,0.591,119.306,6.739,1.312,2.572,4,4,3.269
1777577689724,-0.012,0.984,-1.140,2.501,-0.019,0.838,120.176,6.465,1.506,2.638,4,4,3.277
1777577689737,0.084,0.420,-0.738,2.501,-0.202,0.937,121.496,5.935,0.853,2.679,4,4,3.273
1777577689750,0.022,0.500,-0.448,2.501,-0.431,0.861,121.947,5.593,0.672,2.680,4,4,3.941
1777577689766,-0.096,-0.271,0.034,2.251,-0.524,0.705,112.991,6.198,0.289,2.416,4,4,3.285
1777577689779,-0.404,-1.339,-0.832,1.746,-0.127,0.229,102.721,6.556,1.627,1.765,4,4,3.251
1777577689792,-0.620,-0.743,-0.581,0.630,0.236,0.105,92.631,7.726,1.128,0.681,4,4,3.272
1777577689806,-0.352,-0.617,-0.516,-0.308,0.556,-0.370,82.899,8.422,0.877,0.735,4,4,3.254
1777577689819,-0.142,-0.194,-0.481,-0.946,0.690,-0.944,72.361,8.725,0.538,1.504,4,4,3.961
1777577689833,0.119,0.115,-0.367,-1.311,0.624,-1.298,76.305,7.593,0.403,1.948,4,4,3.259
1777577689850,0.299,0.170,-0.375,-1.617,0.348,-0.958,79.772,5.687,0.509,1.911,4,4,3.382
1777577689863,0.403,-0.010,-0.308,-1.926,0.023,-0.427,68.497,3.138,0.508,1.973,4,4,3.455
1777577689877,0.362,-0.219,-0.249,-2.378,-0.319,0.111,59.438,0.922,0.490,2.402,4,4,3.262
1777577689890,0.294,-0.180,-0.155,-2.501,-0.606,0.475,51.124,-1.349,0.378,2.617,4,4,3.991
1777577689904,0.118,0.088,-0.098,-2.501,-0.815,0.693,54.920,-3.115,0.177,2.721,4,4,3.258
1777577689918,-0.081,0.400,-0.068,-2.501,-0.859,0.891,56.875,-2.485,0.414,2.791,4,4,3.287
1777577689931,-0.255,0.685,-0.141,-2.501,-0.751,1.131,58.834,-1.499,0.744,2.846,4,4,3.249
1777577689944,-0.348,0.846,-0.240,-2.501,-0.529,1.318,60.890,-0.489,0.945,2.876,4,4,3.273
1777577689958,-0.392,0.773,-0.342,-2.501,-0.292,1.322,63.207,0.619,0.932,2.844,5,5,3.897
1777577689972,-0.400,0.638,-0.389,-2.501,-0.099,1.126,65.752,1.824,0.848,2.745,5,5,3.261
1777577689985,-0.386,0.745,-0.399,-2.501,0.034,0.820,68.044,2.819,0.929,2.633,5,5,3.275
1777577689998,-0.378,0.942,-0.408,-2.501,0.167,0.577,70.028,3.580,1.094,2.573,5,5,3.243
1777577690012,-0.380,1.231,-0.519,-2.501,0.282,0.515,71.902,4.117,1.389,2.569,5,5,3.261
1777577690026,-0.345,1.269,-0.601,-2.501,0.409,0.519,73.802,4.541,1.446,2.587,5,5,4.087
1777577690040,-0.313,1.189,-0.628,-2.501,0.511,0.470,75.729,4.915,1.381,2.596,5,5,3.289
1777577690053,-0.269,1.141,-0.565,-2.501,0.570,0.327,77.505,5.221,1.302,2.586,5,5,3.254
1777577690067,-0.199,1.321,-0.545,-2.501,0.589,0.155,79.032,5.340,1.443,2.574,5,5,3.265
1777577690080,-0.157,1.483,-0.563,-2.501,0.573,0.031,80.421,5.354,1.595,2.566,5,5,3.266
1777577690093,-0.114,1.544,-0.628,-2.501,0.535,-0.047,81.808,5.290,1.670,2.558,5,5,3.912
1777577690107,-0.046,1.601,-0.673,-2.501,0.468,-0.080,83.163,5.124,1.737,2.546,5,5,3.258
1777577690121,0.004,1.669,-0.726,-2.501,0.351,-0.072,84.490,4.895,1.820,2.527,5,5,3.315
1777577690134,0.062,1.732,-0.771,-2.501,0.225,-0.042,85.780,4.599,1.897,2.512,5,5,3.272
1777577690148,0.192,1.848,-0.858,-2.501,0.075,-0.030,87.054,4.162,2.046,2.503,5,5,3.275
1777577690161,0.297,3.087,-1.248,-2.206,-0.093,-0.124,88.145,3.757,3.343,2.211,1,1,3.933
1777577690175,0.384,1.659,-1.125,-2.201,-0.278,0.200,89.719,3.118,2.041,2.227,1,1,3.249
1777577690189,0.315,1.725,-1.394,-1.704,-0.445,0.681,91.435,2.628,2.240,1.888,1,1,3.300
1777577690202,0.125,1.253,-1.507,-1.336,-0.602,1.009,93.569,2.353,1.964,1.779,1,1,3.278
1777577690215,-0.487,1.181,-1.631,-0.900,-0.533,1.079,95.778,2.845,2.072,1.502,1,1,3.316
1777577690229,-0.907,0.833,-1.670,-0.527,-0.206,0.726,98.303,3.854,2.075,0.920,1,1,3.832
1777577690243,-0.787,0.656,-1.644,-0.185,0.167,-0.060,100.924,4.734,1.937,0.257,1,1,3.250
1777577690257,-0.420,0.822,-1.615,0.217,0.370,-0.434,103.203,5.098,1.860,0.610,1,1,3.313
1777577690270,0.701,3.090,-1.256,1.174,0.271,-1.526,103.593,4.356,3.408,1.944,1,1,3.263
1777577690287,0.953,0.009,0.386,1.783,0.108,-1.229,99.121,1.194,1.028,2.168,1,1,5.969
1777577690300,-0.543,1.649,0.488,1.923,0.141,-1.034,98.002,1.908,1.804,2.188,1,1,3.714
1777577690316,-0.528,1.092,0.033,2.288,0.250,-0.810,97.576,2.952,1.213,2.440,1,1,5.496
1777577690329,-0.146,0.969,-0.112,2.233,0.194,-0.695,97.531,3.195,0.987,2.346,1,1,3.223
1777577690343,-0.190,1.007,-0.268,2.184,0.118,-0.523,97.854,3.507,1.059,2.249,1,1,3.251
1777577690356,-0.107,0.864,-0.453,2.051,-0.057,-0.397,98.720,3.628,0.982,2.089,1,1,3.235
1777577690369,-0.403,0.841,-0.470,1.816,0.067,-0.135,99.616,4.462,1.044,1.822,1,1,3.820
1777577690385,-0.295,0.861,-0.540,1.607,0.185,0.013,100.601,4.975,1.058,1.618,1,1,3.240
1777577690398,-0.190,0.838,-0.554,1.433,0.282,0.093,101.602,5.226,1.022,1.463,1,1,3.385
1777577690412,-0.028,0.772,-0.607,1.252,0.300,0.109,102.765,5.067,0.982,1.292,1,1,3.231
1777577690425,0.045,0.755,-0.706,0.884,0.146,0.050,104.090,4.738,1.035,0.897,1,1,3.248
1777577690438,-0.085,0.794,-0.641,0.617,0.198,0.001,105.176,4.739,1.024,0.648,1,1,3.720
1777577690452,-0.046,0.891,-0.561,0.493,0.139,-0.058,105.921,4.640,1.054,0.516,1,1,3.228
1777577690466,-0.162,0.688,-0.563,0.390,0.121,-0.025,106.944,4.890,0.903,0.409,1,1,3.239
1777577690479,-0.302,0.817,-0.608,0.216,0.055,0.015,107.806,5.398,1.062,0.223,1,1,3.230
1777577690492,-0.019,0.964,-0.521,0.214,0.022,-0.030,108.270,5.205,1.096,0.217,1,1,3.433
1777577690506,-0.142,0.931,-0.510,0.184,-0.010,0.009,108.726,5.310,1.070,0.185,1,1,3.708
1777577690520,-0.178,0.930,-0.519,0.152,0.024,0.038,109.182,5.492,1.080,0.158,1,1,3.346
1777577690533,-0.126,0.917,-0.532,0.126,0.032,0.075,109.660,5.548,1.067,0.151,1,1,3.511
1777577690547,-0.109,0.922,-0.533,0.113,0.071,0.099,110.114,5.562,1.070,0.166,1,1,3.237
1777577690560,-0.166,0.977,-0.504,0.104,0.093,0.126,110.427,5.694,1.112,0.188,1,1,3.238
1777577690573,-0.106,0.883,-0.506,0.086,0.116,0.124,110.837,5.706,1.023,0.190,1,1,3.711
1777577690587,-0.107,0.891,-0.532,0.090,0.113,0.132,111.274,5.713,1.043,0.195,1,1,3.574
1777577690601,-0.055,0.892,-0.528,0.080,0.109,0.115,111.683,5.597,1.038,0.177,1,1,3.231
1777577690614,-0.028,0.892,-0.530,0.071,0.101,0.077,112.078,5.419,1.038,0.146,1,1,3.225
1777577690627,-0.044,0.904,-0.536,0.080,0.078,0.051,112.454,5.288,1.052,0.123,1,1,3.237
1777577690641,-0.044,0.897,-0.524,0.061,0.074,0.011,112.796,5.162,1.040,0.097,1,1,3.699
1777577690655,-0.046,0.945,-0.508,0.053,0.066,-0.029,113.035,5.045,1.074,0.090,1,1,3.243
1777577690668,-0.049,0.899,-0.539,0.049,0.037,-0.021,113.379,4.941,1.049,0.065,1,1,3.231
1777577690681,-0.064,0.927,-0.526,0.044,0.025,-0.030,113.651,4.874,1.067,0.059,1,1,3.368
1777577690695,-0.090,0.883,-0.543,0.024,0.022,-0.020,113.999,4.879,1.040,0.039,1,1,3.244
1777577690708,-0.118,0.918,-0.512,0.035,0.018,0.000,114.225,4.947,1.058,0.040,1,1,3.699
1777577690722,-0.100,0.928,-0.499,0.058,0.006,0.030,114.401,4.968,1.058,0.066,1,1,3.240
1777577690735,-0.086,0.896,-0.550,0.065,0.010,0.047,114.714,4.955,1.055,0.080,1,1,3.228
1777577690748,-0.067,0.955,-0.532,0.075,0.013,0.065,114.907,4.892,1.096,0.100,1,1,3.251
1777577690762,-0.105,0.951,-0.539,0.084,0.006,0.100,115.108,4.917,1.098,0.130,1,1,3.221
1777577690775,-0.131,0.932,-0.552,0.085,0.008,0.152,115.349,5.004,1.091,0.175,1,1,3.726
1777577690789,-0.102,0.992,-0.580,0.111,0.015,0.190,115.567,5.006,1.154,0.221,1,1,3.227
1777577690803,-0.099,0.920,-0.564,0.175,0.030,0.228,115.827,5.017,1.084,0.289,1,1,3.447
1777577690816,-0.090,0.983,-0.557,0.224,0.037,0.180,115.989,4.996,1.133,0.289,1,1,3.235
1777577690829,-0.059,0.927,-0.548,0.228,0.045,0.199,116.190,4.914,1.078,0.306,1,1,3.226
1777577690842,-0.087,0.880,-0.556,0.235,0.050,0.225,116.457,4.908,1.045,0.329,1,1,3.712
1777577690856,-0.040,0.881,-0.565,0.239,0.050,0.222,116.728,4.789,1.047,0.330,1,1,3.226
1777577690870,-0.018,0.932,-0.581,0.242,0.047,0.196,116.956,4.620,1.099,0.314,1,1,3.238
1777577690883,-0.009,1.025,-0.538,0.292,0.050,0.196,116.987,4.436,1.158,0.355,1,1,3.309
1777577690897,0.044,0.949,-0.570,0.326,0.036,0.179,117.162,4.143,1.107,0.374,1,1,3.564
1777577690910,0.011,0.989,-0.571,0.375,0.019,0.137,117.286,3.938,1.142,0.399,4,4,3.707
1777577690924,-0.014,0.971,-0.591,0.410,0.029,0.102,117.463,3.797,1.137,0.424,4,4,3.263
1777577690937,0.021,1.013,-0.576,0.459,0.030,0.058,117.558,3.586,1.166,0.464,4,4,3.235
1777577690951,-0.014,0.983,-0.601,0.486,0.032,0.024,117.728,3.460,1.153,0.487,4,4,3.226
1777577690964,-0.014,0.958,-0.619,0.506,0.024,-0.001,117.952,3.341,1.140,0.506,4,4,3.247
