timestamp,ax,ay,az,gx,gy,gz,roll,pitch_k,acc_norm,gyro_norm,classe_prevista_raw,classe_prevista,delay_ms
1777415143532,0.337158,0.531006,-0.898926,3.00763,-25.3969,28.3817,135.967,-16.2847,1.09714,38.2043,0,0,3.568
1777415143546,0.356,0.505,-0.864,1.183,-3.153,-2.397,142.871,-17.933,1.062,4.133,0,0,3.536
1777415143559,0.423,0.472,-0.866,-2.802,-3.397,-0.557,146.084,-19.923,1.073,4.438,0,0,3.256
1777415143573,0.406,0.541,-0.913,1.099,1.084,2.168,147.137,-20.244,1.137,2.661,0,0,3.259
1777415143586,0.349,0.497,-0.871,0.733,0.733,1.176,148.072,-19.926,1.062,1.567,0,0,3.259
1777415143599,0.395,0.551,-0.921,-0.176,-2.382,-0.244,148.374,-20.003,1.143,2.401,0,0,3.248
1777415143613,0.367,0.532,-0.899,0.061,-0.489,0.985,148.647,-19.822,1.107,1.101,0,0,3.250
1777415143626,0.359,0.527,-0.894,-0.107,-1.260,0.588,148.873,-19.622,1.098,1.394,0,0,3.250
1777415143641,0.363,0.527,-0.891,-0.229,-0.649,0.855,149.015,-19.537,1.096,1.097,0,0,5.035
1777415143655,0.370,0.523,-0.888,0.176,-0.748,0.595,149.139,-19.599,1.095,0.972,0,0,3.245
1777415143668,0.371,0.529,-0.901,0.481,-0.664,0.748,149.264,-19.585,1.108,1.110,0,0,3.285
1777415143681,0.373,0.531,-0.909,0.183,-0.924,0.580,149.388,-19.562,1.117,1.106,0,0,3.249
1777415143695,0.369,0.535,-0.904,-0.176,-1.198,0.321,149.380,-19.508,1.113,1.253,0,0,3.249
1777415143708,0.361,0.531,-0.892,-0.229,-0.885,0.656,149.340,-19.420,1.099,1.126,0,0,3.264
1777415143721,0.366,0.524,-0.891,-0.008,-1.099,0.817,149.399,-19.441,1.096,1.370,0,0,3.241
1777415143736,0.363,0.525,-0.890,0.313,-0.481,0.779,149.419,-19.418,1.095,0.967,0,0,3.467
1777415143749,0.364,0.534,-0.892,0.191,-0.916,0.519,149.334,-19.384,1.101,1.070,0,0,3.244
1777415143763,0.373,0.534,-0.902,0.305,-0.985,0.519,149.348,-19.438,1.113,1.154,0,0,3.263
1777415143776,0.371,0.533,-0.904,0.084,-0.740,0.435,149.378,-19.448,1.113,0.863,0,0,3.255
1777415143789,0.367,0.529,-0.893,-0.229,-1.038,0.565,149.378,-19.460,1.101,1.204,0,0,3.260
1777415143803,0.363,0.518,-0.888,0.038,-0.817,0.763,149.479,-19.459,1.091,1.119,0,0,3.254
1777415143816,0.366,0.524,-0.887,-0.023,-0.595,0.542,149.469,-19.492,1.093,0.805,0,0,3.246
1777415143830,0.366,0.527,-0.885,0.198,-0.832,0.679,149.411,-19.511,1.093,1.092,0,0,4.040
1777415143843,0.370,0.540,-0.900,0.244,-0.656,0.687,149.318,-19.484,1.113,0.981,0,0,3.258
1777415143857,0.367,0.532,-0.900,0.168,-0.855,0.634,149.340,-19.445,1.109,1.077,0,0,3.256
1777415143870,0.368,0.530,-0.891,-0.168,-0.947,0.695,149.318,-19.470,1.100,1.186,0,0,3.256
1777415143883,0.368,0.529,-0.885,0.015,-0.954,0.634,149.260,-19.514,1.094,1.145,0,0,3.257
1777415143897,0.369,0.527,-0.888,0.229,-0.763,0.603,149.274,-19.551,1.096,0.999,0,0,3.250
1777415143910,0.365,0.525,-0.885,0.183,-0.641,0.542,149.290,-19.538,1.092,0.859,0,0,3.249
1777415143924,0.369,0.527,-0.894,0.160,-0.901,0.664,149.349,-19.546,1.101,1.131,5,5,4.915
1777415143938,0.371,0.534,-0.902,0.214,-0.931,0.542,149.349,-19.529,1.112,1.099,5,5,3.282
1777415143952,0.371,0.533,-0.898,-0.061,-1.031,0.618,149.332,-19.534,1.108,1.203,5,5,3.250
1777415143965,0.367,0.526,-0.889,-0.183,-1.053,0.496,149.350,-19.543,1.096,1.179,5,5,3.252
1777415143978,0.370,0.524,-0.885,0.015,-1.092,0.626,149.355,-19.606,1.093,1.258,5,5,3.253
1777415143992,0.369,0.530,-0.891,0.183,-0.824,0.672,149.322,-19.598,1.100,1.079,5,5,3.930
1777415144006,0.373,0.532,-0.901,0.115,-0.824,0.779,149.353,-19.605,1.111,1.140,5,5,3.251
1777415144019,0.372,0.533,-0.894,0.183,-0.985,0.664,149.307,-19.627,1.105,1.202,5,5,3.310
1777415144033,0.378,0.528,-0.905,-0.031,-1.023,0.595,149.421,-19.690,1.114,1.184,5,5,3.244
1777415144046,0.368,0.529,-0.898,-0.176,-0.763,0.527,149.447,-19.621,1.105,0.944,5,5,3.258
1777415144059,0.375,0.528,-0.899,-0.008,-0.939,0.718,149.485,-19.658,1.108,1.182,5,5,3.916
1777415144073,0.371,0.525,-0.894,0.122,-0.603,0.664,149.508,-19.667,1.101,0.905,5,5,3.243
1777415144087,0.370,0.531,-0.900,0.145,-0.802,0.534,149.494,-19.627,1.109,0.974,5,5,3.260
1777415144100,0.370,0.535,-0.891,0.130,-0.840,0.664,149.366,-19.618,1.104,1.078,5,5,3.245
1777415144114,0.367,0.530,-0.890,0.008,-1.115,0.626,149.330,-19.595,1.099,1.278,5,5,4.341
1777415144128,0.365,0.531,-0.893,-0.122,-1.046,0.542,149.317,-19.530,1.101,1.184,5,5,3.911
1777415144142,0.365,0.522,-0.888,0.031,-0.725,0.725,149.379,-19.530,1.093,1.026,5,5,3.269
1777415144155,0.372,0.519,-0.894,0.206,-0.817,0.725,149.508,-19.596,1.098,1.112,5,5,3.278
1777415144168,0.368,0.533,-0.894,0.221,-0.771,0.519,149.417,-19.568,1.104,0.955,5,5,3.258
1777415144182,0.375,0.528,-0.896,0.015,-0.924,0.611,149.432,-19.634,1.106,1.107,5,5,3.255
1777415144195,0.368,0.525,-0.894,-0.038,-0.954,0.450,149.471,-19.604,1.100,1.056,5,5,3.909
1777415144209,0.363,0.524,-0.905,-0.145,-0.779,0.664,149.599,-19.480,1.107,1.034,5,5,3.274
1777415144222,0.365,0.527,-0.883,0.099,-0.740,0.504,149.486,-19.490,1.091,0.901,5,5,3.252
1777415144236,0.368,0.521,-0.890,0.137,-0.718,0.687,149.524,-19.525,1.095,1.003,5,5,3.244
1777415144249,0.373,0.531,-0.893,0.160,-0.840,0.664,149.454,-19.586,1.104,1.083,5,5,3.265
1777415144263,0.371,0.530,-0.899,-0.046,-0.824,0.672,149.465,-19.576,1.107,1.064,5,5,3.925
1777415144278,0.367,0.533,-0.891,-0.206,-1.115,0.527,149.364,-19.547,1.101,1.250,5,5,4.271
1777415144291,0.364,0.524,-0.895,-0.153,-0.954,0.695,149.433,-19.492,1.099,1.190,5,5,3.246
1777415144304,0.372,0.527,-0.890,0.099,-1.008,0.725,149.417,-19.566,1.099,1.245,5,5,3.261
1777415144318,0.370,0.527,-0.897,0.008,-0.977,0.687,149.460,-19.576,1.104,1.194,5,5,3.251
1777415144331,0.373,0.532,-0.898,0.206,-0.908,0.763,149.434,-19.603,1.109,1.204,5,5,3.908
1777415144345,0.369,0.528,-0.894,0.069,-1.076,0.573,149.437,-19.593,1.102,1.221,5,5,3.576
1777415144359,0.366,0.529,-0.893,-0.038,-1.137,0.649,149.420,-19.546,1.100,1.310,5,5,3.253
1777415144373,0.367,0.527,-0.884,-0.092,-0.908,0.611,149.359,-19.563,1.093,1.098,5,5,4.301
1777415144386,0.362,0.524,-0.879,0.031,-1.023,0.695,149.317,-19.543,1.086,1.237,5,5,3.250
1777415144400,0.371,0.525,-0.899,0.046,-0.824,0.664,149.423,-19.558,1.106,1.060,5,5,3.915
1777415144414,0.366,0.530,-0.894,0.160,-0.954,0.466,149.403,-19.518,1.102,1.074,5,5,3.254
1777415144427,0.364,0.531,-0.894,0.176,-0.901,0.626,149.369,-19.452,1.102,1.111,5,5,3.258
1777415144441,0.365,0.531,-0.891,-0.061,-0.908,0.771,149.325,-19.439,1.100,1.193,5,5,3.270
1777415144455,0.366,0.527,-0.891,0.038,-0.901,0.588,149.342,-19.448,1.098,1.076,5,5,3.259
1777415144468,0.368,0.519,-0.888,-0.031,-0.878,0.603,149.435,-19.510,1.093,1.065,5,5,3.918
1777415144482,0.366,0.529,-0.904,0.107,-0.847,0.611,149.493,-19.450,1.109,1.050,5,5,3.257
1777415144495,0.369,0.528,-0.888,0.206,-0.885,0.542,149.430,-19.504,1.097,1.058,5,5,3.258
1777415144509,0.370,0.532,-0.893,0.046,-1.069,0.618,149.372,-19.528,1.104,1.236,5,5,3.251
1777415144522,0.369,0.538,-0.893,0.008,-0.901,0.702,149.246,-19.514,1.106,1.142,5,5,3.247
1777415144536,0.375,0.529,-0.888,0.099,-0.878,0.802,149.243,-19.624,1.099,1.193,5,5,5.112
1777415144551,0.370,0.530,-0.898,0.069,-0.878,0.565,149.300,-19.598,1.107,1.046,5,5,3.259
1777415144564,0.362,0.526,-0.888,0.115,-0.893,0.542,149.317,-19.530,1.094,1.051,5,5,3.246
1777415144577,0.371,0.530,-0.896,-0.046,-0.878,0.473,149.333,-19.554,1.105,0.998,5,5,3.264
1777415144591,0.372,0.525,-0.898,0.076,-0.916,0.725,149.432,-19.582,1.105,1.171,5,5,3.252
1777415144604,0.376,0.527,-0.897,0.031,-0.977,0.595,149.473,-19.661,1.107,1.145,5,5,3.939
1777415144618,0.368,0.530,-0.887,0.053,-0.885,0.542,149.391,-19.641,1.097,1.040,5,5,3.260
1777415144632,0.363,0.529,-0.898,0.115,-0.893,0.603,149.419,-19.517,1.103,1.084,5,5,3.267
1777415144645,0.375,0.527,-0.891,0.153,-0.908,0.672,149.411,-19.618,1.101,1.140,5,5,3.264
1777415144658,0.370,0.530,-0.891,0.061,-0.748,0.588,149.374,-19.625,1.101,0.953,5,5,3.267
1777415144672,0.368,0.530,-0.896,-0.053,-0.840,0.550,149.382,-19.579,1.104,1.005,5,5,3.928
1777415144686,0.370,0.533,-0.899,-0.015,-0.718,0.420,149.373,-19.552,1.108,0.832,5,5,3.254
1777415144699,0.365,0.530,-0.891,0.008,-0.924,0.542,149.341,-19.516,1.099,1.071,5,5,3.260
1777415144712,0.371,0.528,-0.889,-0.023,-0.817,0.702,149.334,-19.573,1.099,1.077,5,5,3.262
1777415144726,0.368,0.525,-0.886,0.053,-0.733,0.641,149.338,-19.592,1.094,0.975,5,5,3.254
1777415144739,0.365,0.527,-0.883,0.168,-0.924,0.771,149.287,-19.585,1.091,1.215,5,5,3.950
1777415144753,0.366,0.527,-0.896,-0.099,-0.870,0.580,149.361,-19.537,1.102,1.051,5,5,3.255
1777415144767,0.365,0.531,-0.892,0.069,-0.954,0.573,149.326,-19.489,1.100,1.115,5,5,3.256
1777415144780,0.372,0.524,-0.893,-0.008,-0.695,0.542,149.394,-19.559,1.100,0.881,5,5,3.255
1777415144793,0.372,0.528,-0.885,0.092,-0.863,0.695,149.339,-19.633,1.096,1.111,5,5,3.251
1777415144807,0.367,0.535,-0.891,0.153,-1.046,0.718,149.244,-19.583,1.102,1.277,5,5,3.929
1777415144821,0.375,0.534,-0.895,-0.023,-0.840,0.458,149.220,-19.634,1.107,0.957,5,5,3.261
1777415144834,0.363,0.531,-0.891,0.153,-0.878,0.534,149.209,-19.534,1.099,1.039,5,5,3.270
1777415144847,0.359,0.527,-0.888,0.122,-0.947,0.664,149.234,-19.429,1.093,1.163,5,5,3.263
1777415144861,0.365,0.529,-0.893,0.183,-0.794,0.756,149.272,-19.411,1.100,1.111,5,5,3.257
1777415144874,0.371,0.527,-0.896,0.076,-0.824,0.641,149.339,-19.477,1.104,1.047,5,5,3.925
1777415144888,0.364,0.532,-0.883,0.130,-0.924,0.672,149.222,-19.469,1.093,1.149,5,5,3.254
1777415144901,0.369,0.532,-0.892,0.107,-1.122,0.672,149.210,-19.497,1.102,1.312,5,5,3.270
1777415144915,0.373,0.532,-0.893,0.183,-0.786,0.595,149.211,-19.559,1.104,1.003,5,5,3.258
1777415144928,0.366,0.526,-0.896,0.183,-0.840,0.611,149.312,-19.525,1.101,1.054,5,5,3.255
1777415144941,0.370,0.528,-0.891,0.069,-1.023,0.931,149.321,-19.568,1.100,1.385,5,5,3.929
1777415144955,0.368,0.528,-0.896,0.145,-0.718,0.565,149.373,-19.540,1.103,0.925,5,5,3.258
1777415144969,0.368,0.529,-0.894,0.130,-0.733,0.794,149.380,-19.538,1.102,1.088,5,5,3.261
1777415144982,0.375,0.531,-0.889,-0.046,-0.771,0.718,149.326,-19.639,1.101,1.054,5,5,3.254
1777415144996,0.371,0.526,-0.888,-0.008,-0.931,0.733,149.333,-19.676,1.097,1.185,5,5,3.251
1777415145009,0.367,0.528,-0.891,0.076,-0.962,0.634,149.330,-19.635,1.099,1.154,5,5,3.937
1777415145023,0.368,0.527,-0.890,-0.053,-0.924,0.450,149.340,-19.623,1.098,1.029,5,5,3.263
1777415145036,0.372,0.535,-0.905,-0.015,-0.931,0.496,149.357,-19.592,1.115,1.055,5,5,3.260
1777415145050,0.365,0.527,-0.894,0.053,-0.802,0.748,149.394,-19.542,1.100,1.098,5,5,3.258
1777415145063,0.367,0.531,-0.890,0.115,-0.748,0.649,149.339,-19.536,1.099,0.997,5,5,3.259
1777415145076,0.368,0.524,-0.896,0.099,-0.893,0.679,149.427,-19.528,1.101,1.127,5,5,3.925
1777415145090,0.368,0.529,-0.891,0.038,-0.817,0.626,149.395,-19.541,1.100,1.030,5,5,3.251
1777415145104,0.372,0.533,-0.896,-0.053,-1.046,0.679,149.356,-19.571,1.106,1.248,5,5,3.273
1777415145117,0.369,0.526,-0.899,0.130,-0.977,0.641,149.437,-19.553,1.105,1.176,5,5,3.262
1777415145130,0.365,0.526,-0.894,0.115,-0.832,0.550,149.467,-19.512,1.100,1.004,5,5,3.263
1777415145144,0.369,0.528,-0.899,-0.015,-0.885,0.443,149.494,-19.505,1.106,0.990,5,5,3.938
1777415145158,0.366,0.531,-0.893,0.191,-0.992,0.702,149.425,-19.482,1.101,1.231,5,5,3.261
1777415145171,0.369,0.523,-0.901,0.122,-0.962,0.641,149.541,-19.481,1.106,1.162,5,5,3.261
1777415145184,0.380,0.513,-0.883,0.374,-0.931,0.420,149.623,-19.728,1.089,1.088,5,5,3.247
1777415145198,0.385,0.583,-0.924,1.038,-1.115,1.351,149.112,-19.637,1.158,2.036,5,5,3.253
1777415145211,0.338,0.496,-0.877,-0.221,2.092,2.496,149.495,-19.339,1.063,3.264,5,5,3.920
1777415145225,0.379,0.532,-0.908,-1.015,-3.336,-0.817,149.531,-19.469,1.119,3.581,5,5,3.260
1777415145239,0.369,0.545,-0.912,-1.092,-0.527,1.130,149.429,-19.384,1.125,1.657,5,5,3.274
1777415145252,0.373,0.526,-0.892,-0.176,-1.359,0.382,149.444,-19.501,1.100,1.422,5,5,3.258
1777415145265,0.368,0.518,-0.876,0.351,-0.779,0.275,149.436,-19.611,1.082,0.897,5,5,3.258
1777415145279,0.370,0.520,-0.902,-0.084,-1.679,0.374,149.599,-19.596,1.105,1.723,5,5,3.918
1777415145293,0.369,0.531,-0.883,0.221,-1.115,0.435,149.437,-19.627,1.095,1.217,5,5,3.253
1777415145306,0.366,0.521,-0.884,0.366,-0.748,0.664,149.442,-19.627,1.089,1.065,5,5,3.265
1777415145319,0.365,0.529,-0.896,0.130,-1.137,0.641,149.442,-19.547,1.103,1.312,5,5,3.259
1777415145333,0.361,0.527,-0.887,1.969,1.168,1.336,149.404,-19.479,1.093,2.651,5,5,3.263
1777415145346,0.400,0.561,-0.907,-0.679,-4.809,-2.061,149.092,-19.769,1.139,5.276,5,5,3.925
1777415145360,0.378,0.514,-0.892,2.969,0.908,1.458,149.349,-19.880,1.097,3.431,5,5,3.261
1777415145373,0.370,0.550,-0.921,-1.779,-3.534,-0.267,149.297,-19.645,1.135,3.966,5,5,3.259
1777415145387,0.369,0.523,-0.899,-0.542,-0.328,1.053,149.428,-19.617,1.104,1.229,5,5,3.247
1777415145400,0.366,0.522,-0.889,0.618,-0.473,0.702,149.469,-19.594,1.094,1.049,5,5,3.254
1777415145413,0.370,0.532,-0.891,-0.176,-1.191,0.351,149.382,-19.598,1.102,1.254,5,5,3.922
1777415145427,0.370,0.527,-0.876,-2.847,-7.252,1.458,149.267,-19.681,1.087,7.926,5,5,3.260
1777415145441,0.360,0.584,-0.870,-61.221,-56.336,-26.611,148.423,-19.482,1.108,87.349,5,5,3.268
1777415145454,0.356,0.572,-0.908,-21.931,-15.863,-5.802,148.251,-19.172,1.131,27.681,5,5,3.270
1777415145468,0.325,0.569,-0.906,-7.076,-4.153,0.412,148.148,-18.562,1.119,8.215,5,5,3.264
1777415145481,0.382,0.568,-0.895,-21.901,-18.504,-8.305,147.999,-18.905,1.127,29.850,5,5,3.924
1777415145495,0.373,0.620,-0.981,-76.679,-61.328,-27.336,147.918,-18.609,1.219,101.922,5,5,3.251
1777415145508,0.325,0.651,-0.866,-104.702,-62.298,-80.832,146.613,-18.097,1.132,146.210,5,5,3.256
1777415145522,0.498,0.360,-1.150,-167.450,54.504,-250.137,150.939,-19.269,1.304,305.907,5,5,3.260
1777415145535,1.118,0.178,-1.708,144.870,137.611,79.748,157.185,-22.992,2.049,215.137,5,5,3.264
1777415145548,0.462,1.735,-1.008,112.000,157.916,118.557,147.179,-20.282,2.059,227.018,5,5,3.939
1777415145562,-0.671,0.422,-0.320,-87.351,123.260,-201.641,141.774,-0.829,0.855,251.957,5,5,3.259
1777415145576,-0.057,0.595,-0.618,61.344,-168.885,184.366,140.230,0.424,0.860,257.442,5,5,3.264
1777415145589,0.822,0.523,-1.276,73.023,-6.435,27.198,144.958,-8.010,1.606,78.189,5,5,3.253
1777415145602,0.451,1.114,-1.030,54.740,54.748,44.458,141.660,-10.319,1.582,89.277,5,5,3.242
1777415145616,0.521,1.181,-1.011,28.275,40.237,145.847,138.661,-12.535,1.639,153.915,5,5,3.932
1777415145630,0.800,0.496,-1.167,-24.763,176.611,58.176,143.610,-17.858,1.500,187.587,5,5,3.256
1777415145643,0.409,0.180,-0.848,-50.771,201.397,-21.794,150.207,-19.859,0.958,208.838,5,5,3.262
1777415145656,0.232,0.038,-0.669,-7.336,157.977,-35.038,157.376,-19.646,0.709,161.982,5,5,3.262
1777415145670,0.085,0.674,-0.798,32.725,18.977,82.298,152.629,-15.598,1.048,90.576,5,5,3.257
1777415145683,0.927,0.931,-1.104,50.992,58.977,108.168,149.178,-20.213,1.716,133.337,5,5,3.927
1777415145697,0.683,0.516,-0.877,55.565,167.641,120.183,149.274,-23.902,1.225,213.624,5,5,3.249
1777415145711,0.244,0.382,-0.503,53.160,123.344,128.718,147.532,-23.150,0.677,186.032,5,5,3.268
1777415145724,0.391,0.104,-0.743,98.695,61.618,133.855,154.155,-24.331,0.846,177.354,5,5,3.259
1777415145737,-0.220,4.000,0.425,-250.137,-208.664,-200.519,135.184,-16.910,4.028,382.514,5,5,3.265
1777415145751,0.486,0.902,-2.216,-250.137,-250.137,-250.137,141.304,-15.445,2.441,433.251,5,5,3.936
1777415145765,2.080,-0.300,-2.496,-250.137,-153.023,250.130,56.354,-21.970,3.263,385.421,5,5,3.264
1777415145778,2.126,-0.659,-1.863,-250.137,162.939,250.130,-2.236,-28.759,2.903,389.465,5,5,3.257
1777415145791,1.545,0.144,-1.059,-13.634,250.130,250.130,44.911,-35.933,1.879,354.000,5,5,3.253
1777415145805,0.047,1.382,-0.318,-112.229,250.130,250.130,60.593,-26.734,1.419,371.113,5,5,3.252
1777415145818,-1.673,1.310,0.602,-250.137,250.130,218.359,61.866,-6.207,2.209,415.709,5,5,3.926
1777415145832,-2.013,-0.893,0.496,-250.137,-104.061,-184.313,28.691,12.515,2.258,327.672,5,5,3.252
1777415145845,0.088,-1.322,-0.616,-98.832,-250.137,-250.137,-10.122,8.198,1.461,367.294,5,5,3.262
1777415145859,1.831,-0.708,-0.874,250.130,-164.947,-93.802,-45.480,-9.806,2.148,313.960,5,5,3.257
1777415145872,1.705,1.534,-0.468,250.130,109.443,-123.305,-4.299,-19.787,2.341,299.578,5,5,3.260
1777415145885,0.369,2.688,0.460,110.275,90.740,-85.229,18.551,-16.522,2.752,166.308,5,5,4.038
1777415145900,-0.128,1.726,0.301,-215.977,-65.305,-172.473,35.180,-10.930,1.756,284.003,5,5,3.249
1777415145913,0.600,0.285,-0.348,-183.191,-131.504,-106.344,63.694,-22.331,0.750,249.321,5,5,3.260
1777415145926,1.414,-0.036,-0.543,57.924,-33.901,63.908,-1.106,-34.926,1.515,92.675,5,5,3.259
1777415145940,1.007,0.488,-0.251,246.969,43.076,197.634,30.868,-42.077,1.147,319.231,5,5,3.257
1777415145953,0.338,0.688,-0.097,250.130,9.595,250.130,49.013,-37.716,0.773,353.867,4,5,3.956
1777415145967,-0.037,-0.406,-0.192,250.130,-140.160,220.748,4.609,-26.266,0.450,361.856,4,5,3.265
1777415145981,0.154,-0.096,-0.552,250.130,-250.137,250.130,-42.603,-23.314,0.581,433.242,4,5,3.251
1777415145994,0.811,0.827,-1.016,250.130,-250.137,250.130,6.955,-25.597,1.541,433.242,4,5,3.262
1777415146007,1.759,1.653,-1.346,250.130,-250.137,250.130,39.965,-29.360,2.764,433.242,4,5,3.259
1777415146021,2.568,2.105,-1.210,226.504,-90.344,225.794,61.555,-34.019,3.535,332.338,5,5,3.942
1777415146035,2.310,2.007,-1.003,-53.000,233.435,176.748,76.415,-37.212,3.220,297.558,5,5,3.268
1777415146048,1.258,1.342,-0.584,-187.275,250.130,224.443,86.435,-38.149,1.930,384.722,5,5,3.261
1777415146061,0.461,0.678,0.040,-156.809,250.130,250.130,86.496,-37.070,0.821,386.935,5,5,3.268
1777415146075,0.158,0.490,0.153,-44.542,132.214,250.130,82.759,-31.680,0.537,286.408,5,5,3.260
1777415146088,-0.047,0.551,0.029,-172.595,56.687,250.130,83.899,-21.796,0.554,309.140,5,5,3.928
1777415146102,-0.343,0.206,-0.769,-250.137,30.267,0.496,105.817,-9.608,0.867,251.962,5,5,3.259
1777415146115,-0.635,-0.197,-1.421,-250.137,-95.458,-70.840,30.737,-0.558,1.569,276.946,5,5,3.251
1777415146129,0.179,-0.507,-0.725,-176.786,-226.939,215.908,-16.750,-3.501,0.902,359.682,5,5,3.269
1777415146142,0.885,-0.337,-0.747,-133.924,-229.374,143.756,-54.292,-15.306,1.207,302.016,5,5,3.256
1777415146155,1.268,-0.314,-1.223,-123.763,-157.901,134.130,-84.368,-23.359,1.790,241.331,1,5,3.937
1777415146170,1.519,-0.511,-1.230,-105.137,-49.611,129.870,-104.103,-30.219,2.020,174.303,1,5,3.270
1777415146183,1.619,-0.503,-1.080,-47.534,89.275,135.031,-117.863,-36.550,2.011,168.709,1,5,3.250
1777415146196,1.186,-0.329,-0.826,15.229,205.496,107.901,-128.792,-41.030,1.482,232.601,1,5,3.254
1777415146210,0.595,-0.125,-0.380,44.183,159.053,102.336,-137.705,-45.102,0.717,194.224,1,5,3.261
1777415146223,0.588,-0.001,-0.303,21.282,13.794,45.947,-149.094,-49.866,0.662,52.481,1,5,3.930
1777415146237,1.038,-0.228,-0.676,-45.710,-47.595,-58.237,-152.410,-51.382,1.259,88.013,1,5,3.284
1777415146250,1.633,-0.556,-0.848,62.198,-1.611,29.916,-150.879,-53.215,1.922,69.038,1,5,3.273
1777415146264,1.667,-0.620,-0.972,208.260,73.656,91.145,-149.957,-53.787,2.027,238.966,1,5,3.261
1777415146277,1.375,-0.418,-0.975,250.130,125.298,71.618,-151.797,-53.396,1.736,288.780,1,5,3.262
1777415146290,1.171,-0.172,-0.753,250.130,137.252,1.450,-155.948,-54.256,1.403,285.316,5,5,3.924
1777415146304,1.038,0.112,-0.592,221.122,159.794,-70.260,-68.087,-55.775,1.200,281.719,5,5,3.265
1777415146318,0.855,0.292,-0.458,179.198,195.748,-90.046,-9.865,-56.263,1.013,280.246,5,5,3.261
1777415146331,0.691,0.435,-0.212,247.832,250.130,1.832,24.148,-55.918,0.843,352.121,5,5,3.254
1777415146344,-0.310,1.541,0.451,-132.626,125.908,-54.099,37.529,-37.856,1.635,190.707,5,5,3.264
1777415146358,-0.151,-0.021,0.105,-221.595,60.298,-91.046,24.294,-12.854,0.185,247.042,1,5,3.928
1777415146372,-0.141,-0.438,0.092,-69.435,-42.863,34.534,-3.367,-4.660,0.469,88.606,1,5,3.351
1777415146385,-0.231,-0.309,0.167,36.603,-119.702,82.084,-19.104,5.594,0.420,149.687,1,5,3.248
1777415146399,-0.441,0.006,0.181,38.328,-250.137,51.573,-13.402,22.358,0.477,258.259,1,5,3.253
1777415146412,-0.171,0.228,-0.133,-36.282,-250.137,1.252,22.711,25.225,0.314,252.758,1,5,3.271
1777415146425,0.702,0.287,-0.874,-184.443,-250.137,-215.443,60.296,8.314,1.157,378.158,1,1,3.933
1777415146439,1.517,0.362,-1.582,-223.145,-250.137,-239.427,89.154,-5.567,2.221,411.932,1,1,3.261
1777415146453,2.236,0.112,-1.893,-198.023,-250.137,-240.702,112.783,-17.491,2.932,399.649,1,1,3.263
1777415146466,2.487,-0.207,-2.040,-88.573,-236.405,-118.206,35.249,-26.405,3.223,278.756,1,1,3.263
1777415146479,2.657,-0.293,-2.105,19.267,-28.954,-50.603,-20.761,-33.142,3.403,61.402,1,1,3.254
1777415146493,2.592,0.152,-1.877,130.840,186.840,133.779,32.228,-38.777,3.203,264.433,1,1,3.895
1777415146507,1.709,0.502,-1.314,113.275,250.130,132.496,66.501,-41.958,2.214,304.879,1,1,3.247
1777415146520,0.772,0.800,-0.656,49.893,250.130,144.527,83.484,-40.544,1.291,293.159,1,1,3.257
1777415146533,0.490,0.373,-0.497,-81.046,250.130,-8.160,99.584,-39.929,0.792,263.059,1,1,3.251
1777415146547,0.486,-0.197,-0.491,-51.832,230.046,14.634,29.946,-40.644,0.718,236.266,1,1,3.257
1777415146560,0.596,-0.446,-0.523,58.000,177.931,86.840,-15.848,-40.722,0.910,206.312,5,1,3.902
1777415146574,0.807,-0.299,-0.478,175.473,169.916,163.679,-51.545,-44.605,0.984,294.029,5,1,3.289
1777415146588,0.628,0.120,-0.519,194.145,238.015,161.527,7.496,-45.981,0.824,347.037,5,1,3.259
1777415146601,0.131,0.425,-0.030,114.244,241.313,128.687,30.869,-38.184,0.445,296.385,5,1,3.244
1777415146614,-0.256,0.481,0.277,13.885,140.641,119.466,38.750,-21.170,0.611,185.054,5,1,3.250
1777415146628,-0.460,0.263,0.298,-90.893,25.901,56.107,39.463,-2.171,0.608,109.911,5,1,3.888
1777415146642,-0.495,-0.039,0.239,-112.115,-133.153,64.382,26.282,15.684,0.552,185.592,5,1,3.254
1777415146655,-0.189,-0.124,0.005,-101.542,-250.137,55.496,-4.525,26.751,0.226,275.607,5,1,3.257
1777415146668,0.509,-0.198,-0.229,-94.679,-250.137,61.794,-40.885,3.529,0.592,274.502,5,1,3.254
1777415146682,1.010,-0.272,-0.990,-147.756,-250.137,-59.267,-74.318,-9.456,1.440,296.501,5,1,3.249
1777415146695,1.942,-0.440,-1.804,-142.733,-250.137,-52.031,-99.168,-19.408,2.687,292.658,5,1,3.894
1777415146709,2.822,-0.796,-2.179,-26.710,-202.809,11.870,-115.585,-27.830,3.653,204.905,5,1,3.247
1777415146722,2.994,-0.832,-2.173,77.740,90.313,-9.710,-127.326,-34.401,3.792,119.559,5,1,3.250
1777415146736,2.428,-0.479,-1.891,194.321,250.130,44.267,-137.719,-38.944,3.115,319.820,5,1,3.258
1777415146749,1.602,0.011,-1.247,250.130,250.130,109.275,-52.021,-42.500,2.030,370.231,5,1,3.251
1777415146762,0.970,0.547,-0.567,250.130,250.130,119.985,-1.211,-44.775,1.250,373.532,5,5,3.913
1777415146776,0.268,0.636,-0.154,68.924,250.130,-7.176,27.101,-38.700,0.707,259.551,5,5,3.286
1777415146790,-0.148,0.356,0.104,-29.038,250.130,14.099,39.691,-22.348,0.399,252.204,5,5,3.246
1777415146803,-0.285,-0.081,0.166,-87.947,171.542,10.794,21.966,-0.879,0.340,193.074,5,5,3.256
1777415146816,-0.356,-0.473,0.190,-104.679,70.885,-21.809,-2.361,8.793,0.621,128.289,5,5,3.253
1777415146830,-0.376,-0.636,0.124,-64.137,-26.153,-50.000,-23.055,14.558,0.749,85.426,5,5,3.903
1777415146844,-0.414,-0.553,0.070,-27.191,-146.763,-85.412,-39.202,20.523,0.694,171.971,5,5,3.258
1777415146857,-0.229,-0.513,-0.323,-10.130,-250.137,-114.817,-61.621,20.557,0.648,275.416,5,5,3.252
1777415146870,0.328,-0.388,-0.514,22.321,-250.137,-91.267,-83.592,7.721,0.723,267.201,5,5,3.261
1777415146884,1.256,-0.109,-0.940,56.443,-250.137,-39.985,-107.849,-8.679,1.573,259.525,5,5,3.253
1777415146897,1.963,0.030,-1.274,40.939,-250.137,-61.611,-30.443,-21.734,2.341,260.846,5,5,3.876
1777415146911,2.329,0.133,-1.276,42.748,-138.206,10.153,24.797,-32.384,2.659,145.022,5,5,3.259
1777415146924,2.256,0.099,-1.271,-11.626,43.282,-49.130,65.525,-39.985,2.591,66.500,5,5,3.251
1777415146938,1.931,0.045,-1.147,12.244,125.427,47.496,95.839,-45.192,2.246,134.677,5,5,3.259
1777415146951,1.601,-0.125,-0.969,-3.153,214.389,9.290,23.310,-48.818,1.875,214.614,5,5,3.258
1777415146964,1.142,-0.129,-0.758,35.962,177.779,89.802,-29.012,-50.771,1.376,202.393,5,5,3.888
1777415146979,1.029,-0.317,-0.593,3.344,210.008,-47.504,-62.194,-52.412,1.229,215.339,5,5,3.302
1777415146992,0.784,-0.369,-0.476,54.496,173.969,11.656,-83.816,-52.426,0.989,182.678,5,5,3.250
1777415147005,0.742,-0.292,-0.348,100.878,138.130,37.290,-98.997,-54.064,0.870,175.062,5,5,3.248
1777415147019,0.677,-0.126,-0.269,85.954,159.847,-8.664,-114.085,-57.374,0.739,181.699,5,5,3.265
1777415147032,0.332,-0.019,-0.143,60.542,149.878,9.046,-129.814,-59.853,0.362,161.897,5,5,3.930
1777415147046,0.307,0.099,0.011,76.214,79.023,151.733,-72.214,-63.135,0.323,187.286,5,5,3.266
1777415147059,0.272,0.104,0.083,-16.649,81.618,60.298,-38.782,-63.338,0.303,102.833,5,5,3.267
1777415147073,0.133,-0.102,0.126,-65.847,9.221,47.916,-38.858,-56.887,0.210,81.956,5,5,3.256
1777415147086,0.126,-0.270,0.044,-75.160,-72.550,18.603,-50.173,-48.232,0.301,106.107,5,5,3.267
1777415147100,0.213,-0.367,-0.079,-68.435,-158.656,-0.702,-64.197,-43.192,0.432,172.788,5,5,3.929
1777415147114,0.495,-0.399,-0.309,-54.756,-242.260,-28.389,-81.361,-43.529,0.707,249.988,5,5,3.250
1777415147127,0.861,-0.326,-0.575,-12.412,-250.137,25.527,-100.018,-45.954,1.086,251.743,5,5,3.270
1777415147140,1.615,-0.199,-0.967,-0.634,-250.137,50.221,-118.476,-49.363,1.893,255.130,5,5,3.244
1777415147154,2.231,-0.328,-1.294,-21.290,-184.824,37.725,-131.258,-51.998,2.600,189.833,5,5,3.259
1777415147167,2.453,-0.539,-1.413,14.977,8.359,45.710,-138.785,-53.714,2.881,48.822,5,5,3.939
1777415147181,2.158,-0.542,-1.212,76.458,161.374,71.290,-143.413,-54.980,2.533,192.275,5,5,3.289
1777415147194,1.638,-0.412,-0.986,88.466,238.580,55.740,-147.173,-55.495,1.955,260.487,5,5,3.253
1777415147208,1.173,-0.405,-0.686,72.725,243.382,38.817,-147.782,-55.585,1.418,256.964,5,5,3.244
1777415147221,1.023,-0.462,-0.472,62.656,195.038,34.595,-144.490,-56.006,1.217,207.756,5,5,3.246
1777415147234,1.061,-0.584,-0.480,44.183,194.298,-36.855,-140.420,-55.603,1.303,202.638,5,5,3.906
1777415147248,0.902,-0.458,-0.619,81.733,250.130,-36.733,-141.248,-53.959,1.186,265.696,5,5,3.249
1777415147262,0.343,-0.227,-0.258,116.885,250.130,18.321,-140.557,-51.523,0.485,276.700,5,5,3.246
1777415147275,-0.628,0.417,0.382,95.618,250.130,52.885,-89.761,-24.634,0.845,272.955,5,5,3.256
1777415147288,-1.209,0.380,0.796,-75.344,108.618,-38.275,-58.618,-3.426,1.497,137.621,5,5,3.250
1777415147302,-1.239,-0.041,0.574,-146.473,-101.794,-53.947,-43.874,15.087,1.366,186.351,5,5,3.891
1777415147316,-0.655,-0.367,0.313,-132.771,-250.137,-53.450,-45.409,25.496,0.813,288.191,5,5,3.251
1777415147329,0.317,-0.518,-0.278,-124.023,-250.137,-128.618,-65.072,10.957,0.667,307.397,5,5,3.248
1777415147342,0.996,-0.515,-0.837,-59.893,-250.137,-114.084,-87.586,-4.262,1.399,281.374,5,5,3.260
1777415147356,1.364,-0.395,-0.979,20.443,-250.137,-60.206,-106.620,-17.233,1.724,258.092,5,5,3.247
1777415147369,1.651,-0.073,-0.923,61.916,-250.137,23.771,-125.222,-28.981,1.893,258.781,5,5,3.877
1777415147383,1.902,0.036,-1.117,-2.878,-236.664,-22.817,-43.268,-37.244,2.206,237.779,5,5,3.367
1777415147397,2.173,-0.043,-1.223,-46.985,-113.733,1.504,-79.657,-43.559,2.494,123.065,5,5,3.239
1777415147410,2.125,-0.263,-1.243,-59.656,-0.458,-5.618,-103.543,-47.761,2.476,59.922,5,5,3.249
1777415147423,2.056,-0.514,-1.218,-15.366,92.015,11.359,-118.017,-50.329,2.445,93.978,5,5,3.253
1777415147437,1.792,-0.501,-1.026,57.771,165.359,34.679,-127.727,-52.266,2.125,178.560,5,5,3.888
1777415147451,1.384,-0.197,-0.764,117.710,213.008,63.015,-137.954,-54.439,1.593,251.394,5,5,3.260
1777415147464,1.034,0.092,-0.462,85.450,212.985,70.176,-55.087,-57.436,1.136,239.977,5,5,3.257
1777415147477,0.818,0.077,-0.425,33.298,199.130,94.313,5.654,-58.707,0.925,222.837,5,5,3.243
1777415147491,0.624,-0.144,-0.410,2.313,231.962,90.008,-39.276,-57.746,0.760,248.823,5,5,3.262
1777415147504,0.317,-0.338,-0.180,0.191,228.725,95.206,-60.536,-52.854,0.498,247.749,5,5,3.881
1777415147518,-0.138,-0.387,-0.044,-3.748,220.481,49.397,-70.257,-33.304,0.413,225.978,5,5,3.256
1777415147531,-0.486,-0.268,0.473,18.130,41.794,106.397,-59.253,-13.019,0.729,115.740,5,5,3.254
1777415147545,-0.369,-0.164,0.292,-24.985,-98.954,42.237,-51.148,3.400,0.499,110.454,5,5,3.247
1777415147558,-0.116,-0.149,0.109,-82.023,-199.046,-8.710,-51.860,11.175,0.218,215.460,5,5,3.254
1777415147571,0.165,-0.186,-0.158,-228.473,-250.137,-223.954,-73.074,-1.033,0.295,406.109,5,5,3.901
1777415147585,4.000,0.114,-2.889,110.038,250.130,250.130,-5.312,-15.379,4.936,370.457,5,5,3.358
1777415147599,0.562,-0.339,-0.857,250.130,250.130,250.130,-46.675,-19.700,1.080,433.237,5,5,3.256
1777415147612,-1.324,0.356,1.071,80.534,250.130,-89.702,-29.099,-0.988,1.740,277.664,5,5,3.248
1777415147625,0.702,-0.136,0.372,-106.580,83.466,-250.137,-26.658,-17.078,0.806,284.420,5,5,3.256
1777415147639,1.953,-0.229,-0.087,-16.489,129.863,-12.214,-49.389,-34.843,1.968,131.474,5,5,3.889
1777415147653,-0.047,-0.222,0.661,-41.473,7.053,-85.496,-41.068,-24.381,0.699,95.286,5,5,3.245
1777415147666,1.063,-0.164,0.068,-67.405,-167.817,-26.511,-48.176,-39.544,1.078,182.780,5,5,3.257
1777415147679,1.499,-0.201,-0.211,-16.473,-66.305,36.779,-71.989,-50.201,1.527,77.591,5,5,3.250
1777415147693,1.055,-0.064,0.002,-31.160,-63.115,38.779,-76.381,-60.018,1.057,80.363,5,5,3.255
1777415147706,1.228,-0.081,-0.098,-57.092,-49.504,42.450,-93.754,-66.521,1.235,86.672,5,5,3.888
1777415147720,1.248,-0.090,-0.111,-74.473,-10.183,89.160,-106.486,-71.096,1.256,116.617,5,5,3.258
1777415147733,1.269,-0.117,-0.199,-91.641,29.092,129.702,-118.136,-73.419,1.290,161.453,5,5,3.253
1777415147747,1.307,-0.068,0.110,-110.901,36.344,180.115,-94.756,-76.369,1.313,214.618,5,5,3.274
1777415147760,1.301,0.013,-0.060,-124.115,87.160,240.221,-23.873,-79.321,1.303,284.091,5,5,3.257
1777415147774,0.921,-0.166,-0.256,-112.443,129.443,250.130,-57.136,-77.257,0.970,303.255,4,5,3.885
1777415147788,0.661,-0.273,-0.160,-125.992,97.053,228.221,-74.206,-73.781,0.733,278.170,4,5,4.145
1777415147802,0.798,-0.495,-0.174,-125.397,85.084,223.420,-83.706,-69.157,0.955,269.963,4,5,3.244
1777415147815,0.781,-0.622,-0.091,-106.214,84.939,216.725,-87.650,-64.299,1.003,255.863,4,5,3.241
1777415147828,0.647,-0.625,-0.179,-103.481,65.275,189.221,-92.594,-59.049,0.917,225.330,4,5,3.266
1777415147842,0.583,-0.791,-0.173,-91.580,39.382,152.168,-95.225,-52.754,0.997,181.915,5,5,3.885
1777415147856,0.634,-0.800,-0.142,-79.206,34.679,132.473,-96.539,-48.752,1.030,158.194,5,5,3.250
1777415147869,0.641,-0.910,-0.217,-45.580,20.053,127.435,-98.387,-44.879,1.134,136.819,5,5,3.253
1777415147882,0.596,-0.937,-0.166,9.611,23.779,109.397,-98.827,-41.420,1.123,112.363,5,5,3.246
1777415147896,0.333,-1.111,-0.191,76.053,-25.282,32.153,-99.073,-34.669,1.176,86.355,5,5,3.267
1777415147909,0.126,-0.901,-0.009,77.748,-110.832,-97.214,-96.773,-27.453,0.910,166.670,1,5,3.924
1777415147923,0.557,-0.840,-0.308,63.359,-150.168,-152.466,-100.375,-28.656,1.054,223.183,1,5,3.250
1777415147937,1.089,-0.670,-0.463,82.901,-65.122,11.519,-106.922,-35.290,1.360,106.048,1,5,3.259
1777415147950,0.622,-0.367,-0.331,44.221,-25.084,130.382,-113.706,-39.684,0.795,139.943,1,5,3.260
1777415147963,0.476,-1.041,-0.367,-6.145,-39.969,103.924,-112.550,-35.259,1.202,111.514,1,5,3.258
1777415147977,0.512,-0.919,-0.224,91.153,-2.053,151.901,-110.165,-33.417,1.076,177.163,1,5,3.952
1777415147991,0.165,-0.858,-0.034,88.321,-61.412,79.298,-105.339,-27.329,0.874,133.642,1,5,3.320
1777415148004,0.465,-0.915,-0.185,92.076,-88.145,48.344,-104.275,-27.096,1.043,136.326,1,5,3.248
1777415148017,0.649,-0.949,-0.204,157.588,-73.336,85.947,-103.688,-28.895,1.168,193.904,1,5,3.250
1777415148031,0.556,-0.832,-0.124,194.794,-52.870,137.069,-102.281,-30.128,1.008,243.983,1,5,3.252
1777415148044,0.408,-0.805,0.002,181.489,-71.763,115.595,-98.916,-29.259,0.902,226.827,5,5,3.885
1777415148058,0.549,-0.875,-0.031,168.168,-67.824,77.817,-97.051,-30.026,1.034,197.322,5,5,3.257
1777415148071,0.749,-0.824,-0.004,194.405,-46.779,143.450,-95.229,-33.332,1.114,246.088,5,5,3.245
1777415148085,0.602,-0.830,0.055,199.321,-37.817,195.641,-92.788,-34.025,1.026,281.841,5,5,3.260
1777415148098,0.477,-0.839,0.084,182.847,-34.321,192.740,-90.494,-32.802,0.968,267.880,5,5,3.249
1777415148111,0.536,-0.885,0.084,207.038,-38.466,250.130,-88.896,-32.344,1.038,326.970,5,5,3.873
1777415148125,0.334,-0.902,0.178,215.420,-35.611,250.130,-86.176,-29.005,0.979,332.022,5,5,3.257
1777415148139,0.280,-0.882,0.152,220.183,-40.435,250.130,-84.574,-25.855,0.938,335.679,5,5,3.253
1777415148152,0.184,-0.784,0.281,250.130,-61.985,250.130,-80.714,-22.236,0.853,359.127,5,5,3.250
1777415148165,0.113,-0.812,0.281,250.130,-59.275,250.130,-78.076,-18.249,0.867,358.669,5,5,3.272
1777415148179,0.021,-0.639,0.361,250.130,-110.015,250.130,-73.342,-13.767,0.734,370.450,5,5,3.885
1777415148193,-0.058,-0.599,0.458,250.130,-111.725,250.130,-67.744,-8.852,0.756,370.961,5,5,3.270
1777415148206,-0.183,-0.609,0.519,249.824,-122.969,250.130,-62.836,-2.984,0.821,374.298,5,5,3.277
1777415148220,-0.234,-0.515,0.647,185.710,-129.733,250.130,-56.275,2.097,0.860,337.467,5,5,3.260
1777415148233,0.066,-0.580,0.396,187.916,-136.115,250.130,-56.119,0.087,0.705,341.181,5,5,3.258
1777415148246,-0.032,-0.504,0.414,170.420,-88.427,250.130,-54.633,0.828,0.653,315.321,5,5,3.925
1777415148260,-0.394,-0.588,0.710,180.802,-98.656,250.130,-50.579,6.863,1.002,324.017,5,5,3.259
1777415148274,-0.362,-0.465,0.777,126.038,-114.588,230.786,-45.266,10.891,0.975,286.842,5,5,3.268
1777415148287,-0.212,-0.521,0.736,119.847,-84.450,189.931,-42.576,11.527,0.926,239.936,5,5,3.261
1777415148300,-0.262,-0.441,0.754,112.511,-89.618,176.534,-39.273,12.930,0.912,227.716,5,5,3.248
1777415148314,-0.315,-0.377,0.790,112.412,-83.046,172.977,-35.556,14.785,0.931,222.383,5,5,3.904
1777415148328,-0.390,-0.352,0.917,96.557,-110.328,136.641,-31.616,16.636,1.057,200.416,5,5,3.251
1777415148341,-0.270,-0.334,0.839,83.748,-112.206,122.405,-28.934,16.631,0.942,185.975,5,5,3.242
1777415148355,-0.346,-0.164,0.812,82.107,-83.351,106.985,-24.204,18.271,0.898,158.539,5,5,3.270
1777415148368,-0.242,-0.212,0.826,71.382,-80.794,92.687,-21.561,17.618,0.887,142.176,5,5,3.244
1777415148381,-0.260,-0.202,0.865,51.557,-60.870,60.473,-19.285,17.257,0.926,100.102,5,5,3.882
1777415148395,-0.222,-0.242,0.898,43.618,-43.855,34.908,-18.151,16.227,0.957,71.024,5,5,3.266
1777415148409,-0.246,-0.179,0.923,26.779,-33.275,5.412,-16.221,15.811,0.972,43.053,5,5,3.247
1777415148422,-0.206,-0.251,0.895,25.992,-12.992,1.366,-16.079,14.909,0.952,29.091,5,5,3.250
1777415148435,-0.368,-0.314,0.901,26.344,-42.840,6.023,-16.923,16.583,1.023,50.651,5,5,3.250
1777415148449,-0.444,-0.186,1.002,19.275,-70.427,19.061,-15.197,18.464,1.112,75.464,5,5,3.910
1777415148463,-0.082,-0.254,0.887,51.656,-27.977,40.229,-15.414,14.844,0.927,71.200,5,5,3.259
1777415148476,-0.210,-0.196,0.922,44.740,-50.603,42.206,-14.489,14.223,0.965,79.648,5,5,3.249
1777415148489,-0.197,-0.193,0.944,35.061,-43.298,26.542,-13.702,13.503,0.983,61.713,5,5,3.253
1777415148503,-0.166,-0.226,0.910,45.053,-52.351,43.061,-13.773,12.567,0.952,81.392,5,5,3.258
1777415148516,-0.091,-0.237,0.860,53.969,-32.534,37.038,-14.211,10.742,0.897,73.096,5,5,3.879
1777415148530,-0.208,-0.153,0.918,56.550,-27.198,32.405,-12.933,11.240,0.954,70.623,5,5,3.263
1777415148543,-0.167,-0.121,0.943,55.786,-40.824,37.916,-11.416,10.898,0.965,78.844,5,5,3.337
1777415148557,-0.143,-0.135,0.928,46.397,-26.389,10.366,-10.568,10.297,0.949,54.374,5,5,3.258
1777415148570,-0.081,-0.276,0.919,28.282,-10.748,-23.656,-12.235,8.812,0.963,38.406,5,5,3.252
1777415148584,0.022,-0.006,0.885,-6.405,49.290,-76.260,-9.032,6.039,0.886,91.028,5,5,4.006
1777415148598,-0.018,-0.151,0.902,-51.832,95.908,-159.176,-9.165,4.717,0.915,192.930,5,5,3.262
1777415148611,0.039,-0.159,0.818,-81.809,157.015,-212.641,-9.659,2.718,0.834,276.700,5,5,3.253
1777415148624,-0.396,-0.687,0.822,-38.977,112.252,-186.870,-17.823,7.466,1.142,221.450,5,5,3.259
1777415148638,-0.225,-0.129,0.865,11.038,72.924,-131.641,-15.306,9.347,0.903,150.894,5,5,3.251
1777415148651,-0.165,-0.060,0.843,-50.473,121.695,-250.137,-12.263,9.809,0.861,282.712,5,5,3.890
1777415148665,-0.349,0.818,1.042,-132.756,110.115,-123.435,1.348,11.146,1.370,212.098,5,5,3.266
1777415148678,-0.438,-0.788,0.811,-140.916,87.115,-188.954,-10.951,13.851,1.213,251.297,5,5,3.250
1777415148692,-0.276,-1.008,0.741,7.702,10.718,-52.985,-22.492,13.473,1.281,54.604,5,5,3.254
1777415148705,-0.095,-0.381,0.639,80.947,20.611,-38.931,-24.747,11.804,0.750,92.156,5,5,3.256
1777415148718,-0.094,0.054,0.738,30.137,59.824,-46.176,-16.921,10.561,0.745,81.360,5,5,3.878
1777415148732,-0.299,-0.374,0.824,8.740,54.519,-50.870,-18.951,12.650,0.953,75.077,5,5,3.251
1777415148746,-0.068,-0.522,0.755,43.626,38.069,-30.427,-23.202,10.379,0.921,65.409,5,5,3.251
1777415148759,-0.854,-1.289,0.807,250.130,-124.321,250.130,-32.590,15.495,1.745,374.947,5,5,3.250
1777415148772,-0.492,0.479,1.037,250.130,-250.137,250.130,-17.081,17.603,1.244,433.242,5,5,3.256
1777415148786,-0.191,-0.160,0.733,250.130,-250.137,250.130,-15.802,16.710,0.774,433.242,5,5,3.891
1777415148800,0.004,0.205,0.830,250.130,-250.137,250.130,-7.790,12.129,0.854,433.242,5,5,3.246
1777415148813,-0.119,0.182,0.891,227.740,-250.137,250.130,-2.567,10.861,0.917,420.713,5,5,3.264
1777415148827,0.827,0.358,0.644,154.634,-181.191,250.130,5.982,-5.122,1.108,345.408,5,5,3.259
1777415148840,0.464,0.626,0.683,70.992,108.389,178.511,15.851,-10.924,1.036,220.578,5,5,3.246
1777415148853,0.126,0.081,0.921,130.802,7.053,116.145,12.924,-10.074,0.933,175.067,5,5,3.916
1777415148867,0.004,0.200,0.794,148.122,46.992,54.450,13.253,-7.431,0.819,164.661,5,5,3.255
1777415148881,-0.004,0.167,0.888,157.687,59.473,37.649,12.551,-5.356,0.903,172.684,5,5,3.255
1777415148894,-0.034,0.124,0.859,173.160,51.176,21.481,11.384,-3.304,0.868,181.837,5,5,3.263
1777415148907,0.030,0.276,0.741,198.244,65.305,11.908,13.836,-2.995,0.791,209.063,5,5,3.256
1777415148921,0.047,0.270,0.717,210.298,69.519,5.008,15.667,-3.142,0.767,221.547,5,5,3.881
1777415148935,-0.219,0.332,0.894,206.008,42.115,-3.053,16.932,1.209,0.978,210.291,5,5,3.265
1777415148948,0.063,0.301,0.611,215.863,38.221,2.374,19.430,-0.539,0.684,219.233,5,5,3.245
1777415148961,-0.225,1.032,1.014,219.198,-1.511,31.794,26.471,1.998,1.464,221.497,5,5,3.255
1777415148975,0.200,0.448,0.423,174.962,15.107,40.053,31.924,-3.408,0.647,180.123,5,5,3.257
1777415148988,0.192,0.652,0.370,170.282,37.427,-48.817,39.621,-6.373,0.774,181.052,5,5,3.889
1777415149002,0.089,0.735,0.333,151.885,68.969,-77.397,46.653,-6.349,0.812,183.892,5,5,3.252
1777415149015,-0.031,0.951,0.443,102.260,82.611,-83.962,51.609,-4.183,1.049,155.984,5,5,3.256
1777415149029,-0.194,0.845,0.672,78.901,71.344,-84.595,51.589,-0.304,1.097,135.910,5,5,3.247
1777415149042,0.026,0.858,0.606,68.588,92.206,-72.336,52.451,-0.607,1.051,135.789,5,5,3.257
1777415149055,0.009,0.639,0.479,30.870,84.405,-90.145,52.647,-0.618,0.798,127.292,5,5,3.890
1777415149069,-0.084,1.092,0.446,-6.779,114.725,-147.824,56.731,0.653,1.182,187.243,5,5,3.248
1777415149083,-0.307,0.799,0.464,-39.237,94.130,-95.122,57.575,5.449,0.974,139.457,5,5,3.262
1777415149096,-0.623,0.919,0.313,-85.878,171.481,-123.053,61.253,12.805,1.154,227.866,5,5,3.282
1777415149109,-0.210,0.943,0.319,182.534,119.542,250.130,63.963,12.571,1.017,331.925,5,5,3.249
1777415149123,-0.680,0.815,0.447,81.763,117.893,97.183,63.237,18.950,1.152,173.288,5,5,3.848
1777415149137,-0.979,1.428,0.453,16.282,-32.901,6.550,65.715,22.792,1.789,37.289,5,5,3.247
1777415149150,-0.249,0.807,0.431,-19.046,8.366,29.626,64.689,20.752,0.948,36.200,5,5,3.241
1777415149163,0.433,-0.273,0.149,-48.115,-0.809,-67.931,30.619,0.475,0.533,83.249,5,5,3.258
1777415149177,-0.447,0.607,0.739,14.840,-19.122,-8.885,32.993,7.116,1.055,25.784,5,5,3.247
1777415149190,-0.224,0.947,0.509,41.015,-19.328,0.153,40.756,8.378,1.098,45.342,5,5,3.849
1777415149204,-0.167,0.843,0.463,59.718,-4.489,6.824,46.283,8.769,0.976,60.274,5,5,3.265
1777415149217,-0.138,0.895,0.481,67.168,-9.901,26.527,50.453,8.489,1.025,72.892,5,5,3.253
1777415149231,-0.299,0.885,0.527,63.244,-14.290,27.832,52.826,10.568,1.073,70.560,5,5,3.247
1777415149244,-0.163,0.907,0.439,51.443,3.885,20.496,55.898,10.196,1.021,55.512,5,5,3.253
1777415149257,-0.230,0.912,0.434,37.779,5.863,29.763,58.232,10.915,1.036,48.451,5,5,3.887
1777415149271,-0.132,0.902,0.329,26.489,25.870,45.779,61.400,10.082,0.969,58.878,5,5,3.249
1777415149285,-0.202,0.903,0.378,22.725,49.931,72.626,62.986,10.511,0.999,91.017,5,5,3.260
1777415149298,-0.214,0.926,0.529,22.878,54.573,104.405,62.248,10.730,1.088,120.008,5,5,3.246
1777415149311,-0.174,0.927,0.363,-7.435,54.176,110.000,63.967,10.502,1.011,122.842,5,5,3.247
1777415149325,-0.141,0.706,0.307,-20.389,67.267,90.870,64.645,10.461,0.783,114.883,5,5,3.867
1777415149339,-0.167,1.421,0.579,36.366,108.420,177.740,65.502,9.313,1.544,211.351,5,5,3.239
1777415149352,-0.110,0.325,0.323,48.405,82.641,115.771,60.004,10.456,0.471,150.251,5,5,3.242
1777415149365,-0.111,0.403,0.355,91.679,118.947,42.298,56.932,10.777,0.548,156.021,5,5,3.254
1777415149379,-0.887,1.250,0.772,60.313,39.504,98.137,57.297,16.272,1.716,121.775,5,5,3.245
1777415149392,0.011,0.684,0.234,60.473,76.107,18.221,61.033,11.636,0.723,98.900,5,5,3.855
1777415149406,-0.326,0.478,0.363,52.351,52.992,-9.008,58.800,16.195,0.683,75.033,5,5,3.258
1777415149420,-0.016,0.563,0.134,109.603,87.374,9.863,63.620,12.251,0.579,140.514,5,5,3.248
1777415149433,-0.934,1.196,0.631,72.733,85.160,37.504,63.233,18.298,1.644,118.105,5,5,3.247
1777415149446,0.028,0.443,0.057,54.710,32.939,-91.901,68.470,12.375,0.447,111.910,5,5,3.259
1777415149460,-0.164,0.466,0.191,76.710,68.122,-70.115,68.256,13.902,0.529,124.262,5,5,3.889
1777415149474,-0.156,0.682,0.361,58.183,57.725,-163.008,66.605,13.234,0.787,182.453,5,5,3.245
1777415149487,0.313,0.100,-0.242,93.076,109.618,-142.038,91.189,-3.878,0.408,202.124,5,5,3.251
1777415149500,0.038,0.324,-0.219,141.565,165.031,-136.954,100.066,-4.344,0.393,256.967,5,5,3.249
1777415149514,-0.303,0.029,-0.702,215.977,159.985,-181.443,121.020,3.134,0.765,324.288,5,5,3.257
1777415149527,-0.298,0.975,-0.492,235.603,171.374,-209.038,119.880,6.415,1.132,358.573,5,5,3.869
1777415149541,-0.239,1.723,-0.377,197.275,216.855,-61.725,115.140,6.769,1.780,299.589,5,5,3.242
1777415149554,-0.746,1.207,-0.215,61.450,174.313,-76.267,111.080,13.396,1.435,199.945,5,5,3.259
1777415149568,-0.812,0.874,-0.248,36.405,118.137,-170.351,109.667,21.066,1.218,210.479,5,5,3.248
1777415149581,-0.717,1.009,-0.207,18.794,110.305,-135.023,107.483,24.790,1.255,175.362,5,5,3.251
1777415149594,-0.751,0.548,-0.035,46.557,148.229,-124.427,103.746,32.640,0.930,199.052,5,5,3.893
1777415149608,-1.134,0.770,-0.027,88.092,132.626,-116.206,100.572,38.893,1.371,197.113,5,5,3.241
1777415149622,-1.130,1.371,-0.159,61.260,74.076,-148.260,99.502,39.006,1.784,176.694,5,5,3.248
1777415149635,-0.916,1.440,-0.237,-14.069,41.214,-159.718,99.461,37.146,1.723,165.548,5,5,3.244
1777415149648,-0.809,1.065,-0.242,-55.435,24.977,-180.855,100.366,36.983,1.359,190.802,5,5,3.234
1777415149662,-0.702,0.388,-0.173,-45.740,38.664,-245.840,104.062,42.879,0.820,253.030,5,5,3.844
1777415149676,-1.020,1.062,-0.008,-74.000,34.947,-247.687,100.384,43.134,1.472,260.857,5,5,3.264
1777415149689,-0.891,0.527,-0.012,-92.244,-8.000,-250.137,97.923,47.525,1.035,266.724,5,5,3.246
1777415149702,-0.663,0.525,-0.170,-74.122,25.786,-202.137,100.633,48.251,0.863,216.838,5,5,3.249
1777415149716,-0.839,1.076,-0.086,-104.824,52.870,-199.435,98.994,45.445,1.367,231.426,5,5,3.273
1777415149729,-1.001,0.743,-0.094,-134.824,35.198,-193.290,98.522,47.541,1.250,238.281,5,5,3.898
1777415149743,-0.903,0.590,-0.129,-135.832,39.267,-167.206,99.558,49.892,1.086,218.975,5,5,3.245
1777415149756,-0.800,0.422,-0.197,-122.924,63.908,-156.855,103.735,52.576,0.926,209.280,5,5,3.254
1777415149770,-1.122,0.394,-0.058,-33.710,24.809,-7.160,102.293,57.410,1.190,42.463,5,5,3.252
1777415149783,-0.894,0.324,-0.085,-10.397,41.962,7.565,102.925,60.661,0.955,43.888,5,5,3.252
1777415149796,-0.932,0.417,-0.055,36.122,33.641,73.710,101.452,62.024,1.022,88.711,5,5,3.870
1777415149810,-1.011,0.429,-0.023,64.573,-4.008,144.053,99.194,63.362,1.098,157.915,5,5,3.250
1777415149823,-0.858,0.568,-0.046,72.656,-18.244,200.809,97.959,61.485,1.030,214.327,5,5,3.245
1777415149837,-0.695,0.339,-0.283,70.191,-7.634,171.389,106.566,60.429,0.823,185.363,5,5,3.243
1777415149850,-0.429,0.598,-0.369,-20.863,66.595,10.664,110.652,52.595,0.824,70.597,5,5,3.242
1777415149863,-0.529,0.518,-0.367,-105.031,146.664,-154.863,114.614,49.150,0.826,237.748,1,5,3.850
1777415149877,-0.423,0.386,-0.324,-183.031,250.130,-250.137,118.778,46.676,0.658,398.289,1,5,3.256
1777415149891,-0.983,0.429,-0.375,-64.580,250.130,-132.550,122.118,50.253,1.136,290.353,1,5,3.243
1777415149904,-1.236,0.514,-0.349,-57.580,182.893,-74.885,122.669,53.782,1.384,205.848,1,5,3.250
1777415149917,-1.120,0.468,-0.346,-18.176,94.137,-28.756,123.711,56.150,1.263,100.095,1,5,3.306
1777415149931,-0.939,0.423,-0.297,3.611,40.053,-10.290,124.070,57.507,1.072,41.511,1,5,3.880
1777415149945,-0.766,0.493,-0.426,42.977,46.260,39.847,125.895,55.370,1.006,74.664,1,5,3.246
1777415149958,-0.734,0.399,-0.384,75.145,71.893,74.305,128.070,54.718,0.919,127.815,1,5,3.255
1777415149971,-0.871,0.481,-0.360,106.824,67.000,131.771,127.715,54.900,1.058,182.384,1,5,3.255
1777415149985,-0.816,0.718,-0.422,129.336,37.733,217.168,125.754,52.069,1.165,255.565,1,5,3.243
1777415149998,-0.768,0.671,-0.610,88.473,23.893,166.176,127.515,48.878,1.189,189.770,5,5,3.890
1777415150012,-0.571,0.483,-0.568,54.496,47.511,39.328,130.783,45.787,0.939,82.304,5,5,3.252
1777415150025,-0.592,0.540,-0.566,54.092,57.084,17.252,132.288,43.450,0.981,80.512,5,5,3.245
1777415150039,-0.553,0.616,-0.569,67.389,67.374,48.298,132.406,40.737,1.005,106.833,5,5,3.244
1777415150052,-0.548,0.612,-0.590,86.008,80.023,96.336,132.827,38.593,1.011,151.926,5,5,3.249
1777415150065,-0.662,0.662,-0.634,99.313,75.817,147.863,133.078,37.852,1.130,193.584,5,5,3.848
1777415150079,-0.555,0.688,-0.701,129.557,75.489,216.267,133.747,35.590,1.129,263.164,5,5,3.258
1777415150093,-1.034,0.656,-0.596,134.969,56.107,226.160,133.347,39.318,1.362,269.283,5,5,3.244
1777415150106,-2.287,-0.800,0.106,38.954,6.443,-245.573,75.043,47.760,2.425,248.726,5,5,3.264
1777415150119,0.702,1.264,-1.141,155.229,-116.008,250.130,90.447,28.801,1.842,316.415,5,5,3.301
1777415150133,-0.012,0.923,-1.183,130.969,8.977,235.939,104.387,21.149,1.500,270.001,5,5,3.877
1777415150147,-0.176,1.212,-0.758,-31.252,103.450,82.901,109.149,17.327,1.440,136.203,5,5,3.246
1777415150160,-0.264,0.671,-0.895,-3.397,149.969,167.687,118.329,16.236,1.149,224.992,5,5,3.257
1777415150173,-0.540,0.862,-0.786,1.901,139.229,163.298,122.122,18.557,1.285,214.603,5,5,3.254
1777415150187,-0.373,0.987,-0.751,-15.824,136.275,155.382,123.509,18.067,1.295,207.279,5,5,3.253
1777415150200,-0.287,1.082,-0.715,-37.237,171.221,222.252,123.497,16.559,1.328,283.018,1,5,3.875
1777415150214,-0.446,1.021,-0.766,-54.053,174.763,250.130,124.413,17.286,1.351,309.885,1,5,3.266
1777415150227,-0.408,1.061,-0.744,-74.649,172.389,243.908,124.582,17.338,1.359,307.867,1,5,3.251
1777415150241,-0.388,0.989,-0.759,-100.771,167.061,186.237,125.373,17.323,1.305,269.719,1,5,3.253
1777415150254,-0.339,0.961,-0.736,-114.740,159.977,157.519,125.936,16.872,1.257,252.132,1,5,3.250
1777415150267,-0.324,0.943,-0.684,-111.031,146.511,159.672,125.942,16.508,1.210,243.492,1,5,3.879
1777415150281,-0.316,0.909,-0.636,-103.351,126.595,157.435,125.684,16.346,1.153,226.922,1,5,3.257
1777415150295,-0.229,0.909,-0.651,-107.481,107.641,151.603,125.664,15.050,1.141,214.761,1,5,3.246
1777415150308,-0.085,0.801,-0.676,-98.069,106.008,167.695,126.874,12.243,1.052,221.307,1,5,3.253
1777415150321,-0.052,0.727,-0.689,-82.466,109.046,187.779,128.653,9.742,1.003,232.277,1,5,3.271
1777415150335,-0.030,0.717,-0.606,-68.626,108.588,164.153,129.066,7.605,0.939,208.439,4,5,3.872
1777415150349,-0.037,0.721,-0.511,-69.229,98.351,126.107,128.055,6.201,0.884,174.266,4,5,3.249
1777415150362,0.041,0.705,-0.496,-58.473,89.374,128.931,127.265,3.794,0.863,167.422,4,5,3.251
1777415150375,-0.010,0.739,-0.448,-72.824,77.618,64.237,125.628,2.948,0.864,124.316,4,5,3.251
1777415150389,0.119,0.711,-0.523,-83.985,65.191,11.000,125.829,0.079,0.891,106.884,4,5,3.251
1777415150402,0.168,0.691,-0.528,-72.947,64.695,-6.000,126.254,-2.896,0.885,97.686,1,1,3.867
1777415150416,0.184,0.818,-0.460,-77.130,73.534,-31.733,124.394,-5.107,0.957,111.190,1,1,3.261
1777415150429,0.143,0.786,-0.464,-69.786,66.718,-11.534,123.348,-6.134,0.924,97.234,1,1,3.267
1777415150443,0.147,0.847,-0.427,-49.977,62.176,15.107,121.566,-6.861,0.960,81.189,1,1,3.251
1777415150456,0.129,0.878,-0.376,-50.008,51.076,12.122,119.299,-7.081,0.963,72.502,1,1,3.251
1777415150469,0.146,0.856,-0.373,-45.802,40.748,15.916,117.746,-7.571,0.946,63.336,1,1,3.907
1777415150483,0.144,0.851,-0.352,-41.672,32.763,19.481,116.327,-7.924,0.932,56.475,1,1,3.265
1777415150497,0.180,0.880,-0.337,-48.611,27.626,14.405,114.871,-8.712,0.959,57.738,1,1,3.245
1777415150510,0.177,0.803,-0.390,-35.824,20.908,48.435,115.151,-9.379,0.910,63.769,1,1,3.265
1777415150523,0.240,0.844,-0.403,-27.763,6.275,18.214,115.251,-10.736,0.966,33.792,1,1,3.264
1777415150537,0.337,0.806,-0.419,-28.634,20.198,24.634,115.848,-13.332,0.968,42.833,5,1,3.918
1777415150551,0.214,0.844,-0.345,-28.672,8.153,2.962,114.876,-13.290,0.937,29.955,5,1,3.258
1777415150564,0.304,0.915,-0.341,-36.557,6.458,-3.450,113.678,-14.378,1.023,37.283,5,1,3.252
1777415150577,0.294,0.910,-0.348,-37.275,4.824,-5.855,112.941,-15.032,1.018,38.039,5,1,3.264
1777415150591,0.329,0.918,-0.377,-30.046,1.832,2.008,112.776,-15.929,1.045,30.168,5,1,3.253
1777415150604,0.368,1.007,-0.381,-27.450,-0.282,16.756,112.224,-16.723,1.138,32.161,5,1,3.914
1777415150618,0.493,1.008,-0.434,-20.313,7.183,30.824,112.510,-18.742,1.203,37.608,5,1,3.262
1777415150631,0.533,1.066,-0.433,-31.672,19.061,33.779,112.400,-20.400,1.268,50.074,5,1,3.264
1777415150645,0.522,1.057,-0.397,-34.389,29.893,34.298,111.916,-21.594,1.244,57.031,5,1,3.255
1777415150658,0.500,1.071,-0.346,-46.229,34.092,23.053,110.837,-22.230,1.231,61.894,5,1,3.262
1777415150671,0.474,1.042,-0.282,-58.389,38.901,16.023,109.299,-22.635,1.179,71.967,5,1,3.917
1777415150685,0.463,0.986,-0.250,-59.634,36.031,12.176,107.927,-23.130,1.117,70.729,5,1,3.261
1777415150699,0.492,1.034,-0.234,-69.198,41.412,2.252,106.525,-23.614,1.169,80.675,5,1,3.258
1777415150712,0.585,1.104,-0.227,-88.641,58.191,-10.313,105.205,-24.650,1.270,106.535,5,1,3.257
1777415150725,0.601,1.247,-0.147,-114.092,74.710,-19.458,102.910,-24.898,1.392,137.757,5,1,3.278
1777415150739,0.635,1.441,-0.072,-148.802,82.771,-2.885,100.198,-24.592,1.577,170.298,5,1,3.906
1777415150753,0.656,1.458,0.002,-188.412,90.542,5.229,97.422,-24.494,1.599,209.104,5,1,3.255
1777415150766,0.665,1.404,0.046,-214.573,91.924,27.489,94.914,-24.722,1.555,235.047,5,1,3.252
1777415150779,0.703,1.198,0.102,-217.450,98.137,49.000,92.271,-26.234,1.393,243.550,5,1,3.267
1777415150793,0.507,0.895,0.219,-224.344,96.649,55.817,87.942,-26.929,1.051,250.572,5,1,3.256
1777415150806,0.186,0.543,0.474,-210.985,90.748,9.649,77.391,-23.568,0.745,229.876,4,5,3.943
1777415150820,0.325,0.480,0.498,-205.618,67.588,-51.954,68.366,-24.005,0.764,222.590,4,5,3.263
1777415150834,0.367,0.447,0.566,-169.053,83.756,-82.519,60.249,-24.808,0.809,205.921,4,5,3.261
1777415150847,0.490,0.963,0.621,-141.992,81.252,-82.466,59.423,-24.363,1.246,183.206,4,5,3.263
1777415150860,0.343,1.210,0.644,-135.832,64.580,-48.221,60.110,-21.572,1.413,157.944,4,5,3.250
1777415150874,0.446,1.349,0.680,-169.191,110.359,-46.031,60.959,-20.183,1.575,207.180,5,5,3.918
1777415150888,-0.147,1.117,0.798,-158.000,36.198,-8.023,59.198,-13.080,1.381,162.292,5,5,3.267
1777415150901,-0.023,0.906,0.633,-179.389,8.542,19.344,58.084,-9.228,1.106,180.631,5,5,3.263
1777415150914,0.040,0.630,0.489,-156.473,1.931,18.092,56.484,-7.516,0.799,157.528,5,5,3.268
1777415150928,-0.232,0.641,0.340,-120.580,-78.221,65.015,57.991,-0.691,0.762,157.750,5,5,3.267
1777415150941,0.459,-0.609,0.144,-106.588,-50.489,26.496,21.596,-10.309,0.776,120.881,4,5,3.916
1777415150955,-0.071,1.295,0.631,-86.885,-78.000,156.595,33.054,-6.761,1.442,195.334,4,5,3.254
1777415150969,0.160,0.440,0.418,-123.603,-65.550,31.893,36.686,-8.921,0.628,143.498,4,5,3.253
1777415150982,0.443,0.753,0.279,-97.122,-81.046,116.573,45.595,-14.316,0.917,172.018,4,5,3.268
1777415150995,0.280,0.420,0.352,-66.870,-75.344,73.626,46.801,-17.762,0.616,124.776,4,5,3.259
1777415151009,0.213,0.428,0.465,-44.290,-68.885,54.351,45.671,-17.987,0.667,98.290,4,5,3.928
1777415151023,0.125,0.475,0.501,-9.046,-98.603,57.786,45.076,-15.890,0.701,114.646,4,5,3.268
1777415151036,0.216,0.602,0.439,-0.115,-118.794,70.183,47.449,-15.956,0.776,137.977,4,5,3.258
1777415151049,0.198,0.422,0.358,26.557,-140.450,77.466,48.054,-16.968,0.588,162.581,4,5,3.262
1777415151063,0.280,0.400,0.266,68.183,-162.130,81.939,50.286,-20.543,0.556,194.034,4,5,3.253
1777415151076,0.374,0.458,0.164,98.137,-173.382,91.863,55.703,-25.149,0.613,219.388,5,5,3.918
1777415151090,0.515,0.331,-0.010,146.580,-174.435,109.718,65.425,-33.823,0.613,252.886,5,5,3.268
1777415151103,0.575,0.129,-0.129,212.389,-160.931,88.679,84.206,-44.249,0.603,280.842,5,5,3.267
1777415151117,0.978,0.568,0.484,184.893,110.931,147.702,74.837,-46.521,1.230,261.356,5,5,3.266
1777415151130,0.070,-0.229,-0.111,229.756,-53.321,-176.397,23.335,-38.132,0.264,294.528,5,5,3.267
1777415151143,-0.149,-0.044,-0.001,250.130,-180.626,-35.168,-7.625,-7.982,0.155,310.528,5,5,3.924
1777415151157,0.846,0.651,-0.625,250.130,-184.878,-97.954,30.589,-17.479,1.237,326.098,5,5,3.257
1777415151171,0.158,0.627,-0.830,250.130,-116.695,-171.878,60.940,-15.093,1.052,325.153,5,5,3.266
1777415151184,0.516,0.886,-0.862,250.130,-27.718,-97.504,80.736,-17.136,1.340,269.889,5,5,3.268
1777415151198,-3.027,2.095,0.355,250.130,-250.137,250.130,80.641,2.332,3.699,433.242,5,5,3.255
1777415151211,4.000,-0.597,-4.000,229.947,189.885,-250.137,12.521,-10.369,5.688,389.231,5,5,3.934
1777415151225,-1.308,0.639,0.123,250.130,-250.137,250.130,30.501,9.604,1.461,433.242,5,5,3.264
1777415151238,1.970,4.000,-2.766,-127.069,9.885,250.130,55.940,1.053,5.247,280.730,5,5,3.268
1777415151252,2.667,3.236,-0.388,9.336,91.252,250.130,66.988,-9.847,4.212,266.419,5,5,3.261
1777415151265,-0.106,0.572,-0.533,152.137,-119.641,78.420,84.822,-5.101,0.789,208.829,5,5,3.253
1777415151278,0.327,0.488,-0.949,250.130,-239.916,103.748,103.189,-8.329,1.117,361.785,5,5,3.920
1777415151292,-1.597,-4.000,0.691,250.130,-250.137,250.130,53.645,-0.277,4.362,433.242,5,5,3.269
1777415151306,1.013,2.306,-1.905,250.130,-250.137,-124.389,74.154,-5.260,3.158,374.975,5,5,3.255
1777415151319,2.460,0.751,-1.762,250.130,-250.137,250.130,96.508,-17.913,3.118,433.242,5,5,3.267
1777415151332,0.329,0.562,-1.155,46.840,-181.763,-17.931,112.049,-16.960,1.326,188.556,5,5,3.266
1777415151346,0.410,-0.412,-1.401,64.168,-187.679,-92.359,37.576,-16.614,1.517,218.795,5,5,3.921
1777415151360,0.014,-0.015,-1.114,118.511,-214.061,-136.496,-20.990,-12.319,1.114,280.176,5,5,3.260
1777415151373,0.184,0.178,-1.125,87.282,-193.710,-141.931,30.879,-11.472,1.153,255.512,5,5,3.247
1777415151387,0.089,0.018,-1.232,61.053,-132.618,-164.931,70.938,-9.491,1.235,220.267,5,5,3.262
1777415151400,-0.223,-0.022,-1.323,69.908,-150.031,-217.252,3.403,-4.341,1.342,273.120,5,5,3.256
1777415151413,0.049,0.255,-1.298,76.527,-156.046,-234.511,48.104,-3.736,1.324,291.894,5,5,3.943
1777415151427,0.055,0.450,-1.185,57.710,-143.603,-224.305,78.123,-3.397,1.269,272.516,5,5,3.260
1777415151441,0.055,0.330,-1.231,36.748,-115.153,-198.634,101.592,-3.152,1.275,232.521,5,5,3.262
1777415151454,-0.198,0.138,-1.213,37.107,-127.137,-206.817,121.019,0.193,1.237,245.589,5,5,3.257
1777415151467,-0.136,0.173,-1.226,46.527,-133.115,-211.687,134.788,1.840,1.246,254.353,5,5,3.252
1777415151481,-0.205,0.105,-1.270,45.397,-134.718,-204.992,145.729,3.808,1.290,249.463,1,5,3.931
1777415151495,-0.193,-0.061,-1.289,51.809,-136.611,-221.725,58.466,5.072,1.305,265.535,1,5,3.264
1777415151508,-0.054,0.074,-1.267,60.321,-106.947,-205.420,90.397,4.356,1.271,239.319,1,5,3.265
1777415151521,-0.193,0.083,-1.253,55.053,-99.366,-205.947,113.580,5.544,1.271,235.199,1,5,3.255
1777415151535,-0.158,0.161,-1.258,54.618,-105.290,-186.397,129.549,5.963,1.278,220.937,1,5,3.322
1777415151548,-0.086,0.095,-1.235,48.695,-91.573,-172.313,141.994,5.424,1.242,201.118,1,5,3.924
1777415151562,-0.232,-0.166,-1.268,56.328,-73.840,-150.504,57.018,6.739,1.300,176.852,1,5,3.260
1777415151576,-0.247,-0.221,-1.186,66.916,-77.206,-173.092,-4.166,8.045,1.231,200.996,1,5,3.247
1777415151589,-0.149,0.000,-1.182,71.779,-59.168,-164.511,45.584,7.814,1.192,188.990,1,5,3.265
1777415151602,-0.054,0.196,-1.132,56.344,-46.786,-145.351,79.250,6.426,1.150,162.759,1,5,3.252
1777415151616,-0.147,0.134,-1.115,40.725,-37.756,-133.130,104.620,6.712,1.132,144.248,1,5,3.933
1777415151630,-0.137,0.026,-1.079,36.061,-33.344,-102.519,124.606,6.848,1.088,113.677,1,5,3.261
1777415151643,-0.242,-0.112,-1.033,23.053,-47.260,-103.573,43.991,8.535,1.067,116.156,1,5,3.264
1777415151656,-0.033,-0.005,-1.024,10.122,-25.145,-98.511,-16.441,6.727,1.025,102.173,1,5,3.256
1777415151670,-0.046,0.074,-1.022,-13.305,-5.618,-95.878,35.507,5.603,1.025,96.960,1,5,3.253
1777415151683,-0.009,0.077,-1.021,-37.244,5.137,-87.359,73.379,4.226,1.024,95.106,1,5,3.928
1777415151697,0.057,0.226,-1.017,-74.298,31.244,-60.466,98.799,2.236,1.044,100.759,1,5,3.258
1777415151710,0.079,0.226,-0.954,-102.168,56.458,-38.466,117.138,0.382,0.984,122.904,1,5,3.260
1777415151724,0.074,0.293,-0.905,-134.985,82.275,-10.237,129.274,-0.927,0.954,158.413,1,5,3.274
1777415151737,0.303,0.583,-0.892,-187.015,114.137,8.038,134.020,-4.963,1.107,219.241,1,5,3.250
1777415151751,0.438,0.850,-0.841,-250.137,181.672,44.634,134.197,-9.058,1.273,312.355,1,1,3.940
1777415151765,0.150,0.747,-0.925,-250.137,219.351,41.473,136.059,-8.559,1.198,335.267,1,1,3.256
1777415151778,0.314,0.682,-1.130,-250.137,226.939,17.450,139.520,-9.859,1.357,338.193,1,1,3.252
1777415151791,0.430,0.844,-1.466,-250.137,250.130,81.931,142.371,-11.048,1.745,363.107,1,1,3.259
1777415151805,0.244,0.856,-1.506,-250.137,232.924,42.702,144.539,-10.229,1.749,344.450,1,1,3.249
1777415151818,0.653,0.862,-1.564,-250.137,242.611,123.168,146.321,-12.893,1.901,369.593,5,1,3.923
1777415151832,0.476,1.139,-1.539,-250.137,250.130,120.328,145.556,-13.179,1.973,373.648,5,1,3.273
1777415151846,0.608,0.672,-1.869,-250.137,250.130,143.412,149.520,-14.221,2.077,381.708,5,1,3.261
1777415151859,0.440,0.089,-1.799,-250.137,250.130,155.718,156.989,-14.086,1.854,386.499,5,1,3.256
1777415151872,0.741,0.121,-1.782,-250.137,250.130,38.656,162.155,-16.368,1.934,355.848,5,1,3.246
1777415151886,0.897,0.529,-1.254,-250.137,250.130,37.725,160.795,-20.971,1.630,355.748,4,1,3.924
1777415151900,-0.963,0.291,-0.064,-188.244,245.641,-70.099,145.033,4.365,1.008,317.316,4,1,3.261
1777415151913,0.923,0.897,-0.659,-238.107,231.496,-76.870,139.969,-7.529,1.446,340.873,4,1,3.258
1777415151926,0.421,0.713,-0.630,-201.840,250.130,-78.298,137.665,-11.943,1.040,330.809,4,1,3.260
1777415151940,0.287,1.147,-0.339,-133.908,250.130,-86.725,129.239,-12.356,1.230,296.678,4,1,3.253
1777415151953,0.031,0.617,-0.189,-166.214,121.382,-118.565,123.235,-9.749,0.646,237.525,4,1,3.957
1777415151967,0.320,1.105,-0.115,-166.084,80.855,-130.214,115.869,-11.455,1.156,226.002,4,1,3.258
1777415151980,0.377,1.252,-0.010,-180.481,39.244,-105.718,109.004,-12.883,1.308,212.814,4,1,3.261
1777415151994,0.550,1.361,-0.107,-194.733,36.511,-62.504,105.086,-15.332,1.472,207.751,4,1,3.264
1777415152007,0.614,1.233,-0.209,-209.069,30.031,-39.435,103.613,-18.257,1.393,214.864,4,1,3.258
1777415152020,0.771,0.865,-0.369,-206.145,68.443,-28.382,106.177,-23.954,1.216,219.056,5,1,3.942
1777415152034,0.403,0.643,-0.194,-185.511,73.153,-66.603,106.352,-25.853,0.783,210.242,5,1,3.258
1777415152048,0.443,0.814,-0.061,-163.534,73.603,-75.107,103.084,-26.571,0.929,194.427,5,1,3.259
1777415152061,0.250,1.036,0.159,-146.931,35.824,-68.046,97.197,-23.023,1.078,165.839,5,1,3.257
1777415152074,0.242,1.323,0.254,-161.603,3.962,-51.511,92.318,-19.559,1.369,169.660,5,1,3.250
1777415152088,0.187,1.086,0.156,-180.389,-28.466,-49.985,89.486,-16.886,1.113,189.339,4,1,3.941
1777415152102,0.385,0.972,0.051,-185.656,-31.527,-42.603,88.817,-18.162,1.047,193.073,4,1,3.260
1777415152115,0.447,0.781,0.038,-171.763,-18.038,-57.336,88.392,-21.286,0.901,181.976,4,1,3.257
1777415152129,0.394,0.665,0.069,-170.511,0.763,-53.382,87.235,-23.786,0.776,178.674,4,1,3.256
1777415152142,0.391,0.774,0.141,-149.786,-5.786,-38.191,85.186,-24.498,0.878,154.687,4,1,3.251
1777415152155,0.469,0.833,0.210,-127.908,-2.015,-16.947,82.669,-25.611,0.979,129.042,1,1,3.959
1777415152169,0.397,0.762,0.248,-132.832,4.595,-6.985,79.773,-25.819,0.895,133.095,1,1,3.257
1777415152183,0.289,0.692,0.287,-116.099,-4.511,4.206,76.456,-24.546,0.803,116.263,1,1,3.247
1777415152196,0.405,0.849,0.313,-108.840,0.069,20.221,74.642,-24.435,0.991,110.702,1,1,3.255
1777415152209,0.341,0.781,0.394,-96.718,14.061,25.748,71.560,-23.582,0.938,101.069,1,1,3.253
1777415152223,0.218,0.697,0.394,-96.267,6.511,17.962,68.576,-21.320,0.830,98.145,1,1,3.944
1777415152237,0.290,0.682,0.396,-90.260,-7.107,8.206,66.229,-21.014,0.840,90.910,1,1,3.258
1777415152250,0.292,0.706,0.463,-84.534,-0.977,12.038,63.667,-20.493,0.894,85.393,1,1,3.260
1777415152263,0.199,0.700,0.513,-81.710,-15.214,6.008,60.992,-18.454,0.890,83.331,1,1,3.256
1777415152277,0.217,0.700,0.509,-70.962,-27.015,9.718,59.098,-17.265,0.893,76.550,1,1,3.252
1777415152290,0.234,0.706,0.532,-62.328,-41.878,14.366,57.444,-16.611,0.915,76.452,5,4,3.948
1777415152304,0.189,0.714,0.585,-54.282,-49.267,8.664,55.608,-15.258,0.942,73.817,5,4,3.260
1777415152317,0.247,0.813,0.615,-50.496,-76.809,17.359,54.873,-14.810,1.049,93.546,5,4,3.261
1777415152331,0.323,0.834,0.611,-49.305,-78.870,33.359,54.576,-15.495,1.083,98.815,5,4,3.258
1777415152344,0.333,0.841,0.675,-54.511,-92.038,45.382,53.678,-15.949,1.128,116.198,5,4,3.253
1777415152358,0.461,0.844,0.633,-57.084,-97.664,34.626,53.526,-18.013,1.151,118.304,5,5,3.971
1777415152372,0.567,0.779,0.521,-67.008,-96.420,-5.427,54.254,-21.565,1.095,117.543,5,5,3.256
1777415152385,0.661,0.679,0.530,-43.382,-79.267,19.305,53.651,-25.867,1.086,92.401,5,5,3.251
1777415152398,0.655,0.819,0.628,-55.779,-65.496,12.107,53.337,-27.633,1.222,86.877,5,5,3.257
1777415152412,0.669,0.778,0.675,-62.878,-64.817,61.405,52.183,-29.084,1.229,109.203,5,5,3.248
1777415152425,0.631,0.807,0.666,-52.282,-37.328,31.046,51.720,-29.624,1.222,71.349,5,5,3.944
1777415152439,0.765,0.858,0.614,-61.489,-17.588,14.344,52.457,-31.328,1.303,65.543,5,5,3.259
1777415152452,0.653,0.860,0.665,-76.481,-10.618,9.695,52.412,-31.240,1.268,77.821,5,5,3.257
1777415152466,0.626,0.800,0.685,-76.206,-8.084,23.176,51.605,-31.101,1.226,80.061,5,5,3.253
1777415152479,0.595,0.788,0.604,-75.748,-18.107,11.420,51.845,-31.061,1.158,78.715,5,5,3.255
1777415152492,0.711,0.716,0.533,-78.137,-7.870,10.282,52.243,-33.078,1.141,79.203,5,5,3.986
1777415152506,0.619,0.643,0.522,-72.725,2.771,17.305,51.896,-34.072,1.034,74.807,5,5,3.256
1777415152520,0.543,0.583,0.542,-70.618,1.023,10.374,50.607,-34.131,0.963,71.384,5,5,3.258
1777415152533,0.491,0.482,0.470,-57.832,-10.244,16.511,49.283,-34.670,0.834,61.009,5,5,3.260
1777415152547,0.525,0.537,0.469,-48.725,-9.015,28.099,49.177,-35.131,0.885,56.965,5,5,3.253
1777415152560,0.485,0.574,0.435,-39.779,-10.756,26.137,50.170,-34.817,0.868,48.797,5,5,3.964
1777415152574,0.455,0.561,0.424,-41.718,-18.397,19.153,50.917,-34.298,0.837,49.453,5,5,3.253
1777415152587,0.402,0.530,0.414,-47.725,-24.672,14.611,51.210,-33.364,0.783,55.676,5,5,3.248
1777415152601,0.435,0.398,0.350,-44.511,-37.084,8.237,50.517,-34.984,0.685,58.518,5,5,3.259
1777415152614,0.598,0.348,0.274,-28.237,-16.542,6.328,50.858,-39.977,0.744,33.332,5,5,3.252
1777415152627,0.503,0.270,0.269,-16.992,-13.412,-9.870,49.310,-43.445,0.631,23.792,5,5,3.942
1777415152641,0.546,0.255,0.225,1.023,-7.748,-7.053,49.111,-47.385,0.643,10.528,5,5,3.263
1777415152655,0.519,0.116,0.152,24.069,-16.221,-12.893,45.931,-53.419,0.553,31.760,5,5,3.255
1777415152668,0.711,0.194,0.057,50.611,-4.046,-8.611,53.428,-59.005,0.739,51.497,5,5,3.256
1777415152681,0.535,0.250,0.178,75.695,-4.718,2.511,53.708,-59.319,0.616,75.883,5,5,3.249
1777415152695,0.493,0.292,0.168,93.244,0.702,13.229,55.453,-58.318,0.597,94.181,5,5,3.950
1777415152709,0.479,0.198,0.140,107.786,-14.824,-17.527,55.296,-59.625,0.537,110.204,5,5,3.259
1777415152722,0.599,0.307,0.037,115.924,16.153,-9.977,62.833,-60.459,0.674,117.468,5,5,3.261
1777415152735,0.185,0.111,0.141,144.061,-20.176,-29.053,56.223,-56.514,0.258,148.340,5,5,3.255
1777415152749,0.343,0.080,0.065,178.374,-32.931,-34.382,54.773,-61.038,0.358,184.618,5,5,3.262
1777415152762,0.330,0.156,0.048,213.336,-46.885,-37.542,59.625,-61.758,0.368,221.630,5,5,3.950
1777415152776,0.443,0.457,0.045,230.099,-41.885,-35.229,66.305,-56.962,0.638,236.519,5,5,3.248
1777415152790,0.471,0.694,0.077,230.053,-25.847,-31.771,70.997,-50.763,0.842,233.671,5,5,3.263
1777415152803,0.369,0.687,0.038,217.107,-38.168,-47.290,75.267,-44.675,0.780,225.452,5,5,3.258
1777415152816,0.566,0.817,-0.025,210.779,-26.359,-39.878,79.714,-41.982,0.995,216.131,5,5,3.254
1777415152830,0.417,0.749,-0.032,206.901,-23.198,-39.802,83.163,-38.495,0.858,211.968,5,5,3.935
1777415152844,0.405,0.714,-0.009,207.718,-35.534,-58.718,85.196,-36.077,0.821,218.762,5,5,3.256
1777415152857,0.431,0.730,-0.040,212.794,-36.954,-53.954,87.331,-34.583,0.849,222.616,5,5,3.261
1777415152870,0.258,0.615,-0.048,235.924,-52.893,-41.878,89.267,-31.382,0.668,245.380,5,5,3.257
1777415152884,0.065,0.463,-0.193,250.130,-92.534,-24.534,95.572,-24.891,0.505,267.824,5,5,3.253
1777415152897,-0.372,0.100,-0.423,250.130,-162.916,-39.275,114.778,-7.221,0.572,301.080,5,5,3.942
1777415152911,-0.357,0.059,-0.970,250.130,-250.137,-105.519,131.453,0.183,1.035,369.145,5,5,3.256
1777415152925,0.062,0.312,-1.531,250.130,-250.137,-196.038,141.451,-0.483,1.564,404.431,5,5,3.255
1777415152938,4.000,4.000,2.919,250.130,-2.176,-250.137,117.794,-10.870,6.365,353.749,5,5,3.263
1777415152951,-1.748,-0.913,0.378,162.725,250.130,250.130,67.728,8.418,2.008,389.370,5,5,3.255
1777415152965,0.003,0.334,-0.867,112.840,-250.137,-81.183,92.358,6.087,0.929,286.168,5,5,3.985
1777415152979,1.114,0.702,-1.027,101.458,52.580,80.695,106.751,-6.862,1.670,139.893,5,5,3.256
1777415152992,0.813,0.029,-0.798,68.351,56.992,-50.489,125.971,-17.308,1.140,102.319,5,5,3.265
1777415153005,0.296,0.775,-0.535,43.489,-38.481,-155.153,125.608,-17.342,0.988,165.663,5,5,3.262
1777415153019,0.594,1.106,-0.581,7.733,40.183,-48.824,123.473,-19.530,1.383,63.705,5,5,3.258
1777415153032,0.566,1.078,-0.593,-7.534,-2.405,-39.031,122.211,-20.932,1.354,39.824,5,5,3.965
1777415153046,0.577,0.945,-0.600,-41.603,30.550,-10.076,122.265,-22.647,1.259,52.589,5,5,3.260
1777415153059,0.524,0.847,-0.593,-53.252,36.305,-2.855,122.997,-23.793,1.160,64.514,5,5,3.258
1777415153073,0.884,0.354,-0.698,0.221,29.458,76.504,131.127,-30.465,1.180,81.980,5,5,3.257
1777415153086,-3.663,-1.517,0.192,63.740,-250.137,-250.137,73.341,-4.041,3.969,359.444,5,5,3.248
1777415153100,3.377,0.152,-3.764,88.344,6.221,146.458,101.531,-14.262,5.059,171.153,5,5,4.040
1777415153114,-0.811,1.716,0.406,-12.489,-125.718,-65.618,94.822,-3.741,1.941,142.361,5,5,3.265
1777415153127,0.977,1.705,-0.572,9.763,5.542,35.695,98.526,-10.431,2.046,37.419,5,5,3.263
1777415153140,-0.083,1.046,-0.555,-16.954,1.962,72.290,103.773,-6.533,1.187,74.278,5,5,3.255
1777415153154,-0.306,0.557,-0.617,30.977,-66.397,18.969,112.997,0.688,0.885,75.683,5,5,3.254
1777415153167,0.164,0.414,-0.832,73.534,-115.023,-34.840,123.947,-2.204,0.943,140.895,1,5,3.948
1777415153181,0.362,0.379,-0.842,93.733,-86.260,-72.824,132.541,-7.392,0.992,146.731,1,5,3.251
1777415153194,0.438,0.517,-0.698,95.641,-53.977,-94.733,135.492,-12.631,0.972,145.035,1,5,3.263
1777415153208,0.264,0.644,-0.602,93.130,-29.046,-99.977,134.840,-13.727,0.920,139.686,1,5,3.256
1777415153221,0.237,0.748,-0.701,100.771,-26.580,-88.244,134.377,-13.541,1.052,136.559,1,5,3.264
1777415153235,0.233,0.779,-0.772,111.099,-21.870,-78.939,134.475,-13.128,1.121,138.032,1,5,3.941
1777415153249,0.339,0.715,-0.821,117.679,-14.969,-67.366,135.686,-14.260,1.140,136.421,1,5,3.255
1777415153262,0.254,0.387,-0.912,134.206,-1.084,-76.191,141.441,-14.296,1.023,154.329,1,5,3.259
1777415153275,0.315,0.342,-0.914,150.962,10.458,-74.748,146.309,-15.264,1.025,168.778,1,5,3.253
1777415153289,0.196,0.382,-0.774,161.397,14.015,-74.489,148.317,-14.596,0.886,178.309,1,5,3.253
1777415153302,0.104,0.362,-0.802,161.679,7.221,-82.771,150.316,-12.467,0.885,181.778,1,5,3.927
1777415153316,0.076,0.395,-0.831,164.649,2.069,-102.863,151.473,-10.382,0.923,194.150,1,5,3.258
1777415153329,0.134,0.459,-0.824,166.122,-4.664,-109.145,151.308,-9.758,0.953,198.824,1,5,3.251
1777415153343,0.153,0.492,-0.832,159.603,3.443,-105.061,150.792,-9.554,0.978,191.109,1,5,3.257
1777415153356,0.088,0.489,-0.902,152.710,2.191,-94.321,150.995,-8.302,1.030,179.503,1,5,3.250
1777415153369,0.026,0.361,-0.925,159.313,-11.977,-112.168,153.069,-6.466,0.994,195.207,5,5,3.942
1777415153383,0.075,0.335,-0.942,172.954,-28.267,-106.511,155.050,-5.874,1.003,205.078,5,5,3.256
1777415153397,0.062,0.421,-0.951,176.573,-17.763,-106.221,155.343,-5.209,1.042,206.824,5,5,3.262
1777415153410,0.149,0.381,-1.054,171.901,-18.840,-107.069,156.638,-5.853,1.131,203.393,5,5,3.258
1777415153423,0.121,0.359,-1.096,178.588,-11.901,-102.382,158.050,-5.884,1.160,206.197,5,5,3.261
1777415153437,0.146,0.382,-1.183,181.038,-4.489,-94.115,159.152,-6.098,1.252,204.089,5,5,3.942
1777415153451,0.104,0.362,-1.190,185.168,-9.534,-81.992,160.217,-5.742,1.248,202.733,5,5,3.256
1777415153464,0.066,0.423,-1.242,183.969,-6.382,-72.725,160.484,-4.968,1.314,197.925,5,5,3.265
1777415153478,0.092,0.430,-1.241,179.313,-18.603,-76.939,160.597,-4.711,1.316,196.007,5,5,3.257
1777415153491,0.003,0.333,-1.310,179.824,-6.557,-66.511,161.990,-3.472,1.351,191.843,5,5,3.262
1777415153504,-0.018,0.352,-1.326,183.588,-10.817,-67.969,162.841,-2.333,1.372,196.065,5,5,3.921
1777415153518,-0.015,0.358,-1.293,182.031,-21.588,-74.809,163.293,-1.531,1.342,197.984,5,5,3.252
1777415153532,0.130,0.373,-1.311,175.763,-2.282,-53.351,163.512,-2.594,1.369,183.696,5,5,3.275
1777415153545,0.043,0.321,-1.285,161.031,-7.908,-49.656,164.175,-2.400,1.326,168.698,5,5,3.361
1777415153558,0.091,0.261,-1.271,157.481,-5.748,-29.137,165.310,-2.839,1.301,160.257,5,5,3.259
1777415153572,0.084,0.083,-1.240,155.740,-1.160,-31.649,168.250,-3.113,1.246,158.928,5,5,3.943
1777415153586,0.125,0.071,-1.162,148.061,11.298,-10.412,170.476,-3.935,1.171,148.856,5,5,3.255
1777415153599,0.060,-0.016,-1.034,139.107,8.695,-1.336,76.037,-3.769,1.036,139.385,5,5,3.257
1777415153613,-0.011,0.044,-1.000,124.534,4.321,-6.489,103.448,-2.578,1.002,124.778,5,5,3.256
1777415153626,0.017,0.045,-1.036,113.748,-0.626,-2.282,123.454,-2.133,1.037,113.773,5,5,3.260
1777415153639,0.075,0.029,-1.050,104.328,-6.565,1.015,138.302,-2.666,1.053,104.540,1,5,3.915
1777415153653,0.077,0.027,-1.073,90.076,-2.649,-2.397,149.177,-3.059,1.077,90.147,1,5,3.263
1777415153667,0.109,0.008,-1.051,71.901,5.160,-1.763,157.385,-3.835,1.056,72.107,1,5,3.272
1777415153680,0.144,0.024,-1.057,53.458,18.672,6.084,163.141,-4.892,1.067,56.951,1,5,3.248
1777415153693,0.146,0.036,-1.054,35.847,34.611,15.672,167.162,-5.699,1.065,52.235,1,5,3.253
1777415153707,0.159,0.040,-1.020,17.725,40.649,22.382,170.026,-6.547,1.033,49.673,1,1,3.922
1777415153721,0.160,0.178,-0.984,-3.458,44.809,48.321,169.951,-7.229,1.013,65.990,1,1,3.258
1777415153734,0.171,0.165,-0.970,-25.687,48.427,55.885,170.058,-7.941,0.999,78.283,1,1,3.265
1777415153747,0.248,0.268,-0.917,-60.641,62.198,56.336,168.344,-9.733,0.987,103.536,1,1,3.256
1777415153761,0.367,0.327,-0.985,-104.924,104.863,69.489,166.537,-12.364,1.101,163.810,1,1,3.262
1777415153774,0.447,0.377,-0.972,-149.351,145.824,77.504,164.453,-15.289,1.135,222.660,5,5,3.920
1777415153788,0.541,0.424,-1.030,-208.000,182.000,80.366,162.606,-18.155,1.239,287.831,5,5,3.256
1777415153801,0.723,0.466,-1.210,-250.137,227.740,84.023,161.613,-21.122,1.484,348.560,5,5,3.268
1777415153815,0.661,0.520,-1.325,-250.137,250.130,83.382,160.796,-22.147,1.569,363.437,5,5,3.255
1777415153828,0.719,0.146,-1.674,-250.137,250.130,96.962,164.642,-22.426,1.828,366.790,5,5,3.259
1777415153841,0.158,1.167,-1.306,-250.137,250.130,102.061,157.504,-17.760,1.758,368.171,5,5,3.917
1777415153855,0.332,0.910,-1.623,-250.137,250.130,83.473,155.674,-15.695,1.890,363.458,5,5,3.258
1777415153869,-0.377,0.117,-1.204,-250.137,235.794,47.954,160.750,-6.782,1.267,347.084,5,5,3.266
1777415153882,0.724,0.176,-1.426,-250.137,172.817,3.878,164.054,-12.178,1.609,304.055,5,5,3.250
1777415153896,0.951,0.273,-1.214,-250.137,206.870,23.878,164.936,-18.989,1.566,325.475,5,5,3.261
1777415153909,1.127,0.590,-1.023,-250.137,250.130,31.489,160.902,-25.654,1.632,355.141,5,5,3.922
1777415153923,0.779,0.681,-0.787,-250.137,250.130,27.908,155.025,-28.673,1.300,354.842,5,5,3.254
1777415153936,0.409,0.832,-1.044,-250.137,250.130,-54.580,151.354,-25.528,1.396,357.928,5,5,3.264
1777415153950,-0.042,0.781,-0.559,-250.137,-12.656,-89.031,144.394,-17.959,0.962,265.811,5,5,3.259
1777415153963,1.455,0.598,-1.196,-250.137,15.618,6.786,146.839,-25.914,1.976,250.716,5,5,3.264
1777415153976,1.256,0.817,-0.846,-245.656,105.962,59.809,143.918,-31.579,1.721,274.139,5,5,3.932
1777415153990,0.807,0.843,-0.586,-250.137,90.107,24.443,138.752,-33.361,1.306,266.993,5,5,3.254
1777415154004,1.101,0.876,-0.664,-250.137,130.298,25.573,135.617,-36.519,1.556,283.196,5,5,3.265
1777415154017,0.241,0.549,-0.373,-232.969,94.412,44.870,132.525,-32.057,0.706,255.346,5,5,3.261
1777415154030,0.659,0.707,-0.431,-209.305,24.191,41.588,129.517,-33.807,1.058,214.764,5,5,3.277
1777415154044,0.808,0.671,-0.415,-192.618,23.832,39.710,127.412,-37.008,1.129,198.108,5,5,3.916
1777415154058,0.962,0.663,-0.443,-186.046,38.183,30.733,126.425,-40.618,1.250,192.394,5,5,3.259
1777415154071,0.937,0.748,-0.337,-187.863,57.939,11.221,123.138,-42.830,1.245,196.914,5,5,3.256
1777415154085,0.933,0.987,-0.185,-205.321,71.603,-0.756,117.055,-42.850,1.371,217.449,5,5,3.252
1777415154098,0.811,0.981,-0.195,-225.626,93.084,9.588,112.776,-41.817,1.288,244.261,5,5,3.254
1777415154111,0.479,0.932,-0.068,-223.466,40.405,-4.122,107.749,-37.854,1.050,227.126,5,5,3.916
1777415154125,0.441,0.984,-0.010,-233.344,19.557,-7.168,103.115,-34.146,1.079,234.271,5,5,3.260
1777415154139,0.386,0.964,0.006,-244.954,-33.779,-32.382,99.482,-30.817,1.038,249.383,5,5,3.268
1777415154152,0.611,0.878,-0.108,-250.137,-27.901,-39.947,98.809,-31.852,1.075,254.839,5,5,3.254
1777415154165,0.660,0.797,-0.107,-250.137,-31.580,-62.611,98.494,-33.888,1.040,259.781,5,5,3.263
1777415154179,0.794,0.711,-0.164,-250.137,-4.282,-83.137,99.709,-37.538,1.078,263.626,1,5,3.915
1777415154193,0.756,0.556,-0.165,-250.137,4.405,-94.145,101.539,-41.578,0.953,267.304,1,5,3.256
1777415154206,0.708,0.338,-0.164,-247.137,3.214,-97.656,105.391,-47.110,0.802,265.752,1,5,3.259
1777415154219,0.831,0.109,-0.162,-196.099,11.824,-78.466,116.403,-55.121,0.854,211.546,1,5,3.254
1777415154233,0.914,0.219,-0.096,-165.313,30.885,-65.443,115.655,-60.579,0.945,180.458,1,5,3.274
1777415154246,0.573,0.138,0.001,-152.702,15.221,-93.504,108.588,-64.866,0.590,179.702,1,5,3.933
1777415154260,1.281,-0.250,-0.273,-89.221,74.397,-31.443,42.095,-67.305,1.334,120.350,1,5,3.248
1777415154274,-0.148,0.297,0.527,-59.939,21.710,-69.366,38.673,-45.399,0.623,94.211,1,5,3.263
1777415154287,0.706,0.436,0.225,-72.313,-27.137,-66.237,45.169,-48.052,0.859,101.749,1,5,3.257
1777415154300,0.660,0.518,0.267,-60.725,11.328,-27.313,49.921,-48.191,0.880,67.542,1,5,3.252
1777415154314,0.534,0.620,0.406,-58.344,12.504,-12.992,51.787,-44.836,0.913,61.066,1,5,3.918
1777415154328,0.397,0.647,0.432,-64.221,-7.733,-26.130,53.009,-40.029,0.874,69.764,1,5,3.256
1777415154341,0.732,0.609,0.419,-61.603,-14.863,-40.802,53.671,-41.299,1.040,75.370,1,5,3.267
1777415154354,0.802,0.749,0.535,-45.550,26.046,-9.382,53.890,-41.233,1.220,53.303,1,5,3.251
1777415154368,0.531,0.936,0.719,-52.374,10.023,-20.878,53.504,-36.636,1.294,57.266,1,5,3.259
1777415154381,0.547,1.013,0.748,-65.855,3.504,-28.656,53.522,-33.078,1.373,71.905,5,5,3.925
1777415154395,0.674,0.981,0.710,-77.435,-10.092,-44.191,53.680,-32.001,1.385,89.727,5,5,3.256
1777415154408,0.783,0.973,0.685,-76.420,-4.000,-41.901,53.996,-32.362,1.424,87.245,5,5,3.257
1777415154422,0.761,0.858,0.632,-71.908,-3.634,-42.550,53.893,-33.218,1.310,83.633,5,5,3.256
1777415154435,0.782,0.830,0.615,-63.435,-7.947,-48.389,53.781,-34.275,1.295,80.179,5,5,3.258
1777415154448,0.954,1.062,0.572,-70.107,14.122,-34.183,55.922,-35.373,1.538,79.265,1,5,3.936
1777415154462,0.802,0.893,0.519,-72.519,34.237,-24.664,56.987,-36.036,1.308,83.902,1,5,3.259
1777415154476,0.704,0.784,0.445,-72.351,26.443,-44.672,57.909,-36.558,1.144,89.048,1,5,3.333
1777415154489,0.710,0.685,0.346,-63.412,34.832,-43.489,59.343,-38.232,1.045,84.413,1,5,3.256
1777415154503,0.619,0.595,0.329,-56.695,30.511,-49.000,59.819,-39.334,0.920,80.909,1,5,3.256
1777415154516,0.578,0.569,0.333,-52.031,23.282,-52.092,59.783,-39.855,0.877,77.219,1,1,3.921
1777415154530,0.572,0.433,0.234,-38.916,-9.534,-53.221,60.272,-42.400,0.755,66.617,1,1,3.258
1777415154543,0.948,0.667,0.162,-19.794,50.649,-9.443,64.623,-45.556,1.170,55.193,1,1,3.265
1777415154557,0.564,0.537,0.244,-25.924,33.282,-32.954,64.870,-45.059,0.816,53.533,1,1,3.252
1777415154570,0.596,0.461,0.187,-18.664,38.351,-17.824,65.689,-46.426,0.776,46.226,1,1,3.263
1777415154583,0.533,0.430,0.243,-10.649,19.137,-16.275,64.297,-46.619,0.727,27.286,5,1,3.946
1777415154597,0.415,0.397,0.279,-0.214,2.756,-4.328,61.752,-44.976,0.638,5.136,5,1,3.252
1777415154611,0.372,0.346,0.239,7.557,-28.260,-9.336,60.023,-44.032,0.562,30.706,5,1,3.267
1777415154624,0.445,0.333,0.198,18.885,-50.550,0.176,59.822,-45.362,0.589,53.963,5,1,3.255
1777415154637,0.423,0.258,0.124,28.145,-78.420,-18.893,61.034,-48.222,0.511,85.433,5,1,3.264
1777415154651,0.625,0.383,-0.001,-0.794,-47.313,-70.206,68.899,-51.007,0.733,84.664,5,1,3.935
1777415154665,0.478,0.004,0.003,79.168,-60.809,-8.840,65.085,-61.377,0.478,100.217,5,1,3.255
1777415154678,0.527,-0.135,-0.151,112.710,-78.618,-38.824,10.120,-63.427,0.564,142.800,5,1,3.295
1777415154692,0.850,0.017,-0.188,159.122,-48.565,-15.802,54.611,-67.224,0.871,167.117,5,1,3.249
1777415154705,0.863,0.252,-0.267,181.908,-10.344,3.748,76.794,-67.149,0.938,182.241,5,1,3.255
1777415154718,0.598,0.032,-0.214,216.191,-22.802,-18.290,102.346,-67.941,0.636,218.158,5,1,3.911
1777415154732,0.638,0.120,-0.328,250.130,-13.611,-5.771,117.907,-66.139,0.727,250.566,5,1,3.253
1777415154746,0.575,0.118,-0.376,250.130,-15.779,-9.702,129.959,-63.279,0.697,250.815,5,1,3.266
1777415154759,0.532,0.118,-0.515,250.130,-0.573,12.695,139.986,-58.402,0.750,250.452,5,1,3.254
1777415154772,0.125,-0.119,-0.545,250.130,-54.160,-26.221,56.865,-46.037,0.572,257.266,5,1,3.263
1777415154786,0.269,-0.025,-0.860,250.130,-50.275,-37.779,-6.669,-38.285,0.902,257.914,5,5,3.917
1777415154800,-0.134,0.106,-1.072,250.130,-75.252,-89.832,42.239,-26.026,1.085,276.220,5,5,3.246
1777415154813,-0.127,0.312,-1.440,250.130,-101.748,-148.321,76.157,-17.665,1.479,308.085,5,5,3.259
1777415154826,-0.135,0.623,-1.688,250.130,-106.092,-196.000,98.741,-11.737,1.804,335.017,5,5,3.261
1777415154840,-0.009,0.974,-1.861,250.130,-93.840,-180.740,113.229,-8.503,2.100,322.549,5,5,3.272
1777415154853,-0.128,1.363,-1.772,250.130,-110.863,-190.221,121.122,-5.320,2.239,333.226,5,5,3.923
1777415154867,0.196,1.625,-1.680,250.130,-159.885,-158.626,125.128,-5.174,2.346,336.586,5,5,3.273
1777415154881,4.000,-4.000,-4.000,-250.137,111.786,-250.137,54.853,-13.303,6.928,370.990,5,5,3.404
1777415154894,-4.000,0.284,0.984,250.130,-250.137,250.130,44.381,10.724,4.129,433.242,5,5,3.254
1777415154907,0.398,1.191,-0.855,250.130,-250.137,250.130,66.342,3.724,1.519,433.242,5,5,3.245
1777415154921,0.577,0.863,-1.917,142.756,-16.282,249.168,90.498,-1.430,2.180,287.626,5,5,3.928
1777415154935,-0.095,0.148,-0.109,114.649,-18.908,170.527,100.143,6.333,0.207,206.352,5,5,3.257
1777415154948,0.549,0.762,-0.959,-6.702,7.916,11.733,111.317,-1.900,1.342,15.660,5,5,3.259
1777415154961,0.180,0.870,-0.872,-21.855,13.870,3.977,117.728,-3.635,1.245,26.189,5,5,3.265
1777415154975,0.459,0.831,-0.867,-3.275,76.748,56.458,122.722,-8.309,1.286,95.334,5,5,3.254
1777415154988,0.151,0.837,-0.915,-14.237,57.656,49.282,126.729,-7.945,1.249,77.173,5,5,3.926
1777415155002,-0.349,1.001,-1.292,-89.168,64.229,-25.336,130.916,-2.540,1.672,112.775,5,5,3.254
1777415155015,-0.260,-0.331,-0.589,-21.336,-13.183,24.725,54.851,3.840,0.724,35.219,5,5,3.265
1777415155029,-0.705,-0.160,-2.470,38.947,-63.809,163.656,-7.595,7.094,2.574,179.922,5,5,3.252
1777415155042,0.735,1.606,-0.899,-53.237,-18.000,164.481,26.671,-0.704,1.982,173.816,5,5,3.265
1777415155055,0.363,0.841,-0.985,-57.702,36.000,176.107,57.160,-4.746,1.345,188.783,5,5,3.928
1777415155069,0.230,0.476,-0.878,-63.298,52.702,147.046,82.656,-6.974,1.025,168.543,5,5,3.260
1777415155083,0.112,0.486,-0.653,-58.527,32.847,36.580,99.047,-7.207,0.822,76.436,5,5,3.364
1777415155096,0.302,0.531,-0.792,-56.504,43.397,36.359,111.777,-10.007,1.000,79.987,5,5,3.248
1777415155110,0.419,0.323,-1.027,-22.130,45.664,23.412,125.493,-13.047,1.155,55.884,5,5,3.253
1777415155123,0.475,0.082,-1.216,39.847,59.901,30.626,139.182,-15.273,1.308,78.191,1,5,3.922
1777415155137,0.344,-0.085,-1.058,101.878,36.267,-5.252,54.193,-15.998,1.116,108.268,1,5,3.252
1777415155150,0.348,0.019,-0.946,136.878,15.466,-47.237,87.877,-17.136,1.008,145.623,1,5,3.263
1777415155164,0.484,0.187,-0.870,163.855,4.595,-53.702,109.491,-20.217,1.013,172.492,1,5,3.253
1777415155177,0.446,0.298,-0.847,194.427,24.237,-28.061,123.312,-21.887,1.003,197.932,1,5,3.265
1777415155190,0.269,0.341,-0.779,221.603,32.931,-25.344,132.239,-20.717,0.892,225.465,1,5,3.927
1777415155204,0.154,0.233,-0.725,231.046,25.481,-44.122,140.322,-18.199,0.777,236.597,1,5,3.253
1777415155218,0.034,0.198,-0.637,230.496,-4.634,-88.198,146.368,-14.080,0.669,246.838,1,5,3.267
1777415155231,0.088,0.354,-0.663,211.664,-47.313,-124.260,147.855,-12.084,0.757,249.961,1,5,3.258
1777415155245,0.153,0.485,-0.729,205.519,-70.000,-125.473,147.453,-11.504,0.888,250.762,1,5,3.255
1777415155258,0.187,0.412,-0.844,211.641,-87.427,-131.336,149.218,-11.431,0.957,263.979,1,5,3.926
1777415155272,0.278,0.442,-0.904,201.458,-97.870,-132.756,150.490,-12.519,1.044,260.361,1,5,3.260
1777415155285,0.335,0.446,-0.970,192.031,-90.687,-118.359,151.797,-13.848,1.119,243.123,1,5,3.314
1777415155299,0.324,0.384,-0.973,198.931,-87.282,-107.511,153.592,-14.757,1.095,242.385,1,5,3.247
1777415155312,0.261,0.300,-0.988,204.244,-90.779,-90.145,156.159,-14.602,1.065,241.003,1,5,3.256
1777415155325,0.262,0.321,-0.965,200.977,-87.412,-86.282,157.624,-14.563,1.050,235.536,5,5,3.916
1777415155339,0.205,0.267,-1.039,191.137,-81.977,-75.679,159.778,-13.549,1.092,221.317,5,5,3.254
1777415155353,0.177,0.217,-1.134,191.595,-86.260,-87.344,162.315,-12.249,1.168,227.549,5,5,3.268
1777415155366,0.264,0.309,-1.167,179.718,-89.878,-98.611,163.090,-12.273,1.236,223.831,5,5,3.251
1777415155379,0.294,0.393,-1.180,169.962,-81.374,-88.321,162.684,-12.547,1.278,208.109,5,5,3.263
1777415155393,0.276,0.338,-1.207,160.420,-76.069,-80.786,163.134,-12.508,1.283,195.057,5,5,3.927
1777415155407,0.239,0.187,-1.246,165.237,-67.122,-66.198,165.390,-12.028,1.282,190.239,5,5,3.256
1777415155420,0.177,0.116,-1.234,159.534,-75.511,-68.786,167.880,-10.969,1.252,189.433,5,5,3.266
1777415155434,0.182,0.006,-1.280,156.977,-60.840,-64.214,171.081,-10.188,1.292,180.185,5,5,3.254
1777415155447,0.206,-0.004,-1.229,148.672,-47.153,-68.870,76.280,-10.007,1.246,170.499,5,5,3.259
1777415155460,0.198,0.040,-1.226,143.145,-27.786,-54.534,103.798,-9.785,1.242,155.681,1,5,3.950
1777415155474,0.140,-0.048,-1.177,145.214,-27.321,-57.954,27.754,-8.973,1.187,158.720,1,5,3.272
1777415155488,0.220,-0.123,-1.160,147.229,-21.145,-57.023,-26.743,-9.434,1.187,159.296,1,5,3.273
1777415155501,0.246,-0.134,-1.097,142.725,-18.817,-62.679,-66.271,-10.281,1.132,157.014,1,5,3.253
1777415155514,0.296,-0.092,-1.058,137.336,-16.664,-65.634,-95.656,-11.713,1.103,153.123,1,5,3.255
1777415155528,0.445,0.018,-1.091,128.626,2.168,-54.870,-21.439,-14.537,1.178,139.857,1,1,3.916
1777415155542,0.506,0.065,-1.112,115.779,27.191,-37.298,32.075,-17.209,1.223,124.640,1,1,3.251
1777415155555,0.512,0.128,-1.163,99.153,55.275,-22.435,70.339,-18.947,1.277,115.715,1,1,3.269
1777415155568,0.508,0.317,-1.156,72.359,84.939,-6.267,95.816,-20.031,1.302,111.757,1,1,3.249
1777415155582,0.496,0.477,-1.105,37.237,100.023,2.885,112.250,-20.669,1.302,106.768,1,1,3.266
1777415155595,0.492,0.586,-1.069,-7.550,119.313,23.870,122.792,-21.018,1.315,121.911,1,1,3.927
1777415155609,0.427,0.618,-1.020,-63.122,136.031,27.618,129.813,-20.663,1.266,152.484,1,1,3.254
1777415155623,0.353,0.738,-1.088,-116.260,158.260,44.061,134.149,-19.143,1.361,201.255,1,1,3.280
1777415155636,0.342,0.690,-1.113,-153.275,154.023,50.679,137.941,-17.921,1.353,223.125,1,1,3.257
1777415155649,0.447,0.795,-1.104,-187.786,166.229,39.695,139.636,-17.994,1.432,253.912,1,1,3.264
1777415155663,0.555,0.823,-1.170,-250.137,164.290,39.870,141.057,-18.865,1.535,301.910,5,1,3.909
1777415155677,0.699,0.662,-1.374,-250.137,197.779,43.756,144.623,-20.423,1.678,321.869,5,1,3.248
1777415155690,0.451,0.500,-1.505,-250.137,211.611,49.351,149.210,-19.198,1.649,331.336,5,1,3.362
1777415155703,0.488,0.602,-1.318,-250.137,182.008,28.267,150.899,-19.040,1.528,310.636,5,1,3.255
1777415155717,0.699,0.893,-1.250,-250.137,182.756,47.947,149.155,-20.508,1.688,313.476,5,1,3.256
1777415155730,0.555,0.881,-1.223,-250.137,195.901,59.893,147.825,-20.426,1.607,323.316,5,1,3.915
1777415155744,0.438,0.639,-1.372,-250.137,165.305,129.229,149.774,-19.264,1.575,326.488,5,1,3.254
1777415155757,-0.036,0.214,-1.558,-250.137,99.176,56.618,155.828,-13.709,1.573,274.973,5,1,3.260
1777415155771,0.848,-0.161,-1.650,-250.137,56.718,-9.099,66.604,-17.321,1.862,256.648,5,1,3.271
1777415155784,1.184,-0.309,-1.570,-210.313,135.733,29.504,2.987,-22.502,1.990,252.042,5,1,3.257
1777415155798,0.819,0.400,-0.932,-195.382,120.481,-15.611,44.530,-26.934,1.303,230.072,5,5,3.916
1777415155812,0.883,1.260,-0.446,-233.397,162.214,-23.756,62.083,-28.696,1.602,285.222,5,5,3.249
1777415155825,0.591,1.570,-0.644,-250.137,136.626,56.420,75.650,-26.131,1.796,290.549,5,5,3.267
1777415155838,0.093,0.903,-0.763,-250.137,-6.611,-28.855,90.385,-20.290,1.186,251.883,5,5,3.246
1777415155852,1.684,0.829,-1.301,-250.137,33.771,37.160,105.814,-27.645,2.284,255.128,5,5,3.265
1777415155865,1.293,0.796,-1.025,-250.137,148.924,92.924,115.635,-32.302,1.832,305.584,4,5,3.913
1777415155879,0.888,0.896,-0.665,-250.137,162.290,84.130,118.583,-33.979,1.426,309.814,4,5,3.262
1777415155892,0.575,0.986,-0.471,-250.137,180.466,70.992,117.764,-32.300,1.235,316.507,4,5,3.311
1777415155906,0.347,1.144,-0.354,-250.137,142.534,28.618,114.917,-27.943,1.247,289.316,4,5,3.257
1777415155919,0.075,0.886,-0.298,-250.137,82.260,-7.130,113.205,-21.628,0.938,263.413,4,5,3.261
1777415155932,0.225,1.083,-0.331,-250.137,-6.115,-10.489,111.530,-18.815,1.155,250.432,5,5,3.923
1777415155946,0.675,0.782,-0.501,-250.137,5.275,-7.191,114.542,-23.461,1.148,250.296,5,5,3.260
1777415155960,0.614,0.394,-0.451,-250.137,24.985,-41.618,121.109,-29.469,0.858,254.804,5,5,3.307
1777415155973,0.668,0.281,-0.324,-250.137,38.603,-89.656,125.959,-36.985,0.794,268.509,5,5,3.254
1777415155987,0.646,0.548,-0.121,-250.137,38.053,-124.847,119.617,-40.230,0.856,282.141,5,5,3.257
1777415156000,0.660,0.670,0.057,-250.137,29.313,-101.893,110.304,-41.374,0.942,271.680,4,5,3.925
1777415156014,0.681,0.809,0.146,-250.137,29.664,-60.756,102.045,-40.907,1.067,259.114,4,5,3.253
1777415156027,0.459,0.580,0.194,-250.137,0.611,-49.466,93.789,-39.816,0.765,254.982,4,5,3.257
1777415156041,0.606,0.485,0.148,-241.008,-11.000,-59.534,88.165,-42.592,0.790,248.495,4,5,3.247
1777415156054,0.768,0.380,0.125,-220.405,2.191,-63.809,83.731,-47.963,0.866,229.466,4,5,3.265
1777415156067,0.694,0.343,0.222,-198.000,7.473,-78.855,76.525,-51.075,0.805,213.256,1,5,3.921
1777415156081,1.877,-0.300,-0.495,-176.328,37.840,-95.855,15.646,-56.961,1.964,204.234,1,5,3.256
1777415156095,-0.237,0.491,0.805,-83.847,64.420,-38.412,19.901,-37.769,0.973,112.498,1,5,3.263
1777415156108,0.909,0.897,0.454,-143.573,-30.916,-95.130,31.585,-38.939,1.356,174.982,1,5,3.254
1777415156121,0.831,0.681,0.419,-122.977,52.580,-19.427,38.826,-40.874,1.153,135.150,1,5,3.257
1777415156135,0.463,0.428,0.410,-117.359,9.130,-46.023,40.828,-40.100,0.752,126.390,1,5,3.920
1777415156149,0.667,0.450,0.401,-97.588,10.695,-39.588,42.838,-42.214,0.899,105.853,1,5,3.264
1777415156162,0.768,0.572,0.410,-83.519,12.534,-30.099,45.962,-43.642,1.042,89.658,1,5,3.260
1777415156175,0.795,0.631,0.456,-76.405,25.863,-9.977,48.176,-44.170,1.113,81.278,1,5,3.273
1777415156189,0.652,0.688,0.518,-71.695,13.336,-13.779,49.489,-42.267,1.080,74.215,1,5,3.251
1777415156202,0.615,0.600,0.511,-66.779,2.328,-18.351,49.508,-41.108,1.000,69.293,1,5,3.919
1777415156216,0.704,0.592,0.462,-58.252,-0.763,-11.481,50.181,-41.655,1.029,59.377,1,5,3.246
1777415156229,0.672,0.458,0.458,-43.588,1.458,-13.298,48.785,-42.840,0.933,45.594,1,5,3.256
1777415156243,0.717,0.415,0.363,-25.863,8.977,-18.099,48.800,-45.426,0.904,32.818,1,5,3.259
1777415156256,0.723,0.496,0.427,-6.573,5.664,-19.885,48.917,-46.076,0.975,21.696,1,5,3.269
1777415156269,0.701,0.631,0.455,1.595,16.160,-15.229,50.345,-44.978,1.048,22.263,1,1,3.924
1777415156284,0.762,0.874,0.505,-4.519,24.550,-12.718,52.943,-42.832,1.265,28.015,1,1,3.254
1777415156297,0.572,0.857,0.562,-12.160,27.603,-1.962,53.974,-39.144,1.173,30.227,1,1,3.262
1777415156310,0.245,0.498,0.516,-6.130,16.527,8.420,51.262,-33.658,0.758,19.535,1,1,3.255
1777415156324,0.273,0.419,0.426,-11.420,-32.015,-27.588,49.441,-31.205,0.657,43.778,1,1,3.255
1777415156337,0.497,0.472,0.395,-0.053,-35.695,-37.878,49.611,-33.292,0.791,52.047,5,1,3.927
1777415156351,0.550,0.462,0.353,9.076,-27.061,-29.099,50.435,-36.020,0.800,40.761,5,1,3.262
1777415156364,0.397,0.496,0.397,11.840,-47.580,-38.817,50.677,-34.933,0.750,62.536,5,1,3.257
1777415156378,0.218,0.484,0.361,15.756,-118.939,-60.794,51.378,-30.857,0.642,134.501,5,1,3.255
1777415156391,0.777,0.616,0.127,12.580,-93.252,-24.412,58.661,-36.295,1.000,97.212,5,1,3.274
1777415156405,0.362,0.270,0.211,37.038,-101.710,-17.267,56.871,-39.082,0.499,109.612,5,1,3.934
1777415156419,0.590,0.151,0.039,53.542,-112.695,-37.603,61.953,-48.839,0.611,130.310,5,1,3.251
1777415156432,0.581,0.011,-0.045,89.298,-70.450,-25.786,90.211,-58.730,0.582,116.629,5,1,3.257
1777415156445,0.313,-0.321,-0.084,133.649,-62.710,-54.359,37.551,-54.584,0.456,157.320,5,1,3.257
1777415156459,-0.015,-0.756,-0.272,224.336,-77.084,-75.931,-2.255,-39.542,0.803,249.066,5,1,3.266
1777415156472,-0.332,-1.047,-0.552,250.130,-147.824,-117.901,-33.471,-24.627,1.230,313.556,5,1,3.923
1777415156486,-0.278,-0.798,-1.036,250.130,-188.626,-190.771,-62.891,-14.734,1.337,366.795,5,1,3.258
1777415156499,-0.352,-0.619,-1.656,250.130,-191.008,-250.137,-88.989,-7.712,1.802,402.017,5,1,3.258
1777415156513,-0.446,-0.442,-2.624,250.130,-199.344,-250.137,-110.991,-3.059,2.698,406.044,5,1,3.257
1777415156526,-0.344,0.523,-3.013,250.130,-178.053,-250.137,-35.038,-0.497,3.077,396.026,5,1,3.262
1777415156539,-0.246,1.141,-2.783,250.130,-111.641,-250.137,17.035,0.901,3.018,370.941,5,1,3.912
1777415156554,-0.677,0.626,-2.728,250.130,-59.740,-250.137,57.569,4.331,2.879,358.751,5,1,3.262
1777415156567,-0.029,1.623,-3.020,250.130,16.298,-250.137,83.010,3.293,3.429,354.118,5,1,3.262
1777415156580,-0.170,1.921,-2.397,250.130,104.008,-250.137,98.756,3.261,3.077,368.716,5,1,3.248
1777415156594,-0.067,2.491,-1.831,250.130,53.229,-207.962,106.204,2.716,3.092,329.615,5,1,3.262
1777415156607,0.272,2.759,-1.362,250.130,42.282,-68.427,108.926,0.619,3.089,262.745,5,5,3.919
1777415156621,0.232,2.702,-1.143,250.130,53.656,-15.328,110.008,-0.772,2.943,256.279,5,5,3.257
1777415156634,0.284,2.697,-0.906,121.015,-33.542,-16.702,109.619,-2.106,2.860,126.684,5,5,3.247
1777415156648,0.022,1.786,-0.945,124.260,-12.290,55.130,111.852,-1.705,2.021,136.495,5,5,3.255
1777415156661,-0.581,0.582,-1.001,81.634,-105.344,-34.473,122.119,5.957,1.296,137.658,5,5,3.263
1777415156674,-0.206,-0.486,-1.139,91.519,-87.206,-84.802,46.745,6.897,1.255,152.223,5,5,3.922
1777415156688,-0.024,-1.132,-1.341,122.595,0.130,-65.008,-3.663,5.247,1.755,138.765,5,5,3.262
1777415156702,-0.272,-0.851,-1.246,151.885,-7.908,-93.435,-42.027,6.589,1.534,178.499,5,5,3.250
1777415156715,0.068,-0.052,-1.240,180.107,-11.954,-76.542,-78.653,3.963,1.242,196.061,5,5,3.260
1777415156728,0.181,0.499,-1.191,173.191,-0.160,-40.748,-14.922,0.732,1.304,177.920,5,5,3.253
1777415156742,0.441,0.686,-1.254,162.053,9.206,-54.969,29.991,-4.094,1.496,171.370,1,5,3.925
1777415156756,0.411,0.389,-1.287,162.931,30.122,-2.565,65.976,-7.580,1.405,165.712,1,5,3.272
1777415156769,0.176,0.069,-1.179,155.489,39.168,-5.389,95.878,-7.815,1.194,160.436,1,5,3.261
1777415156782,0.036,-0.100,-1.112,155.885,56.573,-22.496,22.731,-6.198,1.117,167.352,1,5,3.253
1777415156796,-0.169,-0.076,-0.912,144.725,42.221,-33.534,-30.752,-1.693,0.930,154.443,1,5,3.256
1777415156809,-0.229,-0.038,-0.810,141.565,12.137,-45.794,-70.340,3.020,0.843,149.282,1,5,3.919
1777415156823,-0.148,0.056,-0.862,137.344,-7.427,-61.603,-3.708,4.836,0.876,150.709,1,5,3.267
1777415156837,0.028,0.019,-0.966,136.000,-16.443,-53.824,45.621,3.083,0.966,147.185,1,5,3.248
1777415156850,0.066,-0.066,-1.038,133.595,-26.198,-57.244,-14.344,1.267,1.043,147.685,1,5,3.266
1777415156863,0.203,-0.125,-1.124,138.046,-15.015,-37.344,-57.389,-1.826,1.149,143.794,1,5,3.253
1777415156877,0.162,-0.175,-1.160,138.015,-6.992,-44.954,-88.202,-3.461,1.184,145.320,1,5,3.944
1777415156891,0.153,-0.195,-1.166,135.580,-6.076,-30.916,-110.433,-4.519,1.192,139.193,1,5,3.262
1777415156904,0.074,-0.135,-1.171,131.328,-10.305,-31.511,-127.447,-4.271,1.181,135.448,1,5,3.267
1777415156917,0.124,-0.087,-1.224,122.344,-7.237,-29.405,-140.548,-4.679,1.233,126.035,1,5,3.252
1777415156931,0.076,-0.048,-1.212,108.351,-6.542,-26.405,-150.589,-4.386,1.215,111.714,1,5,3.257
1777415156944,0.046,-0.029,-1.154,93.779,-2.847,-26.718,-158.145,-3.813,1.155,97.552,1,5,3.918
1777415156958,0.090,-0.140,-1.195,80.534,2.000,-19.947,-162.248,-3.943,1.206,82.992,1,5,3.277
1777415156971,0.131,-0.160,-1.152,66.565,0.473,-19.771,-164.902,-4.609,1.170,69.441,1,5,3.254
1777415156985,0.179,-0.184,-1.055,62.954,10.168,-20.550,-166.311,-5.926,1.086,66.999,1,5,3.266
1777415156998,0.275,-0.266,-1.099,52.832,15.237,-9.435,-166.331,-8.018,1.163,55.789,1,5,3.259
1777415157011,0.254,-0.340,-1.030,48.176,20.695,-10.153,-165.092,-9.413,1.113,53.406,1,1,3.931
1777415157025,0.340,-0.355,-1.005,44.099,44.221,-1.053,-163.857,-11.644,1.119,62.461,1,1,3.258
1777415157039,0.254,-0.566,-1.035,43.328,49.977,2.725,-160.475,-11.784,1.206,66.200,1,1,3.254
1777415157052,0.246,-0.418,-0.950,38.084,55.031,-11.450,-159.340,-12.199,1.067,67.896,1,1,3.260
1777415157065,0.319,-0.359,-0.986,37.389,77.878,-6.496,-159.520,-13.478,1.096,86.632,1,1,3.259
1777415157079,0.331,-0.344,-1.017,28.511,82.992,-9.870,-160.009,-14.466,1.123,88.307,1,1,3.923
1777415157093,0.343,-0.135,-0.993,16.405,101.916,0.527,-163.311,-15.660,1.060,103.229,1,1,3.270
1777415157106,0.423,-0.040,-1.048,-6.260,106.092,6.344,-167.225,-17.361,1.131,106.465,1,1,3.253
1777415157120,0.451,0.122,-1.032,-37.977,110.031,14.832,-75.239,-19.015,1.133,117.341,1,1,3.263
1777415157133,0.455,0.094,-1.073,-72.076,121.038,13.458,-7.630,-20.067,1.169,141.515,1,1,3.253
1777415157146,0.389,0.111,-1.097,-105.344,121.763,4.160,41.504,-19.898,1.169,161.062,1,1,3.910
1777415157160,0.638,0.191,-1.195,-137.282,132.229,9.107,76.461,-22.033,1.368,190.824,1,1,3.267
1777415157174,0.634,0.521,-1.144,-180.710,147.191,17.473,97.810,-23.310,1.408,233.723,1,1,3.255
1777415157187,0.759,0.498,-1.335,-235.099,175.069,14.244,114.484,-24.586,1.614,293.468,1,1,3.257
1777415157200,0.457,0.373,-1.331,-250.137,188.809,5.771,127.958,-22.885,1.456,313.450,1,1,3.247
1777415157214,0.793,0.408,-1.512,-250.137,185.603,-5.015,137.934,-23.960,1.756,311.516,5,1,3.916
1777415157228,0.719,0.557,-1.409,-250.137,214.962,18.015,143.475,-24.343,1.677,330.306,5,1,3.259
1777415157241,0.553,0.718,-1.304,-250.137,205.382,7.107,145.553,-23.271,1.588,323.730,5,1,3.254
1777415157254,0.702,0.878,-1.340,-250.137,220.168,-0.336,145.879,-23.376,1.749,333.231,5,1,3.259
1777415157268,0.740,0.931,-1.402,-250.137,232.718,19.725,146.025,-23.470,1.838,342.221,5,1,3.261
1777415157281,0.486,0.650,-1.543,-250.137,243.298,64.580,149.036,-21.501,1.743,354.871,5,1,3.901
1777415157295,0.213,0.409,-1.285,-250.137,166.366,-34.847,152.634,-18.112,1.366,302.425,5,1,3.265
1777415157308,0.734,0.197,-1.368,-250.137,147.473,-67.344,157.819,-20.771,1.565,298.081,5,1,3.253
1777415157322,1.037,0.575,-1.121,-250.137,163.779,-67.443,156.468,-25.821,1.632,306.497,5,1,3.258
1777415157335,0.857,0.921,-0.806,-250.137,175.275,-73.412,149.641,-28.305,1.494,314.133,5,1,3.252
1777415157348,0.782,1.186,-0.769,-250.137,133.748,-101.977,142.435,-28.477,1.615,301.424,5,1,3.909
1777415157362,0.850,0.826,-0.898,-250.137,121.374,-54.679,141.077,-30.201,1.487,283.355,5,1,3.268
1777415157376,0.579,0.610,-0.732,-250.137,81.916,-25.611,140.840,-30.490,1.115,264.452,5,1,3.251
1777415157389,0.587,0.357,-0.730,-250.137,35.443,-34.183,144.384,-31.937,1.002,254.938,5,1,3.262
1777415157402,0.931,0.021,-0.739,-250.137,38.405,-69.061,153.556,-37.240,1.189,262.322,5,1,3.254
1777415157416,0.895,0.248,-0.446,-250.137,71.168,-91.802,152.838,-43.468,1.030,275.792,4,1,3.912
1777415157430,0.642,0.627,-0.127,-250.137,55.328,-137.718,138.946,-43.903,0.906,290.854,4,1,3.262
1777415157443,0.813,0.944,-0.076,-250.137,54.252,-133.351,126.962,-43.031,1.248,288.608,4,1,3.255
1777415157457,0.458,0.725,-0.039,-247.580,44.191,-83.924,117.800,-40.117,0.858,265.126,4,1,3.251
1777415157470,0.248,0.785,0.079,-228.107,-38.260,-113.412,108.731,-33.996,0.828,257.602,4,1,3.258
1777415157483,0.719,0.734,-0.046,-215.763,-23.130,-82.756,104.638,-36.798,1.028,232.244,5,1,3.906
1777415157497,0.649,0.691,0.017,-210.160,-3.924,-75.229,100.295,-38.518,0.948,223.254,5,1,3.263
1777415157511,0.690,0.738,0.045,-205.084,11.489,-61.160,96.573,-39.728,1.011,214.318,5,1,3.256
1777415157524,0.715,0.851,0.186,-218.237,24.069,-75.420,91.460,-39.638,1.127,232.152,5,1,3.264
1777415157537,0.644,0.806,0.226,-219.931,42.985,-64.656,86.832,-39.075,1.056,233.234,5,1,3.270
1777415157551,0.454,0.657,0.277,-211.252,35.008,-64.122,81.520,-37.291,0.845,223.528,1,1,3.909
1777415157565,0.329,0.558,0.345,-174.290,11.603,-39.847,75.236,-34.412,0.734,179.163,1,1,3.255
1777415157578,0.324,0.606,0.409,-155.924,-24.420,-49.588,70.024,-31.572,0.800,165.431,1,1,3.263
1777415157592,0.494,0.648,0.372,-134.550,-36.099,-31.595,67.351,-32.087,0.896,142.846,1,1,3.264
1777415157605,0.555,0.896,0.446,-127.908,-40.466,-27.947,66.318,-31.256,1.145,137.037,1,1,3.259
1777415157618,0.649,1.079,0.505,-132.076,-40.328,-18.580,65.939,-30.532,1.356,139.340,1,1,3.922
1777415157632,0.646,1.045,0.538,-148.702,-27.290,-10.252,65.084,-30.059,1.341,151.533,1,1,3.255
1777415157646,0.496,0.781,0.471,-147.947,-33.519,-11.000,63.416,-29.653,1.038,152.094,1,1,3.247
1777415157659,0.626,0.664,0.424,-133.824,-35.382,-0.435,61.797,-32.036,1.007,138.423,1,1,3.258
1777415157672,0.550,0.659,0.494,-122.328,-38.038,2.344,59.453,-32.491,0.990,128.127,1,1,3.254
1777415157686,0.541,0.725,0.467,-108.893,-42.687,8.221,58.839,-32.390,1.018,117.250,5,5,3.925
1777415157700,0.630,0.879,0.553,-113.031,-34.992,14.267,58.563,-32.081,1.215,119.180,5,5,3.260
1777415157713,1.018,0.400,0.126,-126.481,-64.244,-27.779,62.343,-41.679,1.101,144.556,5,5,3.259
1777415157726,0.781,0.799,0.377,-79.015,35.992,67.847,62.998,-41.623,1.179,110.191,5,5,3.262
1777415157740,0.184,0.639,0.651,-98.802,-57.947,-3.176,57.995,-33.459,0.931,114.585,5,5,3.256
1777415157753,0.805,0.674,0.398,-86.908,-28.366,34.634,58.380,-36.799,1.123,97.761,1,5,3.927
1777415157767,0.469,0.453,0.411,-77.420,-36.397,25.275,55.508,-36.977,0.770,89.204,1,5,3.269
1777415157780,0.509,0.475,0.427,-65.565,-42.389,27.237,53.494,-37.398,0.817,82.689,1,5,3.256
1777415157794,0.495,0.558,0.455,-52.176,-56.924,43.481,52.757,-36.624,0.874,88.618,1,5,3.266
1777415157807,0.566,0.645,0.459,-49.450,-65.908,54.382,53.239,-36.334,0.973,98.725,1,5,3.256
1777415157820,0.642,0.603,0.417,-57.282,-50.550,56.580,53.814,-37.654,0.974,95.068,5,5,3.931
1777415157835,0.467,0.482,0.471,-51.519,-56.122,57.466,51.611,-36.859,0.819,95.426,5,5,3.257
1777415157848,0.630,0.416,0.407,-48.618,-60.771,36.008,49.990,-39.660,0.858,85.752,5,5,3.252
1777415157861,0.753,0.363,0.371,-35.832,-33.664,43.122,48.462,-43.926,0.915,65.397,5,5,3.254
1777415157875,0.670,0.354,0.414,-24.313,-27.115,32.870,46.323,-45.818,0.864,49.059,5,5,3.261
1777415157888,0.673,0.375,0.403,-13.924,-19.969,30.405,45.397,-47.144,0.869,38.950,5,5,3.916
1777415157902,0.749,0.448,0.388,-8.878,-10.718,29.206,46.409,-48.363,0.955,32.352,5,5,3.265
1777415157915,0.631,0.456,0.405,-7.443,-2.099,25.542,46.953,-47.718,0.878,26.687,5,5,3.260
1777415157929,0.625,0.291,0.389,-0.824,-2.336,13.313,44.203,-48.906,0.792,13.541,5,5,3.268
1777415157942,0.604,0.263,0.420,11.656,2.779,1.794,40.933,-49.373,0.782,12.117,5,5,3.254
1777415157955,0.644,0.360,0.373,22.069,19.420,-0.962,41.759,-49.865,0.827,29.412,5,5,3.916
1777415157969,0.536,0.249,0.396,31.321,10.718,-15.489,39.155,-49.601,0.712,36.548,5,5,3.269
1777415157983,0.618,0.203,0.324,34.191,10.336,-37.962,37.235,-51.930,0.727,52.124,5,5,3.260
1777415157996,0.677,0.188,0.253,53.939,28.130,-39.550,37.065,-55.461,0.747,72.559,5,5,3.265
1777415158009,0.678,0.278,0.247,73.496,30.023,-35.069,40.136,-57.027,0.774,86.792,5,5,3.263
1777415158023,0.736,0.103,0.108,107.672,56.863,-32.893,41.056,-62.840,0.751,126.129,5,5,3.924
1777415158037,0.858,0.122,0.016,133.031,86.275,-0.992,52.312,-67.968,0.867,158.561,5,5,3.259
1777415158050,0.440,-0.073,0.176,184.107,71.603,-6.420,32.113,-67.599,0.480,197.645,5,5,3.247
1777415158063,0.545,-0.181,-0.001,226.733,68.237,-10.916,-0.939,-68.687,0.574,237.030,5,5,3.260
1777415158077,0.220,-0.085,-0.014,250.130,52.084,-26.435,-27.456,-68.643,0.236,256.859,5,5,3.261
1777415158090,-0.073,-0.077,-0.187,250.130,23.298,-53.611,-62.627,-44.769,0.215,256.869,5,5,3.924
1777415158104,-0.514,-0.134,-0.292,250.130,-68.137,-86.221,-87.681,-16.995,0.606,273.206,5,5,3.262
1777415158118,-0.191,-0.148,-0.795,250.130,-154.046,-161.496,-109.777,-8.809,0.831,335.225,5,5,3.262
1777415158131,-0.627,0.432,-0.946,250.130,-250.137,-106.557,-38.127,1.970,1.214,369.443,5,5,3.265
1777415158144,0.319,0.389,-1.587,250.130,-250.137,-144.084,17.080,-1.550,1.665,381.960,5,5,3.252
1777415158158,0.354,0.724,-1.787,250.130,-250.137,-196.076,55.138,-3.945,1.961,404.450,5,5,3.908
1777415158172,0.797,1.593,-1.511,250.130,-178.656,-203.748,76.304,-8.271,2.336,368.777,5,5,3.280
1777415158185,0.723,1.813,-1.149,250.130,-84.634,-177.008,88.747,-11.064,2.265,317.898,5,5,3.259
1777415158198,0.596,1.990,-0.717,250.130,-83.053,-144.809,94.435,-12.328,2.198,300.720,5,5,3.270
1777415158212,0.678,2.969,-0.202,199.519,-52.099,-94.763,94.290,-12.467,3.052,226.941,5,5,3.262
1777415158225,0.378,2.534,-0.126,76.336,-72.496,-60.519,93.903,-11.390,2.565,121.431,5,5,3.924
1777415158239,0.389,1.649,-0.384,11.443,-111.756,-8.260,96.393,-11.812,1.737,112.643,5,5,3.271
1777415158252,0.542,0.812,-0.712,14.107,-90.947,7.214,105.806,-15.815,1.208,92.316,5,5,3.250
1777415158266,0.209,0.397,-0.751,28.069,-114.618,-32.427,118.317,-15.277,0.875,122.380,5,5,3.273
1777415158279,0.512,0.454,-0.799,33.389,-74.702,-38.427,126.978,-19.015,1.052,90.399,5,5,3.258
1777415158292,-1.988,-4.000,-4.000,-98.397,-0.252,198.504,56.203,-8.648,5.996,221.553,5,5,3.934
1777415158307,2.229,0.614,-1.206,-38.511,-69.603,-38.687,82.360,-22.177,2.608,88.456,5,5,3.262
1777415158320,-0.432,0.005,-0.695,87.076,-68.832,-99.511,108.635,-7.583,0.819,149.073,5,5,3.260
1777415158333,0.952,0.562,-1.090,97.901,-7.275,-7.504,120.549,-15.751,1.552,98.457,5,5,3.258
1777415158347,0.463,0.847,-0.724,89.237,-37.053,-37.802,123.243,-17.594,1.207,103.755,5,5,3.249
1777415158360,0.973,1.715,-0.682,45.901,28.924,18.977,120.123,-20.352,2.087,57.477,5,5,3.918
1777415158374,0.571,1.732,-0.597,-12.344,73.221,75.687,117.123,-19.533,1.919,106.030,5,5,3.264
1777415158387,0.173,1.427,-0.591,-49.924,46.733,115.389,115.870,-15.979,1.555,134.131,5,5,3.259
1777415158401,-0.014,0.682,-0.699,-26.893,2.817,90.885,121.224,-11.434,0.977,94.823,5,5,3.265
1777415158414,0.166,0.512,-0.744,-6.260,-9.550,52.779,127.770,-11.149,0.919,54.000,5,5,3.260
1777415158427,0.242,0.625,-0.671,6.595,-8.321,24.588,130.268,-12.136,0.949,26.782,1,5,3.927
1777415158441,0.205,0.699,-0.618,20.313,-21.534,-3.160,130.592,-12.203,0.955,29.771,1,5,3.258
1777415158455,0.312,0.779,-0.614,32.290,-38.618,-6.916,129.962,-13.618,1.039,50.812,1,5,3.252
1777415158468,0.435,0.817,-0.621,39.824,-46.550,3.954,129.220,-16.140,1.114,61.388,1,5,3.268
1777415158481,1.147,-0.147,-0.656,-176.351,250.130,250.130,49.101,-27.893,1.330,395.259,1,5,3.260
1777415158495,-0.302,-0.796,-0.663,-73.115,242.763,250.130,0.778,-15.974,1.079,356.153,1,5,3.924
1777415158509,1.317,0.416,-0.704,-79.191,214.359,250.130,40.945,-27.372,1.550,338.801,1,5,3.266
1777415158522,0.981,0.654,-0.599,-109.550,164.443,200.397,65.674,-32.916,1.323,281.428,1,5,3.255
1777415158535,0.645,0.754,-0.215,-44.153,75.031,38.771,76.543,-34.683,1.015,95.301,1,5,3.262
1777415158549,0.661,0.755,-0.229,-34.015,-22.389,-54.099,84.735,-36.103,1.029,67.713,1,5,3.253
1777415158562,1.033,0.624,-0.125,-22.107,-59.916,-213.718,89.213,-42.120,1.213,223.056,1,5,4.043
1777415158576,-0.063,1.405,0.277,-173.389,-250.137,-250.137,86.411,-30.060,1.433,393.956,1,5,3.267
1777415158590,3.556,2.318,-1.008,-216.672,37.046,46.397,93.728,-36.689,4.363,224.659,1,5,3.259
1777415158603,0.655,1.077,-0.395,-250.137,38.534,-2.519,98.161,-34.805,1.321,253.101,1,5,3.271
1777415158616,1.002,1.104,-0.549,-250.137,152.267,58.901,103.102,-35.969,1.589,298.703,1,5,3.260
1777415158630,0.500,0.833,-0.387,-250.137,143.122,18.328,106.294,-33.958,1.046,288.771,5,5,3.939
1777415158644,0.692,0.991,-0.212,-250.137,161.863,40.954,105.153,-34.057,1.227,300.742,5,5,3.257
1777415158657,0.597,1.056,-0.138,-250.137,176.901,43.718,103.069,-32.766,1.221,309.473,5,5,3.250
1777415158671,0.567,1.131,-0.042,-250.137,174.206,66.962,100.110,-31.108,1.266,312.090,5,5,3.265
1777415158684,0.572,1.184,-0.005,-250.137,153.656,76.939,97.439,-29.670,1.314,303.478,5,5,3.262
1777415158697,0.334,0.909,0.143,-250.137,112.550,63.756,93.022,-27.042,0.979,281.604,5,5,3.938
1777415158711,0.440,0.777,0.207,-250.137,93.733,31.885,88.178,-27.485,0.916,269.019,5,5,3.267
1777415158725,0.594,0.660,0.261,-250.137,92.260,-4.702,82.849,-30.840,0.926,266.651,5,5,3.255
1777415158738,0.721,0.679,0.325,-242.687,116.366,-2.321,77.863,-34.332,1.043,269.153,5,5,3.258
1777415158751,0.474,0.648,0.418,-231.649,118.229,-13.504,72.272,-33.591,0.906,260.426,5,5,3.252
1777415158765,0.480,0.592,0.513,-211.763,93.649,-17.893,66.014,-33.027,0.919,232.237,5,5,3.940
1777415158779,0.415,0.792,0.601,-219.565,55.405,-29.908,62.453,-30.221,1.078,228.414,5,5,3.270
1777415158792,0.432,0.645,0.594,-202.176,53.023,-24.969,58.378,-29.142,0.977,210.499,5,5,3.258
1777415158806,0.495,0.521,0.511,-179.038,44.214,-19.061,54.910,-30.488,0.882,185.399,5,5,3.263
1777415158819,0.399,0.459,0.561,-154.611,40.374,-31.153,50.704,-30.039,0.827,162.804,5,5,3.259
1777415158832,0.350,0.405,0.593,-127.206,38.992,-44.008,46.273,-28.939,0.798,140.137,1,5,4.041
1777415158846,0.474,0.672,0.672,-116.985,29.527,-38.901,45.935,-28.280,1.062,126.770,1,5,3.254
1777415158860,0.324,0.533,0.629,-96.061,47.237,-17.229,44.403,-26.433,0.885,108.424,1,5,3.250
1777415158873,0.011,0.559,0.639,-98.901,29.641,-16.885,43.531,-19.488,0.849,104.619,1,5,3.266
1777415158886,0.335,0.371,0.596,-85.603,19.626,-16.435,40.395,-21.111,0.778,89.349,1,5,3.261
1777415158900,0.357,0.146,0.515,-36.122,19.969,-37.244,33.768,-24.499,0.644,55.594,1,1,4.009
1777415158914,0.546,0.290,0.525,-75.962,57.519,-2.748,32.456,-29.309,0.811,95.322,1,1,3.256
1777415158927,0.243,0.461,0.659,-76.863,37.641,-4.504,33.140,-25.939,0.840,85.703,1,1,3.258
1777415158941,0.150,0.592,0.667,-78.176,23.924,-2.260,35.418,-21.512,0.905,81.785,1,1,3.256
1777415158954,0.334,0.589,0.646,-80.786,18.328,-1.069,37.297,-21.350,0.936,82.846,1,1,3.255
1777415158967,0.416,0.441,0.603,-68.969,16.321,-17.534,36.995,-23.444,0.854,73.011,1,1,4.031
1777415158981,0.535,0.497,0.652,-67.550,29.053,12.679,37.081,-26.061,0.978,74.618,1,1,3.256
1777415158995,0.398,0.452,0.671,-59.458,20.832,17.435,36.233,-26.098,0.902,65.370,1,1,3.258
1777415159008,0.461,0.483,0.664,-60.504,18.290,24.710,36.183,-26.973,0.942,67.866,1,1,3.263
1777415159021,0.458,0.373,0.636,-58.550,18.069,29.031,34.624,-28.296,0.868,67.803,1,1,3.266
1777415159035,0.471,0.383,0.652,-49.412,19.450,43.534,33.495,-29.279,0.891,68.667,5,1,4.112
1777415159049,0.434,0.408,0.685,-51.374,13.420,35.504,32.756,-29.083,0.908,63.874,5,1,3.254
1777415159062,0.402,0.377,0.702,-52.634,10.122,33.794,31.539,-28.456,0.893,63.362,5,1,3.253
1777415159076,0.402,0.323,0.678,-50.870,8.481,38.321,29.905,-28.373,0.852,64.251,5,1,3.253
1777415159089,0.310,0.306,0.719,-44.321,-5.366,43.458,28.055,-26.556,0.840,62.303,5,1,3.263
1777415159102,0.355,0.268,0.695,-40.336,-8.405,43.344,26.173,-26.261,0.825,59.802,5,5,3.931
1777415159116,0.372,0.156,0.658,-33.405,-9.496,35.389,22.700,-26.949,0.772,49.583,5,5,3.253
1777415159130,0.333,0.098,0.654,-23.237,-11.679,29.489,18.875,-26.888,0.740,39.318,5,5,3.258
1777415159143,0.344,0.161,0.653,-12.794,-23.733,24.260,17.517,-26.947,0.755,36.269,5,5,3.263
1777415159156,0.339,0.151,0.632,-4.916,-25.481,22.145,16.413,-27.105,0.733,34.115,5,5,3.250
1777415159170,0.323,0.058,0.608,6.397,-36.145,20.466,13.460,-27.317,0.691,42.027,5,5,3.938
1777415159184,0.399,0.036,0.571,23.649,-37.954,20.076,10.796,-29.372,0.697,49.019,5,5,3.257
1777415159197,0.406,-0.045,0.530,44.840,-40.069,28.344,6.571,-31.529,0.669,66.479,5,5,3.265
1777415159211,0.417,-0.189,0.472,76.565,-45.290,29.725,-1.100,-33.636,0.657,93.792,5,5,3.255
1777415159224,0.531,-0.275,0.314,117.115,-41.649,21.305,-11.936,-38.547,0.676,126.112,5,5,3.265
1777415159237,0.299,-0.586,0.230,186.450,-40.176,13.954,-27.230,-34.994,0.697,191.239,5,5,3.987
1777415159251,0.143,-0.743,0.102,250.130,-77.000,-36.618,-42.086,-28.457,0.764,264.263,5,5,3.248
1777415159265,-0.152,-0.837,0.013,250.130,-181.702,-117.153,-54.786,-17.988,0.851,330.614,5,5,3.259
1777415159278,0.448,-0.646,-0.532,250.130,-118.160,-72.137,-74.964,-20.737,0.950,285.886,5,5,3.264
1777415159291,-0.316,-0.471,-0.864,250.130,-154.595,-61.603,-95.608,-10.331,1.034,300.432,5,5,3.258
1777415159305,-0.430,-0.050,-1.340,250.130,-250.137,-165.229,-117.830,-2.733,1.409,390.428,5,5,3.914
1777415159319,-0.179,0.334,-2.063,250.130,-238.504,-228.695,-39.853,-0.673,2.097,414.428,5,5,3.253
1777415159332,-0.072,0.835,-2.428,250.130,-209.733,-250.137,14.414,-0.057,2.569,411.244,5,5,3.265
1777415159345,0.180,1.999,-2.010,250.130,-174.985,-250.137,47.034,-1.025,2.840,394.656,5,5,3.260
1777415159359,-0.433,2.083,-1.805,250.130,-146.084,-250.137,69.696,1.666,2.790,382.719,5,5,3.250
1777415159372,0.680,2.850,-1.877,250.130,-65.634,-143.473,84.197,-1.827,3.480,295.732,5,5,3.915
1777415159386,0.337,2.972,-1.052,250.130,-12.588,-43.366,91.030,-2.980,3.170,254.173,5,5,3.262
1777415159399,0.184,3.106,-0.387,250.130,-69.580,-12.130,92.672,-3.086,3.136,259.910,5,5,3.261
1777415159413,0.350,2.680,-0.470,240.466,-75.771,42.878,94.638,-4.230,2.744,255.741,5,5,3.258
1777415159426,0.243,1.888,-0.542,166.229,-108.061,29.053,97.717,-4.992,1.979,200.383,5,5,3.260
1777415159440,0.055,1.339,-0.629,128.000,-125.855,33.122,102.425,-4.215,1.481,182.539,5,5,3.937
1777415159454,-0.100,0.787,-0.675,115.802,-167.183,10.794,110.041,-1.593,1.041,203.658,5,5,3.253
1777415159467,0.127,0.276,-0.868,122.473,-139.496,-3.466,124.177,-3.307,0.920,185.663,5,5,3.258
1777415159480,0.017,0.264,-0.921,119.076,-136.366,-58.382,134.942,-2.689,0.958,190.219,5,5,3.252
1777415159494,0.097,0.275,-1.080,130.947,-120.679,-73.656,143.259,-3.310,1.118,192.706,5,5,3.256
1777415159507,0.231,0.400,-1.130,149.611,-102.885,-72.382,147.918,-5.369,1.220,195.468,5,5,3.915
1777415159521,0.233,0.430,-1.188,168.145,-99.046,-62.641,151.209,-6.738,1.284,204.955,5,5,3.261
1777415159534,0.294,0.508,-1.101,171.824,-78.298,-57.786,152.294,-8.605,1.248,197.468,5,5,3.257
1777415159548,0.289,0.562,-1.143,169.107,-55.038,-51.580,152.703,-9.732,1.306,185.167,5,5,3.260
1777415159561,0.254,0.651,-1.087,165.420,-48.420,-46.351,151.723,-10.164,1.292,178.484,5,5,3.250
1777415159574,0.251,0.798,-0.997,149.122,-30.908,-35.870,148.910,-10.427,1.302,156.459,1,5,3.923
1777415159588,0.221,0.948,-0.981,117.328,-11.603,-20.786,145.415,-10.100,1.383,119.719,1,5,3.261
1777415159602,0.154,0.879,-1.037,91.718,0.420,-14.435,143.874,-9.118,1.368,92.848,1,5,3.265
1777415159615,0.063,0.777,-1.024,73.947,9.908,-6.466,143.584,-7.418,1.287,74.887,1,5,3.256
1777415159628,-0.022,0.661,-0.999,54.893,3.229,-4.878,144.370,-5.130,1.198,55.204,1,5,3.262
1777415159642,-0.065,0.582,-1.036,34.695,5.893,-6.573,146.069,-2.899,1.190,35.800,1,5,3.947
1777415159656,-0.093,0.495,-1.011,17.168,-1.496,-4.702,148.186,-0.844,1.130,17.863,1,5,3.254
1777415159669,-0.069,0.454,-1.107,8.748,-5.870,0.405,150.757,0.274,1.198,10.543,1,5,3.258
1777415159682,1.891,0.836,-2.186,41.626,250.130,250.130,153.005,-10.320,3.009,356.178,1,5,3.250
1777415159696,0.113,0.435,-0.946,-43.183,74.641,30.748,153.630,-9.207,1.047,91.551,1,5,3.264
1777415159709,0.182,0.321,-1.107,18.359,20.893,-15.542,156.383,-9.143,1.167,31.861,1,5,3.912
1777415159723,0.112,0.340,-0.966,13.718,-25.405,-7.664,157.532,-8.352,1.030,29.871,1,5,3.263
1777415159737,0.085,0.369,-1.127,-18.916,18.107,0.794,158.701,-7.202,1.189,26.197,1,5,3.262
1777415159750,-0.032,0.398,-1.075,-51.740,64.321,55.748,158.970,-4.828,1.147,99.610,1,5,3.260
1777415159763,0.076,0.391,-1.075,-64.580,87.939,115.458,159.254,-4.553,1.147,158.853,1,5,3.262
1777415159777,0.086,0.381,-1.047,-74.847,99.824,144.275,159.456,-4.511,1.118,190.741,1,5,3.925
1777415159791,0.131,0.401,-0.991,-78.702,100.718,152.947,159.051,-5.178,1.077,199.326,1,5,3.255
1777415159804,0.214,0.379,-0.995,-67.824,92.885,142.099,159.083,-6.854,1.086,182.812,1,5,3.273
1777415159817,0.233,0.356,-0.938,-41.687,60.534,89.237,159.123,-8.534,1.030,115.609,1,5,3.247
1777415159831,-0.397,0.002,-0.839,-35.740,-113.588,-250.137,164.731,0.614,0.929,277.035,1,5,3.257
1777415159844,0.612,0.832,-0.797,-68.740,-75.611,-135.939,156.368,-7.110,1.304,170.064,5,5,3.940
1777415159858,0.983,1.348,-1.367,-250.137,-93.542,-65.260,150.701,-12.511,2.157,274.914,5,5,3.255
1777415159871,1.149,1.083,-1.354,-250.137,-70.153,-9.718,148.170,-18.190,2.080,259.970,5,5,3.260
1777415159885,0.845,1.086,-1.043,-250.137,105.710,119.374,144.300,-21.195,1.726,296.637,5,5,3.248
1777415159898,0.754,1.099,-1.102,-250.137,112.237,86.733,141.810,-22.454,1.729,287.556,5,5,3.263
1777415159912,0.655,0.964,-1.298,-250.137,195.748,98.000,142.241,-22.348,1.745,332.400,5,5,3.916
1777415159926,0.602,0.818,-1.216,-250.137,212.275,61.557,143.276,-22.340,1.584,333.794,5,5,3.261
1777415159939,0.671,0.791,-1.161,-250.137,230.153,67.183,143.938,-23.205,1.557,346.486,5,5,3.265
1777415159952,0.666,0.991,-1.049,-250.137,250.130,75.687,141.962,-23.629,1.589,361.749,5,5,3.257
1777415159966,0.588,1.191,-0.952,-250.137,250.130,74.588,138.360,-22.943,1.634,361.520,5,5,3.268
1777415159979,0.417,1.271,-0.799,-250.137,250.130,49.229,133.984,-20.935,1.558,357.151,5,5,3.914
1777415159993,0.279,1.387,-0.613,-250.137,250.130,36.221,128.541,-18.098,1.542,355.592,5,5,3.270
1777415160006,-0.038,1.232,-0.356,-250.137,240.580,-3.893,122.484,-12.746,1.283,347.077,5,5,3.263
1777415160020,-0.001,1.238,-0.330,-250.137,174.519,-28.427,117.738,-9.294,1.281,306.323,5,5,3.268
1777415160033,0.064,1.162,-0.294,-250.137,133.618,-12.427,114.077,-7.605,1.200,283.861,5,5,3.263
1777415160046,-0.009,1.064,-0.045,-250.137,72.664,-28.328,108.229,-5.419,1.065,262.014,5,5,3.992
1777415160060,0.409,1.160,-0.003,-250.137,33.382,-20.931,103.343,-9.203,1.230,253.222,5,5,3.253
1777415160074,0.521,1.053,-0.026,-250.137,34.824,-30.198,100.122,-13.821,1.175,254.349,5,5,3.257
1777415160087,0.638,0.958,-0.032,-250.137,68.618,-25.985,97.908,-19.177,1.152,260.677,5,5,3.259
1777415160100,0.440,0.776,0.037,-250.137,86.153,-24.000,95.037,-21.973,0.893,265.645,5,5,3.260
1777415160114,0.273,0.634,0.185,-250.137,69.031,-32.206,89.288,-22.118,0.714,261.479,5,5,3.912
1777415160128,0.435,0.650,0.273,-250.137,71.473,-9.198,83.321,-24.705,0.829,260.311,5,5,3.263
1777415160141,0.475,0.393,0.143,-250.137,47.725,22.901,79.736,-31.178,0.633,255.677,5,5,3.256
1777415160154,0.120,0.311,0.544,-244.092,102.427,68.252,66.237,-25.679,0.638,273.369,5,5,3.260
1777415160168,-0.167,0.219,0.671,-240.115,16.557,13.672,53.228,-15.154,0.725,241.073,5,5,3.260
1777415160181,0.515,0.287,0.552,-206.313,31.053,72.710,46.267,-21.773,0.807,220.944,5,5,3.912
1777415160195,0.167,0.158,0.680,-184.527,41.603,60.000,37.299,-19.533,0.718,198.446,5,5,3.248
1777415160209,0.304,0.400,0.523,-165.695,38.260,111.878,37.329,-20.953,0.726,203.556,5,5,3.250
1777415160222,-0.222,-0.038,0.797,-144.244,-32.252,18.733,26.505,-11.084,0.828,148.988,5,5,3.254
1777415160235,0.750,0.157,0.561,-115.519,-6.588,47.908,23.567,-22.184,0.950,125.233,5,5,3.258
1777415160249,0.246,0.190,0.548,-111.908,62.214,-16.840,22.356,-22.389,0.630,129.142,1,5,3.940
1777415160263,0.378,-0.089,0.426,-60.420,225.527,-17.962,13.140,-27.409,0.576,234.170,1,5,3.254
1777415160276,0.261,0.008,0.501,-31.565,250.130,-37.000,9.847,-27.441,0.565,254.814,1,5,3.256
1777415160289,0.130,0.117,0.580,-28.878,250.130,-14.656,10.261,-23.367,0.606,252.217,1,5,3.246
1777415160303,0.073,0.147,0.615,-38.710,202.870,0.649,11.127,-18.834,0.636,206.531,1,5,3.266
1777415160316,-0.070,0.070,0.666,-59.573,123.618,8.008,9.745,-12.142,0.673,137.457,5,5,3.908
1777415160330,-0.137,0.096,0.758,-45.802,69.779,23.397,9.056,-6.112,0.776,86.685,5,5,3.269
1777415160343,0.133,-0.106,0.801,-14.809,10.901,23.206,4.569,-6.982,0.819,29.608,5,5,3.255
1777415160357,0.065,0.023,0.752,-10.916,-30.466,25.336,3.812,-6.424,0.755,41.100,5,5,3.255
1777415160370,0.102,-0.002,0.739,0.351,-52.038,37.435,2.741,-6.802,0.746,64.105,5,5,3.262
1777415160383,0.166,-0.051,0.737,17.290,-77.595,52.672,0.940,-8.378,0.757,95.364,5,5,3.922
1777415160397,-0.080,-0.150,0.695,36.153,-114.374,56.664,-2.596,-4.379,0.715,132.662,5,5,3.263
1777415160411,-0.215,-0.273,1.189,118.130,-250.137,250.130,-5.384,-0.501,1.239,372.945,5,5,3.250
1777415160424,0.616,-0.622,0.073,143.008,-250.137,-110.237,-26.428,-12.405,0.878,308.500,5,5,3.251
1777415160437,0.663,-0.470,0.257,216.298,-87.786,-0.756,-35.874,-22.850,0.853,233.435,5,5,3.265
1777415160451,-0.028,-0.372,0.347,250.130,-129.779,-82.115,-38.865,-15.838,0.509,293.514,5,5,3.928
1777415160465,0.098,-0.174,0.208,250.130,-115.435,-58.992,-39.169,-16.928,0.288,281.727,5,5,3.258
1777415160478,-0.175,-0.034,0.138,250.130,-157.084,-78.809,-32.321,1.386,0.225,305.698,5,5,3.252
1777415160492,-0.116,0.268,-0.168,250.130,-188.427,-99.427,9.391,6.470,0.337,328.566,5,5,3.253
1777415160505,0.915,0.491,-0.498,250.130,-107.580,-169.618,43.440,-9.489,1.152,320.794,5,5,3.264
1777415160518,-0.157,0.789,-0.237,250.130,-78.511,-84.069,60.527,-4.006,0.839,275.312,5,5,3.921
1777415160532,-0.146,0.936,-0.346,250.130,-163.786,-135.076,73.969,-0.668,1.009,328.080,5,5,3.263
1777415160546,0.113,0.989,-0.630,250.130,-180.954,-134.290,87.082,-1.968,1.178,336.665,5,5,3.252
1777415160559,0.011,1.035,-0.884,250.130,-194.298,-102.061,98.813,-1.564,1.361,332.766,5,5,3.259
1777415160572,-0.161,1.245,-1.238,250.130,-202.977,1.893,108.543,0.271,1.763,322.131,5,5,3.254
