timestamp,ax,ay,az,gx,gy,gz,roll,pitch_k,acc_norm,gyro_norm,delay_ms,arquivo_id,arquivo_nome,Fase,tem_rotulo_real,tempo_s,d_ax,dd_ax,d_ay,dd_ay,d_az,dd_az,d_gx,dd_gx,d_gy,dd_gy,d_gz,dd_gz,d_roll,dd_roll,d_pitch_k,dd_pitch_k,d_acc_norm,dd_acc_norm,d_gyro_norm,dd_gyro_norm,jerk_acc,jerk_gyro,classe_prevista,classe_prevista_nome,confianca_prevista
1777415143532,0.337158,0.531006,-0.898926,3.00763,-25.3969,28.3817,135.96707488345245,-16.28466632987242,1.097137567707897,38.20430947834157,3.568,999,log_v5_3_runtime.csv,0,False,0.0,0.0,0.0,0.0,0.0,0.0,0.0,0.0,0.0,0.0,0.0,0.0,0.0,0.0,0.0,0.0,0.0,0.0,0.0,0.0,0.0,0.0,0.0,5,Swing,1.0
1777415143546,0.356,0.505,-0.864,1.183,-3.153,-2.397,142.86443295148524,-17.94145023942281,1.062194426647024,4.133582828491526,3.536,999,log_v5_3_runtime.csv,0,False,0.014,0.01884199999999997,0.01884199999999997,-0.026005999999999974,-0.026005999999999974,0.03492600000000001,0.03492600000000001,-1.8246299999999998,-1.8246299999999998,22.2439,22.2439,-30.778699999999997,-30.778699999999997,6.897358068032787,6.897358068032787,-1.6567839095503913,-1.6567839095503913,-0.03494314106087293,-0.03494314106087293,-34.070726649850045,-34.070726649850045,-0.03494314106087293,-34.070726649850045,5,Swing,1.0
1777415143559,0.423,0.472,-0.866,-2.802,-3.397,-0.557,146.07651753721552,-19.92365867684809,1.0731584226012485,4.438587838490976,3.256,999,log_v5_3_runtime.csv,0,False,0.027,0.067,0.048158000000000034,-0.03300000000000003,-0.006994000000000056,-0.0020000000000000018,-0.036926000000000014,-3.9850000000000003,-2.1603700000000003,-0.24399999999999977,-22.4879,1.8399999999999999,32.6187,3.212084585730281,-3.685273482302506,-1.9822084374252782,-0.32542452787488685,0.010963995954224481,0.04590713701509741,0.30500500999945057,34.37573165984949,0.010963995954224481,0.30500500999945057,5,Swing,1.0
1777415143573,0.406,0.541,-0.913,1.099,1.084,2.168,147.13247495304822,-20.249872446683998,1.1362596534243394,2.6614058315108577,3.259,999,log_v5_3_runtime.csv,0,False,0.041,-0.01699999999999996,-0.08399999999999996,0.06900000000000006,0.10200000000000009,-0.04700000000000004,-0.04500000000000004,3.901,7.886,4.481,4.725,2.725,0.8850000000000002,1.0559574158326939,-2.1561271698975872,-0.3262137698359098,1.6559946675893684,0.06310123082309094,0.052137234868866456,-1.7771820069801185,-2.082187016979569,0.06310123082309094,-1.7771820069801185,5,Swing,1.0
1777415143586,0.349,0.497,-0.871,0.733,0.733,1.176,148.07042456396334,-19.934742140177143,1.0618149556302172,1.567658763889642,3.259,999,log_v5_3_runtime.csv,0,False,0.054,-0.05700000000000005,-0.04000000000000009,-0.04400000000000004,-0.1130000000000001,0.04200000000000004,0.08900000000000008,-0.366,-4.2669999999999995,-0.3510000000000001,-4.832,-0.9920000000000002,-3.7170000000000005,0.9379496109151262,-0.11800780491756768,0.31513030650685536,0.6413440763427651,-0.07444469779412222,-0.13754592861721315,-1.0937470676212158,0.6834349393589028,-0.07444469779412222,-1.0937470676212158,5,Swing,1.0
1777415143599,0.395,0.551,-0.921,-0.176,-2.382,-0.244,148.36570620893914,-20.011792494616884,1.1436201292387258,2.400923988800978,3.248,999,log_v5_3_runtime.csv,0,False,0.067,0.04600000000000004,0.10300000000000009,0.05400000000000005,0.09800000000000009,-0.050000000000000044,-0.09200000000000008,-0.909,-0.543,-3.115,-2.7640000000000002,-1.42,-0.4279999999999997,0.2952816449758018,-0.6426679659393244,-0.0770503544397414,-0.39218066094659676,0.08180517360850859,0.1562498714026308,0.8332652249113361,1.927012292532552,0.08180517360850859,0.8332652249113361,5,Swing,1.0
1777415143613,0.367,0.532,-0.899,0.061,-0.489,0.985,148.64841349145462,-19.83023309365502,1.1072100071802098,1.1013932086226064,3.25,999,log_v5_3_runtime.csv,0,False,0.081,-0.028000000000000025,-0.07400000000000007,-0.019000000000000017,-0.07300000000000006,0.02200000000000002,0.07200000000000006,0.237,1.146,1.8930000000000002,5.008000000000001,1.229,2.649,0.2827072825154744,-0.012574362460327393,0.18155940096186285,0.25860975540160425,-0.036410122058516015,-0.1182152956670246,-1.2995307801783718,-2.132796005089708,-0.036410122058516015,-1.2995307801783718,5,Swing,1.0
1777415143626,0.359,0.527,-0.894,-0.107,-1.26,0.588,148.8766774362427,-19.62523293203757,1.0981101948347443,1.39455835302794,3.25,999,log_v5_3_runtime.csv,0,False,0.094,-0.008000000000000007,0.020000000000000018,-0.0050000000000000044,0.014000000000000012,0.0050000000000000044,-0.017000000000000015,-0.16799999999999998,-0.40499999999999997,-0.771,-2.664,-0.397,-1.6260000000000001,0.22826394478806833,-0.05444333772740606,0.20500016161745194,0.023440760655589088,-0.00909981234546553,0.027310309713050485,0.2931651444053336,1.5926959245837053,-0.00909981234546553,0.2931651444053336,5,Swing,1.0
1777415143641,0.363,0.527,-0.891,-0.229,-0.649,0.855,149.0183143375143,-19.543174626920194,1.0969863262593569,1.0975732321808873,5.035,999,log_v5_3_runtime.csv,0,False,0.109,0.0040000000000000036,0.01200000000000001,0.0,0.0050000000000000044,0.0030000000000000027,-0.0020000000000000018,-0.12200000000000001,0.04599999999999997,0.611,1.3820000000000001,0.267,0.664,0.14163690127162454,-0.08662704351644379,0.08205830511737489,-0.12294185650007705,-0.0011238685753873767,0.007975943770078153,-0.29698512084705264,-0.5901502652523862,-0.0011238685753873767,-0.29698512084705264,5,Swing,1.0
1777415143655,0.37,0.523,-0.888,0.176,-0.748,0.595,149.14991309772918,-19.599116082293804,1.094976255450318,0.9718564708844614,3.245,999,log_v5_3_runtime.csv,0,False,0.123,0.007000000000000006,0.0030000000000000027,-0.0040000000000000036,-0.0040000000000000036,0.0030000000000000027,0.0,0.405,0.527,-0.09899999999999998,-0.71,-0.26,-0.527,0.13159876021487094,-0.010038141056753602,-0.05594145537360973,-0.1379997604909846,-0.002010070809038922,-0.0008862022336515452,-0.12571676129642595,0.1712683595506267,-0.002010070809038922,-0.12571676129642595,5,Swing,1.0
1777415143668,0.371,0.529,-0.901,0.481,-0.664,0.748,149.266823304394,-19.585614593836063,1.1087303549556133,1.1098472867921965,3.285,999,log_v5_3_runtime.csv,0,False,0.136,0.0010000000000000009,-0.006000000000000005,0.006000000000000005,0.010000000000000009,-0.013000000000000012,-0.016000000000000014,0.305,-0.10000000000000003,0.08399999999999996,0.18299999999999994,0.15300000000000002,0.41300000000000003,0.11691020666481222,-0.014688553550058714,0.013501488457741573,0.0694429438313513,0.01375409950529538,0.015764170314334303,0.1379908159077351,0.26370757720416105,0.01375409950529538,0.1379908159077351,5,Swing,1.0
1777415143681,0.373,0.531,-0.909,0.183,-0.924,0.58,149.3862304993419,-19.565185430408963,1.1168576453604102,1.1061939251324788,3.249,999,log_v5_3_runtime.csv,0,False,0.149,0.0020000000000000018,0.0010000000000000009,0.0020000000000000018,-0.0040000000000000036,-0.008000000000000007,0.0050000000000000044,-0.298,-0.603,-0.26,-0.344,-0.16800000000000004,-0.32100000000000006,0.11940719494791097,0.0024969882830987444,0.02042916342709944,0.0069276749693578665,0.008127290404796872,-0.005626809100498509,-0.0036533616597176355,-0.14164417756745273,0.008127290404796872,-0.0036533616597176355,5,Swing,1.0
1777415143695,0.369,0.535,-0.904,-0.176,-1.198,0.321,149.38518219632294,-19.508445411115087,1.1133741509483683,1.2526855152032372,3.249,999,log_v5_3_runtime.csv,0,False,0.163,-0.0040000000000000036,-0.006000000000000005,0.0040000000000000036,0.0020000000000000018,0.0050000000000000044,0.013000000000000012,-0.359,-0.061,-0.2739999999999999,-0.013999999999999901,-0.25899999999999995,-0.09099999999999991,-0.0010483030189618603,-0.12045549796687283,0.05674001929387629,0.03631085586677685,-0.0034834944120418765,-0.011610784816838748,0.1464915900707584,0.15014495173047604,-0.0034834944120418765,0.1464915900707584,5,Swing,1.0
1777415143708,0.361,0.531,-0.892,-0.229,-0.885,0.656,149.3446021316925,-19.41843450418113,1.0990659670829592,1.1251675430796961,3.264,999,log_v5_3_runtime.csv,0,False,0.176,-0.008000000000000007,-0.0040000000000000036,-0.0040000000000000036,-0.008000000000000007,0.01200000000000001,0.007000000000000006,-0.05300000000000002,0.30599999999999994,0.31299999999999994,0.5869999999999999,0.335,0.594,-0.040580064630432844,-0.039531761611470984,0.09001090693395852,0.033270887640082236,-0.014308183865409108,-0.010824689453367231,-0.1275179721235411,-0.2740095621942995,-0.014308183865409108,-0.1275179721235411,5,Swing,1.0
1777415143721,0.366,0.524,-0.891,-0.008,-1.099,0.817,149.39741984584754,-19.439956226969723,1.096545940670066,1.369435650185871,3.241,999,log_v5_3_runtime.csv,0,False,0.189,0.0050000000000000044,0.013000000000000012,-0.007000000000000006,-0.0030000000000000027,0.0010000000000000009,-0.01100000000000001,0.221,0.274,-0.21399999999999997,-0.5269999999999999,0.16099999999999992,-0.1740000000000001,0.0528177141550259,0.09339777878545874,-0.0215217227885951,-0.11153262972255362,-0.0025200264128932837,0.011788157452515824,0.24426810710617497,0.37178607922971607,-0.0025200264128932837,0.24426810710617497,5,Swing,1.0
1777415143736,0.363,0.525,-0.89,0.313,-0.481,0.779,149.41545471379567,-19.417360472629436,1.0952141343134685,0.9675593005082428,3.467,999,log_v5_3_runtime.csv,0,False,0.204,-0.0030000000000000027,-0.008000000000000007,0.0010000000000000009,0.008000000000000007,0.0010000000000000009,0.0,0.321,0.1,0.618,0.832,-0.03799999999999992,-0.19899999999999984,0.01803486794813125,-0.034782846206894646,0.022595754340287044,0.04411747712888214,-0.0013318063565974647,0.001188220056295819,-0.4018763496776283,-0.6461444567838033,-0.0013318063565974647,-0.4018763496776283,5,Swing,1.0
1777415143749,0.364,0.534,-0.892,0.191,-0.916,0.519,149.3283245982245,-19.38470525678142,1.1015062414711956,1.0699990654201526,3.244,999,log_v5_3_runtime.csv,0,False,0.217,0.0010000000000000009,0.0040000000000000036,0.009000000000000008,0.008000000000000007,-0.0020000000000000018,-0.0030000000000000027,-0.122,-0.443,-0.43500000000000005,-1.053,-0.26,-0.2220000000000001,-0.08713011557117056,-0.10516498351930181,0.032655215848016894,0.01005946150772985,0.0062921071577271,0.007623913514324565,0.10243976491190976,0.5043161145895381,0.0062921071577271,0.10243976491190976,5,Swing,1.0
1777415143763,0.373,0.534,-0.902,0.305,-0.985,0.519,149.3405873429801,-19.439547855425136,1.1126046018240263,1.1543877164973646,3.263,999,log_v5_3_runtime.csv,0,False,0.231,0.009000000000000008,0.008000000000000007,0.0,-0.009000000000000008,-0.010000000000000009,-0.008000000000000007,0.11399999999999999,0.236,-0.06899999999999995,0.3660000000000001,0.0,0.26,0.012262744755588528,0.09939286032675909,-0.054842598643716656,-0.08749781449173355,0.011098360352830738,0.004806253195103638,0.08438865107721205,-0.018051113834697707,0.011098360352830738,0.08438865107721205,5,Swing,1.0
1777415143776,0.371,0.533,-0.904,0.084,-0.74,0.435,149.37725778103575,-19.447713640480064,1.1130795119846562,0.8624853621946287,3.255,999,log_v5_3_runtime.csv,0,False,0.244,-0.0020000000000000018,-0.01100000000000001,-0.0010000000000000009,-0.0010000000000000009,-0.0020000000000000018,0.008000000000000007,-0.22099999999999997,-0.33499999999999996,0.245,0.31399999999999995,-0.08400000000000002,-0.08400000000000002,0.0366704380556655,0.02440769330007697,-0.00816578505492771,0.046676813588788946,0.0004749101606298378,-0.0106234501922009,-0.2919023543027359,-0.376291005379948,0.0004749101606298378,-0.2919023543027359,5,Swing,1.0
1777415143789,0.367,0.529,-0.893,-0.229,-1.038,0.565,149.37208930324448,-19.454565443257522,1.1008991779450106,1.2037898487692942,3.26,999,log_v5_3_runtime.csv,0,False,0.257,-0.0040000000000000036,-0.0020000000000000018,-0.0040000000000000036,-0.0030000000000000027,0.01100000000000001,0.013000000000000012,-0.313,-0.09200000000000003,-0.29800000000000004,-0.543,0.12999999999999995,0.21399999999999997,-0.005168477791272608,-0.04183891584693811,-0.006851802777458005,0.0013139822774697052,-0.01218033403964558,-0.012655244200275417,0.3413044865746655,0.6332068408774014,-0.01218033403964558,0.3413044865746655,5,Swing,1.0
1777415143803,0.363,0.518,-0.888,0.038,-0.817,0.763,149.47244558785766,-19.452809462923263,1.0902463024472957,1.118526709560393,3.254,999,log_v5_3_runtime.csv,0,False,0.271,-0.0040000000000000036,0.0,-0.01100000000000001,-0.007000000000000006,0.0050000000000000044,-0.006000000000000005,0.267,0.5800000000000001,0.22100000000000009,0.5190000000000001,0.19800000000000006,0.06800000000000012,0.10035628461318424,0.10552476240445685,0.0017559803342592772,0.008607783111717282,-0.010652875497714875,0.001527458541930704,-0.08526313920890116,-0.42656762578356666,-0.010652875497714875,-0.08526313920890116,5,Swing,1.0
1777415143816,0.366,0.524,-0.887,-0.023,-0.595,0.542,149.46024982571004,-19.481324861058187,1.0932982209808997,0.8051819670111844,3.246,999,log_v5_3_runtime.csv,0,False,0.284,0.0030000000000000027,0.007000000000000006,0.006000000000000005,0.017000000000000015,0.0010000000000000009,-0.0040000000000000036,-0.061,-0.328,0.22199999999999998,0.0009999999999998899,-0.22099999999999997,-0.41900000000000004,-0.012195762147626965,-0.11255204676081121,-0.028515398134924652,-0.03027137846918393,0.003051918533603981,0.013704794031318857,-0.31334474254920863,-0.22808160334030747,0.003051918533603981,-0.31334474254920863,5,Swing,1.0
1777415143830,0.366,0.527,-0.885,0.198,-0.832,0.679,149.39724610347812,-19.50303625554673,1.093119389636832,1.0920022893748895,4.04,999,log_v5_3_runtime.csv,0,False,0.298,0.0,-0.0030000000000000027,0.0030000000000000027,-0.0030000000000000027,0.0020000000000000018,0.0010000000000000009,0.221,0.28200000000000003,-0.237,-0.45899999999999996,0.137,0.358,-0.06300372223191175,-0.05080796008428479,-0.021711394488541202,0.00680400364638345,-0.00017883134406759815,-0.0032307498776715793,0.28682032236370514,0.6001650649129138,-0.00017883134406759815,0.28682032236370514,5,Swing,1.0
1777415143843,0.37,0.54,-0.9,0.244,-0.656,0.687,149.2997189399265,-19.480285118849476,1.1128791488746657,0.9807349285102475,3.258,999,log_v5_3_runtime.csv,0,False,0.311,0.0040000000000000036,0.0040000000000000036,0.013000000000000012,0.010000000000000009,-0.015000000000000013,-0.017000000000000015,0.045999999999999985,-0.17500000000000002,0.17599999999999993,0.4129999999999999,0.008000000000000007,-0.129,-0.09752716355163216,-0.034523441319720405,0.02275113669725215,0.04446253118579335,0.019759759237833574,0.019938590581901172,-0.11126736086464206,-0.3980876832283472,0.019759759237833574,-0.11126736086464206,5,Swing,1.0
1777415143857,0.367,0.532,-0.9,0.168,-0.855,0.634,149.33010495631956,-19.443167357485255,1.1080221116927225,1.0775922234314796,3.256,999,log_v5_3_runtime.csv,0,False,0.325,-0.0030000000000000027,-0.007000000000000006,-0.008000000000000007,-0.02100000000000002,0.0,0.015000000000000013,-0.07599999999999998,-0.12199999999999997,-0.19899999999999995,-0.3749999999999999,-0.05300000000000005,-0.061000000000000054,0.030386016393066484,0.12791317994469864,0.037117761364221735,0.014366624666969585,-0.004857037181943191,-0.024616796419776765,0.09685729492123218,0.20812465578587425,-0.004857037181943191,0.09685729492123218,5,Swing,1.0
1777415143870,0.368,0.53,-0.891,-0.168,-0.947,0.695,149.3096099002602,-19.470185549330346,1.1000931778717657,1.1866161974286378,3.256,999,log_v5_3_runtime.csv,0,False,0.338,0.0010000000000000009,0.0040000000000000036,-0.0020000000000000018,0.006000000000000005,0.009000000000000008,0.009000000000000008,-0.336,-0.26,-0.09199999999999997,0.10699999999999998,0.06099999999999994,0.11399999999999999,-0.020495056059360195,-0.05088107245242668,-0.02701819184509091,-0.06413595320931265,-0.007928933820956718,-0.003071896639013527,0.10902397399715813,0.012166679075925946,-0.007928933820956718,0.10902397399715813,5,Swing,1.0
1777415143883,0.368,0.529,-0.885,0.015,-0.954,0.634,149.26150475716733,-19.516701200325507,1.094755680505929,1.1455553238495293,3.257,999,log_v5_3_runtime.csv,0,False,0.351,0.0,-0.0010000000000000009,-0.0010000000000000009,0.0010000000000000009,0.006000000000000005,-0.0030000000000000027,0.183,0.519,-0.007000000000000006,0.08499999999999996,-0.06099999999999994,-0.12199999999999989,-0.04810514309286873,-0.027610087033508535,-0.046515650995161195,-0.019497459150070284,-0.005337497365836663,0.0025914364551200553,-0.04106087357910848,-0.1500848475762666,-0.005337497365836663,-0.04106087357910848,5,Swing,1.0
1777415143897,0.369,0.527,-0.888,0.229,-0.763,0.603,149.27520176010574,-19.556570857513925,1.0965555161504592,0.9991091031514026,3.25,999,log_v5_3_runtime.csv,0,False,0.365,0.0010000000000000009,0.0010000000000000009,-0.0020000000000000018,-0.0010000000000000009,-0.0030000000000000027,-0.009000000000000008,0.21400000000000002,0.031000000000000028,0.19099999999999995,0.19799999999999995,-0.031000000000000028,0.029999999999999916,0.013697002938414471,0.0618021460312832,-0.03986965718841873,0.006645993806742467,0.0017998356445301233,0.0071373330103667865,-0.14644622069812674,-0.10538534711901826,0.0017998356445301233,-0.14644622069812674,5,Swing,1.0
1777415143910,0.365,0.525,-0.885,0.183,-0.641,0.542,149.2880391022353,-19.549445735285385,1.0918218719186752,0.859147251639671,3.249,999,log_v5_3_runtime.csv,0,False,0.378,-0.0040000000000000036,-0.0050000000000000044,-0.0020000000000000018,0.0,0.0030000000000000027,0.006000000000000005,-0.04600000000000001,-0.26,0.122,-0.06899999999999995,-0.06099999999999994,-0.029999999999999916,0.012837342129557783,-0.0008596608088566882,0.007125122228540448,0.046994779416959176,-0.004733644231784018,-0.006533479876314141,-0.13996185151173157,0.006484369186395167,-0.004733644231784018,-0.13996185151173157,5,Swing,1.0
1777415143924,0.369,0.527,-0.894,0.16,-0.901,0.664,149.34024127038427,-19.556046720611604,1.1014199925550652,1.1306179726149765,4.915,999,log_v5_3_runtime.csv,0,False,0.392,0.0040000000000000036,0.008000000000000007,0.0020000000000000018,0.0040000000000000036,-0.009000000000000008,-0.01200000000000001,-0.022999999999999993,0.02300000000000002,-0.26,-0.382,0.122,0.18299999999999994,0.052202168148966166,0.03936482601940838,-0.006600985326219444,-0.013726107554759892,0.009598120636389984,0.014331764868174002,0.27147072097530556,0.41143257248703713,0.009598120636389984,0.27147072097530556,5,Swing,1.0
1777415143938,0.371,0.534,-0.902,0.214,-0.931,0.542,149.34928432714366,-19.53836888054722,1.1119356995797913,1.0983264542020281,3.282,999,log_v5_3_runtime.csv,0,False,0.406,0.0020000000000000018,-0.0020000000000000018,0.007000000000000006,0.0050000000000000044,-0.008000000000000007,0.0010000000000000009,0.05399999999999999,0.07699999999999999,-0.030000000000000027,0.22999999999999998,-0.122,-0.244,0.00904305675939554,-0.043159111389570626,0.017677840064383332,0.024278825390602776,0.01051570702472615,0.0009175863883361668,-0.03229151841294842,-0.303762239388254,0.01051570702472615,-0.03229151841294842,5,Swing,1.0
1777415143952,0.371,0.533,-0.898,-0.061,-1.031,0.618,149.33843456484095,-19.543878557033565,1.108212073567149,1.203580491699662,3.25,999,log_v5_3_runtime.csv,0,False,0.42,0.0,-0.0020000000000000018,-0.0010000000000000009,-0.008000000000000007,0.0040000000000000036,0.01200000000000001,-0.275,-0.329,-0.09999999999999987,-0.06999999999999984,0.07599999999999996,0.19799999999999995,-0.010849762302711952,-0.019892819062107492,-0.0055096764863442615,-0.023187516550727594,-0.0037236260126423115,-0.014239333037368462,0.10525403749763385,0.13754555591058226,-0.0037236260126423115,0.10525403749763385,5,Swing,1.0
1777415143965,0.367,0.526,-0.889,-0.183,-1.053,0.496,149.35188272841867,-19.548147078100275,1.0962143950888439,1.1782673720340389,3.252,999,log_v5_3_runtime.csv,0,False,0.433,-0.0040000000000000036,-0.0040000000000000036,-0.007000000000000006,-0.006000000000000005,0.009000000000000008,0.0050000000000000044,-0.122,0.15300000000000002,-0.02200000000000002,0.07799999999999985,-0.122,-0.19799999999999995,0.013448163577720607,0.024297925880432558,-0.004268521066709496,0.0012411554196347652,-0.01199767847830513,-0.008274052465662818,-0.025313119665623107,-0.13056715716325695,-0.01199767847830513,-0.025313119665623107,5,Swing,1.0
1777415143978,0.37,0.524,-0.885,0.015,-1.092,0.626,149.3569480276388,-19.612445056017393,1.0930237874813156,1.2587950587764476,3.253,999,log_v5_3_runtime.csv,0,False,0.446,0.0030000000000000027,0.007000000000000006,-0.0020000000000000018,0.0050000000000000044,0.0040000000000000036,-0.0050000000000000044,0.198,0.32,-0.039000000000000146,-0.017000000000000126,0.13,0.252,0.005065299220120778,-0.008382864357599829,-0.06429797791711778,-0.06002945685040828,-0.0031906076075283174,0.008807070870776812,0.08052768674240873,0.10584080640803184,-0.0031906076075283174,0.08052768674240873,5,Swing,1.0
1777415143992,0.369,0.53,-0.891,0.183,-0.824,0.672,149.32920115262166,-19.606987638156042,1.100428098514392,1.0789110250618443,3.93,999,log_v5_3_runtime.csv,0,False,0.46,-0.0010000000000000009,-0.0040000000000000036,0.006000000000000005,0.008000000000000007,-0.006000000000000005,-0.010000000000000009,0.16799999999999998,-0.030000000000000027,0.2680000000000001,0.3070000000000003,0.04600000000000004,-0.08399999999999996,-0.02774687501712947,-0.03281217423725025,0.005457417861350677,0.06975539577846845,0.007404311033076372,0.010594918640604689,-0.17988403371460326,-0.260411720457012,0.007404311033076372,-0.17988403371460326,5,Swing,1.0
1777415144006,0.373,0.532,-0.901,0.115,-0.824,0.779,149.35915005173015,-19.61055406294848,1.1108348212043049,1.1397552368820245,3.251,999,log_v5_3_runtime.csv,0,False,0.474,0.0040000000000000036,0.0050000000000000044,0.0020000000000000018,-0.0040000000000000036,-0.010000000000000009,-0.0040000000000000036,-0.06799999999999999,-0.236,0.0,-0.2680000000000001,0.10699999999999998,0.06099999999999994,0.029948899108489968,0.05769577412561944,-0.0035664247924387382,-0.009023842653789416,0.01040672268991294,0.0030024116568365677,0.06084421182018018,0.24072824553478345,0.01040672268991294,0.06084421182018018,5,Swing,1.0
1777415144019,0.372,0.533,-0.894,0.183,-0.985,0.664,149.31527273215872,-19.625875203057152,1.1053094589299415,1.2019192984555993,3.31,999,log_v5_3_runtime.csv,0,False,0.487,-0.0010000000000000009,-0.0050000000000000044,0.0010000000000000009,-0.0010000000000000009,0.007000000000000006,0.017000000000000015,0.06799999999999999,0.13599999999999998,-0.16100000000000003,-0.16100000000000003,-0.11499999999999999,-0.22199999999999998,-0.043877319571436146,-0.07382621867992611,-0.015321140108671472,-0.011754715316232733,-0.005525362274363399,-0.01593208496427634,0.06216406157357479,0.0013198497533946085,-0.005525362274363399,0.06216406157357479,5,Swing,1.0
1777415144033,0.378,0.528,-0.905,-0.031,-1.023,0.595,149.42991456705772,-19.683138322973992,1.1138639952884732,1.1838559878633887,3.244,999,log_v5_3_runtime.csv,0,False,0.501,0.006000000000000005,0.007000000000000006,-0.0050000000000000044,-0.006000000000000005,-0.01100000000000001,-0.018000000000000016,-0.214,-0.282,-0.03799999999999992,0.12300000000000011,-0.06900000000000006,0.04599999999999993,0.11464183489900392,0.15851915447044007,-0.057263119916839855,-0.041941979808168384,0.008554536358531761,0.01407989863289516,-0.018063310592210557,-0.08022737216578535,0.008554536358531761,-0.018063310592210557,5,Swing,1.0
1777415144046,0.368,0.529,-0.898,-0.176,-0.763,0.527,149.44836774719573,-19.61949402796332,1.1052913643017392,0.9438612186121432,3.258,999,log_v5_3_runtime.csv,0,False,0.514,-0.010000000000000009,-0.016000000000000014,0.0010000000000000009,0.006000000000000005,0.007000000000000006,0.018000000000000016,-0.145,0.069,0.2599999999999999,0.2979999999999998,-0.06799999999999995,0.001000000000000112,0.01845318013801034,-0.09618865476099359,0.06364429501067193,0.12090741492751178,-0.008572630986733998,-0.01712716734526576,-0.23999476925124552,-0.22193145865903496,-0.008572630986733998,-0.23999476925124552,5,Swing,1.0
1777415144059,0.375,0.528,-0.899,-0.008,-0.939,0.718,149.48216328194482,-19.663606251933516,1.107975631500982,1.1820782546007689,3.916,999,log_v5_3_runtime.csv,0,False,0.527,0.007000000000000006,0.017000000000000015,-0.0010000000000000009,-0.0020000000000000018,-0.0010000000000000009,-0.008000000000000007,0.16799999999999998,0.31299999999999994,-0.17599999999999993,-0.43599999999999983,0.19099999999999995,0.2589999999999999,0.03379553474908903,0.01534235461107869,-0.04411222397019543,-0.10775651898086736,0.0026842671992428624,0.01125689818597686,0.23821703598862565,0.47821180523987117,0.0026842671992428624,0.23821703598862565,5,Swing,1.0
1777415144073,0.371,0.525,-0.894,0.122,-0.603,0.664,149.5076449955355,-19.670631971342388,1.101136685430106,0.9052010826330247,3.243,999,log_v5_3_runtime.csv,0,False,0.541,-0.0040000000000000036,-0.01100000000000001,-0.0030000000000000027,-0.0020000000000000018,0.0050000000000000044,0.006000000000000005,0.13,-0.03799999999999998,0.33599999999999997,0.5119999999999999,-0.05399999999999994,-0.24499999999999988,0.025481713590664867,-0.008313821158424162,-0.007025719408872533,0.0370865045613229,-0.006838946070876206,-0.009523213270119069,-0.2768771719677442,-0.5150942079563698,-0.006838946070876206,-0.2768771719677442,5,Swing,1.0
1777415144087,0.37,0.531,-0.9,0.145,-0.802,0.534,149.49461000012818,-19.623967857653803,1.1085400308513897,0.9743638950617989,3.26,999,log_v5_3_runtime.csv,0,False,0.555,-0.0010000000000000009,0.0030000000000000027,0.006000000000000005,0.009000000000000008,-0.006000000000000005,-0.01100000000000001,0.022999999999999993,-0.10700000000000001,-0.19900000000000007,-0.535,-0.13,-0.07600000000000007,-0.01303499540730968,-0.03851670899797455,0.046664113688585473,0.053689833097458006,0.007403345421283847,0.014242291492160053,0.0691628124287742,0.3460399843965184,0.007403345421283847,0.0691628124287742,5,Swing,1.0
1777415144100,0.37,0.535,-0.891,0.13,-0.84,0.664,149.36567091592562,-19.61654783768955,1.1031799490563632,1.07860836265996,3.245,999,log_v5_3_runtime.csv,0,False,0.568,0.0,0.0010000000000000009,0.0040000000000000036,-0.0020000000000000018,0.009000000000000008,0.015000000000000013,-0.014999999999999986,-0.03799999999999998,-0.03799999999999992,0.16100000000000014,0.13,0.26,-0.12893908420255684,-0.11590408879524716,0.00742001996425401,-0.039244093724331464,-0.005360081795026561,-0.012763427216310408,0.1042444675981612,0.035081655169386994,-0.005360081795026561,0.1042444675981612,5,Swing,1.0
1777415144114,0.367,0.53,-0.89,0.008,-1.115,0.626,149.32792819739396,-19.587501410851086,1.098949043404652,1.2787357037324016,4.341,999,log_v5_3_runtime.csv,0,False,0.582,-0.0030000000000000027,-0.0030000000000000027,-0.0050000000000000044,-0.009000000000000008,0.0010000000000000009,-0.008000000000000007,-0.122,-0.10700000000000001,-0.275,-0.2370000000000001,-0.038000000000000034,-0.16800000000000004,-0.03774271853166056,0.09119636567089628,0.02904642683846248,0.02162640687420847,-0.0042309056517111365,0.0011291761433154246,0.20012734107244157,0.09588287347428037,-0.0042309056517111365,0.20012734107244157,5,Swing,1.0
1777415144128,0.365,0.531,-0.893,-0.122,-1.046,0.542,149.31044989422807,-19.525300819106278,1.101197075913299,1.1843833838753395,3.911,999,log_v5_3_runtime.csv,0,False,0.596,-0.0020000000000000018,0.0010000000000000009,0.0010000000000000009,0.006000000000000005,-0.0030000000000000027,-0.0040000000000000036,-0.13,-0.008000000000000007,0.06899999999999995,0.344,-0.08399999999999996,-0.04599999999999993,-0.01747830316588761,0.020264415365772948,0.06220059174480852,0.03315416490634604,0.0022480325086469133,0.00647893816035805,-0.09435231985706216,-0.29447966092950373,0.0022480325086469133,-0.09435231985706216,5,Swing,1.0
1777415144142,0.365,0.522,-0.888,0.031,-0.725,0.725,149.37553770153878,-19.52161487311181,1.09281883219498,1.0257733667823512,3.269,999,log_v5_3_runtime.csv,0,False,0.61,0.0,0.0020000000000000018,-0.009000000000000008,-0.010000000000000009,0.0050000000000000044,0.008000000000000007,0.153,0.28300000000000003,0.32100000000000006,0.2520000000000001,0.18299999999999994,0.2669999999999999,0.06508780731070374,0.08256611047659135,0.0036859459944658113,-0.05851464575034271,-0.008378243718318856,-0.01062627622696577,-0.15861001709298828,-0.06425769723592611,-0.008378243718318856,-0.15861001709298828,5,Swing,1.0
1777415144155,0.372,0.519,-0.894,0.206,-0.817,0.725,149.50729702744493,-19.59462741876113,1.09862687023393,1.1115529676987956,3.278,999,log_v5_3_runtime.csv,0,False,0.623,0.007000000000000006,0.007000000000000006,-0.0030000000000000027,0.006000000000000005,-0.006000000000000005,-0.01100000000000001,0.175,0.021999999999999992,-0.09199999999999997,-0.41300000000000003,0.0,-0.18299999999999994,0.13175932590615957,0.06667151859545584,-0.0730125456493198,-0.07669849164378562,0.005808038038949803,0.01418628175726866,0.08577960091644443,0.2443896180094327,0.005808038038949803,0.08577960091644443,5,Swing,1.0
1777415144168,0.368,0.533,-0.894,0.221,-0.771,0.519,149.42339688212155,-19.56143873367214,1.1039696553800744,0.9553235054158357,3.258,999,log_v5_3_runtime.csv,0,False,0.636,-0.0040000000000000036,-0.01100000000000001,0.014000000000000012,0.017000000000000015,0.0,0.006000000000000005,0.015000000000000013,-0.15999999999999998,0.04599999999999993,0.1379999999999999,-0.20599999999999996,-0.20599999999999996,-0.08390014532338341,-0.215659471229543,0.033188685088990866,0.10620123073831067,0.005342785146144502,-0.00046525289280530124,-0.15622946228295997,-0.2420090631994044,0.005342785146144502,-0.15622946228295997,5,Swing,1.0
1777415144182,0.375,0.528,-0.896,0.015,-0.924,0.611,149.44132599140957,-19.633488054764758,1.1055428530816886,1.1078456571201605,3.255,999,log_v5_3_runtime.csv,0,False,0.65,0.007000000000000006,0.01100000000000001,-0.0050000000000000044,-0.019000000000000017,-0.0020000000000000018,-0.0020000000000000018,-0.20600000000000002,-0.22100000000000003,-0.15300000000000002,-0.19899999999999995,0.09199999999999997,0.29799999999999993,0.017929109288019163,0.10182925461140258,-0.07204932109261719,-0.10523800618160806,0.0015731977016142373,-0.0037695874445302646,0.15252215170432482,0.3087516139872848,0.0015731977016142373,0.15252215170432482,5,Swing,1.0
1777415144195,0.368,0.525,-0.894,-0.038,-0.954,0.45,149.477840152714,-19.60890832828916,1.1001295378272506,1.0554904073462723,3.909,999,log_v5_3_runtime.csv,0,False,0.663,-0.007000000000000006,-0.014000000000000012,-0.0030000000000000027,0.0020000000000000018,0.0020000000000000018,0.0040000000000000036,-0.053,0.15300000000000002,-0.029999999999999916,0.12300000000000011,-0.16099999999999998,-0.25299999999999995,0.03651416130443863,0.018585052016419468,0.02457972647559714,0.09662904756821433,-0.005413315254438,-0.006986512956052238,-0.05235524977388817,-0.20487740147821298,-0.005413315254438,-0.05235524977388817,5,Swing,1.0
1777415144209,0.363,0.524,-0.905,-0.145,-0.779,0.664,149.5997026100998,-19.482988954704854,1.1069643174014239,1.0338094602004761,3.274,999,log_v5_3_runtime.csv,0,False,0.677,-0.0050000000000000044,0.0020000000000000018,-0.0010000000000000009,0.0020000000000000018,-0.01100000000000001,-0.013000000000000012,-0.10699999999999998,-0.053999999999999986,0.17499999999999993,0.20499999999999985,0.21400000000000002,0.375,0.12186245738578805,0.08534829608134942,0.12591937358430627,0.10133964710870913,0.006834779574173222,0.012248094828611222,-0.02168094714579616,0.03067430262809201,0.006834779574173222,-0.02168094714579616,5,Swing,1.0
1777415144222,0.365,0.527,-0.883,0.099,-0.74,0.504,149.4836218763237,-19.499043327344,1.0911658902293455,0.900786878234802,3.252,999,log_v5_3_runtime.csv,0,False,0.69,0.0020000000000000018,0.007000000000000006,0.0030000000000000027,0.0040000000000000036,0.02200000000000002,0.03300000000000003,0.244,0.351,0.039000000000000035,-0.1359999999999999,-0.16000000000000003,-0.37400000000000005,-0.1160807337761014,-0.23794319116188944,-0.016054372639146663,-0.14197374622345293,-0.015798427172078355,-0.022633206746251577,-0.13302258196567418,-0.11134163481987802,-0.015798427172078355,-0.13302258196567418,5,Swing,1.0
1777415144236,0.368,0.521,-0.89,0.137,-0.718,0.687,149.5300778830316,-19.536668405963336,1.0949726023969732,1.0031261137065468,3.244,999,log_v5_3_runtime.csv,0,False,0.704,0.0030000000000000027,0.0010000000000000009,-0.006000000000000005,-0.009000000000000008,-0.007000000000000006,-0.029000000000000026,0.038000000000000006,-0.206,0.02200000000000002,-0.017000000000000015,0.18300000000000005,0.3430000000000001,0.04645600670789918,0.16253674048400057,-0.037625078619335284,-0.02157070598018862,0.003806712167627735,0.01960513933970609,0.10233923547174484,0.23536181743741902,0.003806712167627735,0.10233923547174484,5,Swing,1.0
1777415144249,0.373,0.531,-0.893,0.16,-0.84,0.664,149.4579875865628,-19.594038127501882,1.1038745399727272,1.082633825446074,3.265,999,log_v5_3_runtime.csv,0,False,0.717,0.0050000000000000044,0.0020000000000000018,0.010000000000000009,0.016000000000000014,-0.0030000000000000027,0.0040000000000000036,0.022999999999999993,-0.015000000000000013,-0.122,-0.14400000000000002,-0.02300000000000002,-0.20600000000000007,-0.07209029646878662,-0.1185463031766858,-0.057369721538545804,-0.01974464291921052,0.008901937575753971,0.005095225408126236,0.07950771173952709,-0.02283152373221775,0.008901937575753971,0.07950771173952709,5,Swing,1.0
1777415144263,0.371,0.53,-0.899,-0.046,-0.824,0.672,149.46360537623204,-19.587627648754975,1.1075838568704404,1.064272521490619,3.925,999,log_v5_3_runtime.csv,0,False,0.731,-0.0020000000000000018,-0.007000000000000006,-0.0010000000000000009,-0.01100000000000001,-0.006000000000000005,-0.0030000000000000027,-0.20600000000000002,-0.229,0.016000000000000014,0.138,0.008000000000000007,0.031000000000000028,0.005617789669230433,0.07770808613801705,0.0064104787469077,0.0637802002854535,0.003709316897713144,-0.005192620678040827,-0.018361303955454877,-0.09786901569498196,0.003709316897713144,-0.018361303955454877,5,Swing,1.0
1777415144278,0.367,0.533,-0.891,-0.206,-1.115,0.527,149.3686052154842,-19.555146035548752,1.1012079730913684,1.2503559493200327,4.271,999,log_v5_3_runtime.csv,0,False,0.746,-0.0040000000000000036,-0.0020000000000000018,0.0030000000000000027,0.0040000000000000036,0.008000000000000007,0.014000000000000012,-0.15999999999999998,0.04600000000000004,-0.29100000000000004,-0.30700000000000005,-0.14500000000000002,-0.15300000000000002,-0.09500016074784412,-0.10061795041707455,0.03248161320622245,0.02607113445931475,-0.006375883779071945,-0.010085200676785089,0.18608342782941367,0.20444473178486855,-0.006375883779071945,0.18608342782941367,5,Swing,1.0
1777415144291,0.364,0.524,-0.895,-0.153,-0.954,0.695,149.44519299389796,-19.496964001143677,1.09913465963002,1.1901890606118004,3.246,999,log_v5_3_runtime.csv,0,False,0.759,-0.0030000000000000027,0.0010000000000000009,-0.009000000000000008,-0.01200000000000001,-0.0040000000000000036,-0.01200000000000001,0.05299999999999999,0.21299999999999997,0.16100000000000003,0.45200000000000007,0.16799999999999993,0.31299999999999994,0.07658777841376718,0.1715879391616113,0.058182034405074745,0.025700421198852297,-0.002073313461348425,0.00430257031772352,-0.06016688870823228,-0.24625031653764595,-0.002073313461348425,-0.06016688870823228,5,Swing,1.0
1777415144304,0.372,0.527,-0.89,0.099,-1.008,0.725,149.42454067717142,-19.573795551977316,1.099187427147891,1.2455882144593373,3.261,999,log_v5_3_runtime.csv,0,False,0.772,0.008000000000000007,0.01100000000000001,0.0030000000000000027,0.01200000000000001,0.0050000000000000044,0.009000000000000008,0.252,0.199,-0.05400000000000005,-0.21500000000000008,0.030000000000000027,-0.1379999999999999,-0.02065231672654022,-0.0972400951403074,-0.07683155083363857,-0.13501358523871332,5.276751787097744e-05,0.0021260809792194024,0.05539915384753691,0.11556604255576919,5.276751787097744e-05,0.05539915384753691,5,Swing,1.0
1777415144318,0.37,0.527,-0.897,0.008,-0.977,0.687,149.46253274770888,-19.57488379577067,1.1041911066477579,1.194387709246876,3.251,999,log_v5_3_runtime.csv,0,False,0.786,-0.0020000000000000018,-0.010000000000000009,0.0,-0.0030000000000000027,-0.007000000000000006,-0.01200000000000001,-0.091,-0.34299999999999997,0.031000000000000028,0.08500000000000008,-0.03799999999999992,-0.06799999999999995,0.0379920705374559,0.05864438726399612,-0.001088243793354593,0.07574330704028398,0.005003679499866909,0.004950911981995931,-0.051200505212461334,-0.10659965905999824,0.005003679499866909,-0.051200505212461334,5,Swing,1.0
1777415144331,0.373,0.532,-0.898,0.206,-0.908,0.763,149.43384095419182,-19.599231640885574,1.1084029050846087,1.2037728190983548,3.908,999,log_v5_3_runtime.csv,0,False,0.799,0.0030000000000000027,0.0050000000000000044,0.0050000000000000044,0.0050000000000000044,-0.0010000000000000009,0.006000000000000005,0.19799999999999998,0.289,0.06899999999999995,0.03799999999999992,0.07599999999999996,0.11399999999999988,-0.028691793517054975,-0.06668386405451088,-0.024347845114903066,-0.023259601321548473,0.004211798436850822,-0.0007918810630160866,0.009385109851478779,0.06058561506394011,0.004211798436850822,0.009385109851478779,5,Swing,1.0
1777415144345,0.369,0.528,-0.894,0.069,-1.076,0.573,149.4338110090652,-19.58999107598556,1.1018988156813674,1.2210102374673195,3.576,999,log_v5_3_runtime.csv,0,False,0.813,-0.0040000000000000036,-0.007000000000000006,-0.0040000000000000036,-0.009000000000000008,0.0040000000000000036,0.0050000000000000044,-0.13699999999999998,-0.33499999999999996,-0.16800000000000004,-0.237,-0.19000000000000006,-0.266,-2.994512661302906e-05,0.028661848390441946,0.009240564900014903,0.03358841001491797,-0.00650408940324132,-0.010715887840092142,0.017237418368964752,0.007852308517485973,-0.00650408940324132,0.017237418368964752,5,Swing,1.0
1777415144359,0.366,0.529,-0.893,-0.038,-1.137,0.649,149.41336436429398,-19.545145794718884,1.100566217907855,1.309738141767277,3.253,999,log_v5_3_runtime.csv,0,False,0.827,-0.0030000000000000027,0.0010000000000000009,0.0010000000000000009,0.0050000000000000044,0.0010000000000000009,-0.0030000000000000027,-0.10700000000000001,0.02999999999999997,-0.06099999999999994,0.1070000000000001,0.07600000000000007,0.2660000000000001,-0.020446644771226374,-0.020416699644613345,0.04484528126667442,0.03560471636665952,-0.0013325977735123562,0.005171491629728964,0.08872790429995758,0.07149048593099283,-0.0013325977735123562,0.08872790429995758,5,Swing,1.0
1777415144373,0.367,0.527,-0.884,-0.092,-0.908,0.611,149.35533201645234,-19.56703901277266,1.0926454136635544,1.098293676572892,4.301,999,log_v5_3_runtime.csv,0,False,0.841,0.0010000000000000009,0.0040000000000000036,-0.0020000000000000018,-0.0030000000000000027,0.009000000000000008,0.008000000000000007,-0.054,0.05300000000000001,0.22899999999999998,0.2899999999999999,-0.038000000000000034,-0.1140000000000001,-0.058032347841646015,-0.03758570307041964,-0.02189321805377631,-0.06673849932045073,-0.007920804244300639,-0.006588206470788283,-0.2114444651943852,-0.3001723694943428,-0.007920804244300639,-0.2114444651943852,5,Swing,1.0
1777415144386,0.362,0.524,-0.879,0.031,-1.023,0.695,149.31322731954103,-19.543788354884818,1.085477314364515,1.2371398465816223,3.25,999,log_v5_3_runtime.csv,0,False,0.854,-0.0050000000000000044,-0.006000000000000005,-0.0030000000000000027,-0.0010000000000000009,0.0050000000000000044,-0.0040000000000000036,0.123,0.177,-0.11499999999999988,-0.34399999999999986,0.08399999999999996,0.122,-0.04210469691130925,0.015927650930336767,0.023250657887842863,0.04514387594161917,-0.007168099299039499,0.0007527049452611401,0.13884617000873045,0.35029063520311565,-0.007168099299039499,0.13884617000873045,5,Swing,1.0
1777415144400,0.371,0.525,-0.899,0.046,-0.824,0.664,149.42199348727243,-19.56282394484178,1.1051999819037277,1.059239349722243,3.915,999,log_v5_3_runtime.csv,0,False,0.868,0.009000000000000008,0.014000000000000012,0.0010000000000000009,0.0040000000000000036,-0.020000000000000018,-0.025000000000000022,0.015,-0.108,0.19899999999999995,0.31399999999999983,-0.030999999999999917,-0.11499999999999988,0.10876616773140313,0.15087086464271238,-0.01903558995696386,-0.042286247844806724,0.019722667539212813,0.02689076683825231,-0.17790049685937936,-0.3167466668681098,0.019722667539212813,-0.17790049685937936,5,Swing,1.0
1777415144414,0.366,0.53,-0.894,0.16,-0.954,0.466,149.39951625800498,-19.518917313985288,1.10185843010797,1.0737187713735845,3.254,999,log_v5_3_runtime.csv,0,False,0.882,-0.0050000000000000044,-0.014000000000000012,0.0050000000000000044,0.0040000000000000036,0.0050000000000000044,0.025000000000000022,0.114,0.099,-0.13,-0.32899999999999996,-0.198,-0.1670000000000001,-0.02247722926745155,-0.13124339699885468,0.04390663085649393,0.0629422208134578,-0.003341551795757791,-0.023064219334970604,0.014479421651341529,0.1923799185107209,-0.003341551795757791,0.014479421651341529,5,Swing,1.0
1777415144427,0.364,0.531,-0.894,0.176,-0.901,0.626,149.3703062756962,-19.45798573975785,1.1016773574872092,1.1111494048956694,3.258,999,log_v5_3_runtime.csv,0,False,0.895,-0.0020000000000000018,0.0030000000000000027,0.0010000000000000009,-0.0040000000000000036,0.0,-0.0050000000000000044,0.015999999999999986,-0.09800000000000002,0.052999999999999936,0.18299999999999994,0.15999999999999998,0.358,-0.029209982308771032,-0.006732753041319484,0.060931574227439,0.017024943370945067,-0.00018107262076072494,0.003160479174997066,0.037430633522084866,0.022951211870743338,-0.00018107262076072494,0.037430633522084866,5,Swing,1.0
1777415144441,0.365,0.531,-0.891,-0.061,-0.908,0.771,149.32612488613938,-19.4387932601972,1.099575827307967,1.19273886496584,3.27,999,log_v5_3_runtime.csv,0,False,0.909,0.0010000000000000009,0.0030000000000000027,0.0,-0.0010000000000000009,0.0030000000000000027,0.0030000000000000027,-0.237,-0.253,-0.007000000000000006,-0.05999999999999994,0.14500000000000002,-0.014999999999999958,-0.044181389556825934,-0.014971407248054902,0.019192479560647513,-0.04173909466679149,-0.0021015301792421948,-0.0019204575584814698,0.08158946007017054,0.04415882654808567,-0.0021015301792421948,0.08158946007017054,5,Swing,1.0
1777415144455,0.366,0.527,-0.891,0.038,-0.901,0.588,149.3452581143078,-19.44763996542862,1.0979826956742078,1.0765635141504657,3.259,999,log_v5_3_runtime.csv,0,False,0.923,0.0010000000000000009,0.0,-0.0040000000000000036,-0.0040000000000000036,0.0,-0.0030000000000000027,0.099,0.33599999999999997,0.007000000000000006,0.014000000000000012,-0.18300000000000005,-0.32800000000000007,0.019133228168414007,0.06331461772523994,-0.00884670523142006,-0.028039184792067573,-0.0015931316337591817,0.0005083985454830131,-0.11617535081537422,-0.19776481088554476,-0.0015931316337591817,-0.11617535081537422,5,Swing,1.0
1777415144468,0.368,0.519,-0.888,-0.031,-0.878,0.603,149.43986340106295,-19.51218192377995,1.0923959904723195,1.065576839087637,3.918,999,log_v5_3_runtime.csv,0,False,0.936,0.0020000000000000018,0.0010000000000000009,-0.008000000000000007,-0.0040000000000000036,0.0030000000000000027,0.0030000000000000027,-0.069,-0.168,0.02300000000000002,0.016000000000000014,0.015000000000000013,0.19800000000000006,0.09460528675515434,0.07547205858674033,-0.06454195835132737,-0.055695253119907306,-0.005586705201888309,-0.003993573568129127,-0.010986675062828688,0.10518867575254554,-0.005586705201888309,-0.010986675062828688,5,Swing,1.0
1777415144482,0.366,0.529,-0.904,0.107,-0.847,0.611,149.50063444988777,-19.444379054453485,1.1095102523185623,1.0498471317291866,3.257,999,log_v5_3_runtime.csv,0,False,0.95,-0.0020000000000000018,-0.0040000000000000036,0.010000000000000009,0.018000000000000016,-0.016000000000000014,-0.019000000000000017,0.138,0.20700000000000002,0.031000000000000028,0.008000000000000007,0.008000000000000007,-0.007000000000000006,0.06077104882481876,-0.033834237930335576,0.06780286932646362,0.132344827677791,0.017114261846242762,0.02270096704813107,-0.015729707358450362,-0.004743032295621674,0.017114261846242762,-0.015729707358450362,5,Swing,1.0
1777415144495,0.369,0.528,-0.888,0.206,-0.885,0.542,149.43684458381637,-19.501362090512526,1.097036462475154,1.0580288275845797,3.258,999,log_v5_3_runtime.csv,0,False,0.963,0.0030000000000000027,0.0050000000000000044,-0.0010000000000000009,-0.01100000000000001,0.016000000000000014,0.03200000000000003,0.09899999999999999,-0.03900000000000002,-0.038000000000000034,-0.06900000000000006,-0.06899999999999995,-0.07699999999999996,-0.06378986607140291,-0.12456091489622168,-0.05698303605904087,-0.12478590538550449,-0.01247378984340819,-0.02958805168965095,0.008181695855393079,0.02391140321384344,-0.01247378984340819,0.008181695855393079,5,Swing,1.0
1777415144509,0.37,0.532,-0.893,0.046,-1.069,0.618,149.3771424626429,-19.526234074597095,1.1033462738415354,1.2356378919408388,3.251,999,log_v5_3_runtime.csv,0,False,0.977,0.0010000000000000009,-0.0020000000000000018,0.0040000000000000036,0.0050000000000000044,-0.0050000000000000044,-0.02100000000000002,-0.15999999999999998,-0.25899999999999995,-0.18399999999999994,-0.1459999999999999,0.07599999999999996,0.1449999999999999,-0.05970212117347273,0.004087744897930179,-0.024871984084569476,0.032111051974471394,0.006309811366381313,0.018783601209789502,0.17760906435625912,0.16942736850086604,0.006309811366381313,0.17760906435625912,5,Swing,1.0
1777415144522,0.369,0.538,-0.893,0.008,-0.901,0.702,149.25703747807773,-19.516727803159345,1.1059177184582947,1.1422210819276626,3.247,999,log_v5_3_runtime.csv,0,False,0.99,-0.0010000000000000009,-0.0020000000000000018,0.006000000000000005,0.0020000000000000018,0.0,0.0050000000000000044,-0.038,0.12199999999999997,0.16799999999999993,0.35199999999999987,0.08399999999999996,0.008000000000000007,-0.12010498456515961,-0.06040286339168688,0.009506271437750513,0.03437825552231999,0.0025714446167592886,-0.003738366749622024,-0.09341681001317625,-0.27102587436943537,0.0025714446167592886,-0.09341681001317625,5,Swing,1.0
1777415144536,0.375,0.529,-0.888,0.099,-0.878,0.802,149.24618509216208,-19.63128698220452,1.0995499079168713,1.19326820120206,5.112,999,log_v5_3_runtime.csv,0,False,1.004,0.006000000000000005,0.007000000000000006,-0.009000000000000008,-0.015000000000000013,0.0050000000000000044,0.0050000000000000044,0.091,0.129,0.02300000000000002,-0.1449999999999999,0.10000000000000009,0.016000000000000125,-0.01085238591565485,0.10925259864950476,-0.11455917904517676,-0.12406545048292728,-0.006367810541423324,-0.008939255158182613,0.05104711927439731,0.14446392928757357,-0.006367810541423324,0.05104711927439731,5,Swing,1.0
1777415144551,0.37,0.53,-0.898,0.069,-0.878,0.565,149.301483812151,-19.605668079336873,1.1064375264785626,1.0463603585763368,3.259,999,log_v5_3_runtime.csv,0,False,1.019,-0.0050000000000000044,-0.01100000000000001,0.0010000000000000009,0.010000000000000009,-0.010000000000000009,-0.015000000000000013,-0.03,-0.121,0.0,-0.02300000000000002,-0.2370000000000001,-0.3370000000000002,0.05529871998891167,0.06615110590456652,0.025618902867648785,0.14017808191282555,0.006887618561691289,0.013255429103114613,-0.1469078426257231,-0.1979549619001204,0.006887618561691289,-0.1469078426257231,5,Swing,1.0
1777415144564,0.362,0.526,-0.888,0.115,-0.893,0.542,149.3172774632693,-19.53064307352077,1.093738542797135,1.0509224519440052,3.246,999,log_v5_3_runtime.csv,0,False,1.032,-0.008000000000000007,-0.0030000000000000027,-0.0040000000000000036,-0.0050000000000000044,0.010000000000000009,0.020000000000000018,0.046,0.076,-0.015000000000000013,-0.015000000000000013,-0.02299999999999991,0.2140000000000002,0.01579365111831521,-0.03950506887059646,0.0750250058161015,0.04940610294845271,-0.012698983681427745,-0.019586602243119033,0.0045620933676684405,0.15146993599339154,-0.012698983681427745,0.0045620933676684405,5,Swing,1.0
1777415144577,0.371,0.53,-0.896,-0.046,-0.878,0.473,149.33825506318922,-19.553478338121035,1.1051502160340014,0.998363160378026,3.264,999,log_v5_3_runtime.csv,0,False,1.045,0.009000000000000008,0.017000000000000015,0.0040000000000000036,0.008000000000000007,-0.008000000000000007,-0.018000000000000016,-0.161,-0.20700000000000002,0.015000000000000013,0.030000000000000027,-0.06900000000000006,-0.04600000000000015,0.020977599919916656,0.005183948801601446,-0.022835264600264082,-0.09786027041636558,0.011411673236866537,0.024110656918294282,-0.05255929156597927,-0.05712138493364771,0.011411673236866537,-0.05255929156597927,5,Swing,1.0
1777415144591,0.372,0.525,-0.898,0.076,-0.916,0.725,149.43275574665918,-19.58715560218505,1.104723042214654,1.1706651955191971,3.252,999,log_v5_3_runtime.csv,0,False,1.059,0.0010000000000000009,-0.008000000000000007,-0.0050000000000000044,-0.009000000000000008,-0.0020000000000000018,0.006000000000000005,0.122,0.28300000000000003,-0.038000000000000034,-0.05300000000000005,0.252,0.32100000000000006,0.09450068346995977,0.07352308355004311,-0.03367726406401417,-0.010841999463750085,-0.0004271738193475372,-0.011838847056214075,0.17230203514117115,0.22486132670715042,-0.0004271738193475372,0.17230203514117115,5,Swing,1.0
1777415144604,0.376,0.527,-0.897,0.031,-0.977,0.595,149.46852846514355,-19.66373663846251,1.1062160729260808,1.144340421378184,3.939,999,log_v5_3_runtime.csv,0,False,1.072,0.0040000000000000036,0.0030000000000000027,0.0020000000000000018,0.007000000000000006,0.0010000000000000009,0.0030000000000000027,-0.045,-0.16699999999999998,-0.06099999999999994,-0.02299999999999991,-0.13,-0.382,0.035772718484366806,-0.05872796498559296,-0.07658103627746016,-0.04290377221344599,0.0014930307114269237,0.0019202045307744608,-0.026324774141013085,-0.19862680928218424,0.0014930307114269237,-0.026324774141013085,5,Swing,1.0
1777415144618,0.368,0.53,-0.887,0.053,-0.885,0.542,149.38000402586513,-19.64738582649367,1.0968559613732334,1.0391332927011818,3.26,999,log_v5_3_runtime.csv,0,False,1.086,-0.008000000000000007,-0.01200000000000001,0.0030000000000000027,0.0010000000000000009,0.010000000000000009,0.009000000000000008,0.022,0.067,0.09199999999999997,0.1529999999999999,-0.052999999999999936,0.07700000000000007,-0.08852443927841591,-0.12429715776278272,0.01635081196883803,0.09293184824629819,-0.009360111552847439,-0.010853142264274362,-0.10520712867700222,-0.07888235453598913,-0.009360111552847439,-0.10520712867700222,5,Swing,1.0
1777415144632,0.363,0.529,-0.898,0.115,-0.893,0.603,149.4119408487433,-19.527274649651567,1.1036367155907783,1.083643391526936,3.267,999,log_v5_3_runtime.csv,0,False,1.1,-0.0050000000000000044,0.0030000000000000027,-0.0010000000000000009,-0.0040000000000000036,-0.01100000000000001,-0.02100000000000002,0.062000000000000006,0.04000000000000001,-0.008000000000000007,-0.09999999999999998,0.06099999999999994,0.11399999999999988,0.03193682287817978,0.1204612621565957,0.12011117684210504,0.10376036487326701,0.006780754217544871,0.01614086577039231,0.044510098825754074,0.1497172275027563,0.006780754217544871,0.044510098825754074,5,Swing,1.0
1777415144645,0.375,0.527,-0.891,0.153,-0.908,0.672,149.40789036153652,-19.63151025912613,1.1010154404003607,1.139937278976348,3.264,999,log_v5_3_runtime.csv,0,False,1.113,0.01200000000000001,0.017000000000000015,-0.0020000000000000018,-0.0010000000000000009,0.007000000000000006,0.018000000000000016,0.03799999999999999,-0.024000000000000014,-0.015000000000000013,-0.007000000000000006,0.06900000000000006,0.008000000000000118,-0.0040504872067970155,-0.0359873100849768,-0.10423560947456423,-0.22434678631666927,-0.002621275190417549,-0.00940202940796242,0.056293887449412106,0.011783788623658031,-0.002621275190417549,0.056293887449412106,5,Swing,1.0
1777415144658,0.37,0.53,-0.891,0.061,-0.748,0.588,149.36638109858612,-19.63414999874783,1.100763825713763,0.9533986574355976,3.267,999,log_v5_3_runtime.csv,0,False,1.126,-0.0050000000000000044,-0.017000000000000015,0.0030000000000000027,0.0050000000000000044,0.0,-0.007000000000000006,-0.092,-0.13,0.16000000000000003,0.17500000000000004,-0.08400000000000007,-0.15300000000000014,-0.041509262950398806,-0.03745877574360179,-0.0026397396216992774,0.10159586985286495,-0.0002516146865976232,0.002369660503819926,-0.1865386215407504,-0.2428325089901625,-0.0002516146865976232,-0.1865386215407504,5,Swing,1.0
1777415144672,0.368,0.53,-0.896,-0.053,-0.84,0.55,149.3740930463997,-19.58940637634672,1.1041467293797504,1.0054397048058128,3.928,999,log_v5_3_runtime.csv,0,False,1.14,-0.0020000000000000018,0.0030000000000000027,0.0,-0.0030000000000000027,-0.0050000000000000044,-0.0050000000000000044,-0.11399999999999999,-0.021999999999999992,-0.09199999999999997,-0.252,-0.03799999999999992,0.04600000000000015,0.007711947813589859,0.049221210763988665,0.04474362240111063,0.047383362022809905,0.003382903665987369,0.0036345183525849922,0.0520410473702152,0.2385796689109656,0.003382903665987369,0.0520410473702152,5,Swing,1.0
1777415144686,0.37,0.533,-0.899,-0.015,-0.718,0.42,149.36410040353232,-19.563952348305413,1.1086884142986253,0.8319549266636985,3.254,999,log_v5_3_runtime.csv,0,False,1.154,0.0020000000000000018,0.0040000000000000036,0.0030000000000000027,0.0030000000000000027,-0.0030000000000000027,0.0020000000000000018,0.038,0.152,0.122,0.21399999999999997,-0.13000000000000006,-0.09200000000000014,-0.009992642867388213,-0.017704590680978072,0.02545402804130603,-0.019289594359804596,0.004541684918874855,0.0011587812528874863,-0.17348477814211427,-0.22552582551232947,0.004541684918874855,-0.17348477814211427,5,Swing,1.0
1777415144699,0.365,0.53,-0.891,0.008,-0.924,0.542,149.33442126975436,-19.518523933609412,1.0990932626488072,1.0712628062245044,3.26,999,log_v5_3_runtime.csv,0,False,1.167,-0.0050000000000000044,-0.007000000000000006,-0.0030000000000000027,-0.006000000000000005,0.008000000000000007,0.01100000000000001,0.023,-0.015,-0.20600000000000007,-0.32800000000000007,0.12200000000000005,0.2520000000000001,-0.029679133777960942,-0.01968649091057273,0.04542841469600134,0.01997438665469531,-0.009595151649818057,-0.014136836568692912,0.2393078795608059,0.4127926577029202,-0.009595151649818057,0.2393078795608059,5,Swing,1.0
1777415144712,0.371,0.528,-0.889,-0.023,-0.817,0.702,149.32318582455895,-19.577941068573583,1.0985199133379422,1.0774144977676883,3.262,999,log_v5_3_runtime.csv,0,False,1.18,0.006000000000000005,0.01100000000000001,-0.0020000000000000018,0.0010000000000000009,0.0020000000000000018,-0.006000000000000005,-0.031,-0.054,0.1070000000000001,0.31300000000000017,0.15999999999999992,0.03799999999999987,-0.01123544519541042,0.01844368858255052,-0.059417134964171225,-0.10484554966017257,-0.0005733493108650567,0.009021802338953,0.006151691543183846,-0.23315618801762206,-0.0005733493108650567,0.006151691543183846,5,Swing,1.0
1777415144726,0.368,0.525,-0.886,0.053,-0.733,0.641,149.3307282818387,-19.60099023201029,1.0936384228802498,0.9751815215640625,3.254,999,log_v5_3_runtime.csv,0,False,1.194,-0.0030000000000000027,-0.009000000000000008,-0.0030000000000000027,-0.0010000000000000009,0.0030000000000000027,0.0010000000000000009,0.076,0.107,0.08399999999999996,-0.02300000000000013,-0.06099999999999994,-0.22099999999999986,0.007542457279754444,0.018777902475164865,-0.023049163436706266,0.03636797152746496,-0.004881490457692372,-0.004308141146827316,-0.10223297620362581,-0.10838466774680966,-0.004881490457692372,-0.10223297620362581,5,Swing,1.0
1777415144739,0.365,0.527,-0.883,0.168,-0.924,0.771,149.28731263367632,-19.58516582657658,1.0911658902293455,1.2150888856375899,3.95,999,log_v5_3_runtime.csv,0,False,1.207,-0.0030000000000000027,0.0,0.0020000000000000018,0.0050000000000000044,0.0030000000000000027,0.0,0.11500000000000002,0.03900000000000002,-0.19100000000000006,-0.275,0.13,0.19099999999999995,-0.043415648162380194,-0.05095810544213464,0.015824405433708222,0.03887356887041449,-0.002472532650904302,0.00240895780678807,0.23990736407352742,0.34214034027715323,-0.002472532650904302,0.23990736407352742,5,Swing,1.0
1777415144753,0.366,0.527,-0.896,-0.099,-0.87,0.58,149.35483469119455,-19.534305473162743,1.1020440100104896,1.050286151484442,3.255,999,log_v5_3_runtime.csv,0,False,1.221,0.0010000000000000009,0.0040000000000000036,0.0,-0.0020000000000000018,-0.013000000000000012,-0.016000000000000014,-0.267,-0.382,0.05400000000000005,0.2450000000000001,-0.19100000000000006,-0.32100000000000006,0.06752205751823226,0.11093770568061245,0.050860353413838766,0.035035947980130544,0.010878119781144058,0.01335065243204836,-0.16480273415314795,-0.40471009822667536,0.010878119781144058,-0.16480273415314795,5,Swing,1.0
1777415144767,0.365,0.531,-0.892,0.069,-0.954,0.573,149.32246655232225,-19.490483053451744,1.1003862958070678,1.1149914797880744,3.256,999,log_v5_3_runtime.csv,0,False,1.235,-0.0010000000000000009,-0.0020000000000000018,0.0040000000000000036,0.0040000000000000036,0.0040000000000000036,0.017000000000000015,0.168,0.43500000000000005,-0.08399999999999996,-0.138,-0.007000000000000006,0.18400000000000005,-0.03236813887230028,-0.09989019639053254,0.04382241971099887,-0.007037933702839894,-0.0016577142034217562,-0.012535833984565814,0.06470532830363251,0.22950806245678046,-0.0016577142034217562,0.06470532830363251,5,Swing,1.0
1777415144780,0.372,0.524,-0.893,-0.008,-0.695,0.542,149.3964122326066,-19.564013451217086,1.1001858933834774,0.8813926480292424,3.255,999,log_v5_3_runtime.csv,0,False,1.248,0.007000000000000006,0.008000000000000007,-0.007000000000000006,-0.01100000000000001,-0.0010000000000000009,-0.0050000000000000044,-0.07700000000000001,-0.24500000000000002,0.259,0.34299999999999997,-0.030999999999999917,-0.02399999999999991,0.07394568028433923,0.10631381915663951,-0.07353039776534231,-0.11735281747634119,-0.00020040242359042892,0.0014573117798313273,-0.233598831758832,-0.2983041600624645,-0.00020040242359042892,-0.233598831758832,5,Swing,1.0
1777415144793,0.372,0.528,-0.885,0.092,-0.863,0.695,149.33774939152062,-19.64083884515145,1.0956244794636527,1.1118713954410375,3.251,999,log_v5_3_runtime.csv,0,False,1.261,0.0,-0.007000000000000006,0.0040000000000000036,0.01100000000000001,0.008000000000000007,0.009000000000000008,0.1,0.17700000000000002,-0.16800000000000004,-0.42700000000000005,0.1529999999999999,0.18399999999999983,-0.05866284108597597,-0.1326085213703152,-0.07682539393436372,-0.0032949961690214025,-0.004561413919824675,-0.004361011496234246,0.23047874741179508,0.4640775791706271,-0.004561413919824675,0.23047874741179508,5,Swing,1.0
1777415144807,0.367,0.535,-0.891,0.153,-1.046,0.718,149.25118717513186,-19.589169784409165,1.1021773904413028,1.2779080561605363,3.929,999,log_v5_3_runtime.csv,0,False,1.275,-0.0050000000000000044,-0.0050000000000000044,0.007000000000000006,0.0030000000000000027,-0.006000000000000005,-0.014000000000000012,0.061,-0.03900000000000001,-0.18300000000000005,-0.015000000000000013,0.02300000000000002,-0.1299999999999999,-0.0865622163887565,-0.027899375302780527,0.0516690607422845,0.12849445467664822,0.006552910977650095,0.01111432489747477,0.16603666071949874,-0.06444208669229634,0.006552910977650095,0.16603666071949874,5,Swing,1.0
1777415144821,0.375,0.534,-0.895,-0.023,-0.84,0.458,149.2313254272962,-19.643298377153503,1.1076127482112148,0.9570229882296453,3.261,999,log_v5_3_runtime.csv,0,False,1.289,0.008000000000000007,0.013000000000000012,-0.0010000000000000009,-0.008000000000000007,-0.0040000000000000036,0.0020000000000000018,-0.176,-0.237,0.20600000000000007,0.3890000000000001,-0.25999999999999995,-0.283,-0.019861747835648202,0.0667004685531083,-0.05412859274433757,-0.10579765348662207,0.005435357769911997,-0.0011175532077380979,-0.320885067930891,-0.48692172865038974,0.005435357769911997,-0.320885067930891,5,Swing,1.0
1777415144834,0.363,0.531,-0.891,0.153,-0.878,0.534,149.22469057726582,-19.547468757614283,1.0989135543799613,1.0389653507215724,3.27,999,log_v5_3_runtime.csv,0,False,1.302,-0.01200000000000001,-0.020000000000000018,-0.0030000000000000027,-0.0020000000000000018,0.0040000000000000036,0.008000000000000007,0.176,0.352,-0.038000000000000034,-0.2440000000000001,0.07600000000000001,0.33599999999999997,-0.006634850030394546,0.013226897805253657,0.09582961953922009,0.14995821228355766,-0.008699193831253504,-0.014134551601165501,0.0819423624919271,0.4028274304228181,-0.008699193831253504,0.0819423624919271,5,Swing,1.0
1777415144847,0.359,0.527,-0.888,0.122,-0.947,0.664,149.24833315892187,-19.445694300145238,1.0932309911450553,1.1630085984204932,3.263,999,log_v5_3_runtime.csv,0,False,1.315,-0.0040000000000000036,0.008000000000000007,-0.0040000000000000036,-0.0010000000000000009,0.0030000000000000027,-0.0010000000000000009,-0.031,-0.207,-0.06899999999999995,-0.030999999999999917,0.13,0.05399999999999999,0.023642581656048378,0.030277431686442924,0.10177445746904468,0.005944837929824587,-0.005682563234906013,0.0030166305963474915,0.12404324769892083,0.04210088520699373,-0.005682563234906013,0.12404324769892083,5,Swing,1.0
1777415144861,0.365,0.529,-0.893,0.183,-0.794,0.756,149.27799450753147,-19.426563773868487,1.1002340660059569,1.1115129328982187,3.257,999,log_v5_3_runtime.csv,0,False,1.329,0.006000000000000005,0.010000000000000009,0.0020000000000000018,0.006000000000000005,-0.0050000000000000044,-0.008000000000000007,0.061,0.092,0.1529999999999999,0.22199999999999986,0.09199999999999997,-0.038000000000000034,0.029661348609607785,0.006018766953559407,0.019130526276750714,-0.08264393119229396,0.00700307486090157,0.012685638095807583,-0.05149566552227447,-0.1755389132211953,0.00700307486090157,-0.05149566552227447,5,Swing,1.0
1777415144874,0.371,0.527,-0.896,0.076,-0.824,0.641,149.34803391471073,-19.484692336271866,1.1037146370325983,1.0467248922233576,3.925,999,log_v5_3_runtime.csv,0,False,1.342,0.006000000000000005,0.0,-0.0020000000000000018,-0.0040000000000000036,-0.0030000000000000027,0.0020000000000000018,-0.107,-0.16799999999999998,-0.029999999999999916,-0.18299999999999983,-0.11499999999999999,-0.20699999999999996,0.07003940717925161,0.04037805856964383,-0.058128562403378936,-0.07725908868012965,0.0034805710266414547,-0.0035225038342601156,-0.0647880406748611,-0.013292375152586633,0.0034805710266414547,-0.0647880406748611,5,Swing,1.0
1777415144888,0.364,0.532,-0.883,0.13,-0.924,0.672,149.23547593141805,-19.474765350669088,1.0932561456493166,1.1498956474393667,3.254,999,log_v5_3_runtime.csv,0,False,1.356,-0.007000000000000006,-0.013000000000000012,0.0050000000000000044,0.007000000000000006,0.013000000000000012,0.016000000000000014,0.054000000000000006,0.161,-0.10000000000000009,-0.07000000000000017,0.031000000000000028,0.14600000000000002,-0.11255798329267463,-0.18259739047192625,0.00992698560277816,0.0680555480061571,-0.010458491383281698,-0.013939062409923153,0.10317075521600905,0.16795879589087015,-0.010458491383281698,0.10317075521600905,5,Swing,1.0
1777415144901,0.369,0.532,-0.892,0.107,-1.122,0.672,149.22254708933312,-19.497637517522904,1.1022018871332058,1.3122183507328344,3.27,999,log_v5_3_runtime.csv,0,False,1.369,0.0050000000000000044,0.01200000000000001,0.0,-0.0050000000000000044,-0.009000000000000008,-0.02200000000000002,-0.023000000000000007,-0.07700000000000001,-0.19800000000000006,-0.09799999999999998,0.0,-0.031000000000000028,-0.012928842084932057,0.09962914120774258,-0.022872166853815656,-0.032799152456593816,0.008945741483889158,0.019404232867170856,0.16232270329346776,0.059151948077458716,0.008945741483889158,0.16232270329346776,5,Swing,1.0
1777415144915,0.373,0.532,-0.893,0.183,-0.786,0.595,149.2207387674828,-19.563129415735848,1.1043559208878269,1.0026514848141401,3.258,999,log_v5_3_runtime.csv,0,False,1.383,0.0040000000000000036,-0.0010000000000000009,0.0,0.0,-0.0010000000000000009,0.008000000000000007,0.076,0.099,0.3360000000000001,0.5340000000000001,-0.07700000000000007,-0.07700000000000007,-0.0018083218503193166,0.01112052023461274,-0.06549189821294377,-0.04261973135912811,0.0021540337546210875,-0.0067917077292680705,-0.3095668659186943,-0.4718895692121621,0.0021540337546210875,-0.3095668659186943,5,Swing,1.0
1777415144928,0.366,0.526,-0.896,0.183,-0.84,0.611,149.3190876315602,-19.52058657769005,1.1015661577953455,1.0547084905318624,3.255,999,log_v5_3_runtime.csv,0,False,1.396,-0.007000000000000006,-0.01100000000000001,-0.006000000000000005,-0.006000000000000005,-0.0030000000000000027,-0.0020000000000000018,0.0,-0.076,-0.05399999999999994,-0.39,0.016000000000000014,0.09300000000000008,0.09834886407739418,0.1001571859277135,0.04254283804579728,0.10803473625874105,-0.0027897630924813566,-0.004943796847102444,0.052057005717722316,0.3616238716364166,-0.0027897630924813566,0.052057005717722316,5,Swing,1.0
1777415144941,0.37,0.528,-0.891,0.069,-1.023,0.931,149.32725834717078,-19.558023295011772,1.0998022549531348,1.3849371826909695,3.929,999,log_v5_3_runtime.csv,0,False,1.409,0.0040000000000000036,0.01100000000000001,0.0020000000000000018,0.008000000000000007,0.0050000000000000044,0.008000000000000007,-0.11399999999999999,-0.11399999999999999,-0.18299999999999994,-0.129,0.32000000000000006,0.30400000000000005,0.008170715610589241,-0.09017814846680494,-0.0374367173217216,-0.07997955536751888,-0.0017639028422107295,0.001025860250270627,0.3302286921591071,0.2781716864413848,-0.0017639028422107295,0.3302286921591071,5,Swing,1.0
1777415144955,0.368,0.528,-0.896,0.145,-0.718,0.565,149.371159878876,-19.53860075927139,1.103188107260045,0.9250805370344789,3.258,999,log_v5_3_runtime.csv,0,False,1.423,-0.0020000000000000018,-0.006000000000000005,0.0,-0.0020000000000000018,-0.0050000000000000044,-0.010000000000000009,0.07599999999999998,0.18999999999999997,0.30499999999999994,0.4879999999999999,-0.3660000000000001,-0.6860000000000002,0.04390153170521671,0.03573081609462747,0.01942253574038233,0.05685925306210393,0.003385852306910131,0.00514975514912086,-0.45985664565649065,-0.7900853378155978,0.003385852306910131,-0.45985664565649065,5,Swing,1.0
1777415144969,0.368,0.529,-0.894,0.13,-0.733,0.794,149.3752333534076,-19.530111832625273,1.1020440100104896,1.0884047960203043,3.261,999,log_v5_3_runtime.csv,0,False,1.437,0.0,0.0020000000000000018,0.0010000000000000009,0.0010000000000000009,0.0020000000000000018,0.007000000000000006,-0.014999999999999986,-0.09099999999999997,-0.015000000000000013,-0.31999999999999995,0.2290000000000001,0.5950000000000002,0.0040734745315944565,-0.039828057173622256,0.008488926646116113,-0.010933609094266217,-0.0011440972495553314,-0.004529949556465462,0.16332425898582537,0.623180904642316,-0.0011440972495553314,0.16332425898582537,5,Swing,1.0
1777415144982,0.375,0.531,-0.889,-0.046,-0.771,0.718,149.31441588007343,-19.632027447800834,1.101320570951074,1.054552511731872,3.254,999,log_v5_3_runtime.csv,0,False,1.45,0.007000000000000006,0.007000000000000006,0.0020000000000000018,0.0010000000000000009,0.0050000000000000044,0.0030000000000000027,-0.176,-0.161,-0.038000000000000034,-0.02300000000000002,-0.07600000000000007,-0.30500000000000016,-0.060817473334168426,-0.06489094786576288,-0.10191561517556025,-0.11040454182167636,-0.0007234390594155204,0.000420658190139811,-0.033852284288432344,-0.1971765432742577,-0.0007234390594155204,-0.033852284288432344,5,Swing,1.0
1777415144996,0.371,0.526,-0.888,-0.008,-0.931,0.733,149.32671585271012,-19.66974366396528,1.096750199452911,1.1849531636313733,3.251,999,log_v5_3_runtime.csv,0,False,1.464,-0.0040000000000000036,-0.01100000000000001,-0.0050000000000000044,-0.007000000000000006,0.0010000000000000009,-0.0040000000000000036,0.038,0.214,-0.16000000000000003,-0.122,0.015000000000000013,0.09100000000000008,0.01229997263669702,0.07311744597086545,-0.03771621616444776,0.06419939901111249,-0.004570371498163084,-0.0038469324387475634,0.13040065189950134,0.16425293618793368,-0.004570371498163084,0.13040065189950134,5,Swing,1.0
1777415145009,0.367,0.528,-0.891,0.076,-0.962,0.634,149.33282575699153,-19.62708683167608,1.0987966144833174,1.1546324090376123,3.937,999,log_v5_3_runtime.csv,0,False,1.477,-0.0040000000000000036,0.0,0.0020000000000000018,0.007000000000000006,-0.0030000000000000027,-0.0040000000000000036,0.08399999999999999,0.04599999999999999,-0.030999999999999917,0.12900000000000011,-0.09899999999999998,-0.11399999999999999,0.006109904281402123,-0.006190068355294898,0.04265683228920025,0.08037304845364801,0.0020464150304064788,0.006616786528569563,-0.030320754593760935,-0.16072140649326228,0.0020464150304064788,-0.030320754593760935,5,Swing,1.0
1777415145023,0.368,0.527,-0.89,-0.053,-0.924,0.45,149.3425301473261,-19.615695421223066,1.0978401522990493,1.0291185548808262,3.263,999,log_v5_3_runtime.csv,0,False,1.491,0.0010000000000000009,0.0050000000000000044,-0.0010000000000000009,-0.0030000000000000027,0.0010000000000000009,0.0040000000000000036,-0.129,-0.213,0.03799999999999992,0.06899999999999984,-0.184,-0.08500000000000002,0.009704390334576374,0.0035944860531742506,0.011391410453015283,-0.03126542183618497,-0.0009564621842681476,-0.0030028772146746263,-0.12551385415678618,-0.09519309956302524,-0.0009564621842681476,-0.12551385415678618,5,Swing,1.0
1777415145036,0.372,0.535,-0.905,-0.015,-0.931,0.496,149.36078712380314,-19.580672213267636,1.1151833929896913,1.0549890994697528,3.26,999,log_v5_3_runtime.csv,0,False,1.504,0.0040000000000000036,0.0030000000000000027,0.008000000000000007,0.009000000000000008,-0.015000000000000013,-0.016000000000000014,0.038,0.167,-0.007000000000000006,-0.04499999999999993,0.045999999999999985,0.22999999999999998,0.018256976477033504,0.00855258614245713,0.03502320795542957,0.023631797502414287,0.01734324069064197,0.018299702874910118,0.02587054458892668,0.15138439874571286,0.01734324069064197,0.02587054458892668,5,Swing,1.0
1777415145050,0.365,0.527,-0.894,0.053,-0.802,0.748,149.3933359613021,-19.52580743236915,1.1000863602463218,1.0979603817989063,3.258,999,log_v5_3_runtime.csv,0,False,1.518,-0.007000000000000006,-0.01100000000000001,-0.008000000000000007,-0.016000000000000014,0.01100000000000001,0.026000000000000023,0.068,0.030000000000000006,0.129,0.136,0.252,0.20600000000000002,0.032548837498978855,0.014291861021945351,0.05486478089848745,0.019841572943057884,-0.015097032743369487,-0.03244027343401146,0.04297128232915348,0.0171007377402268,-0.015097032743369487,0.04297128232915348,5,Swing,1.0
1777415145063,0.367,0.531,-0.89,0.115,-0.748,0.649,149.33528679865506,-19.518867757272417,1.0994316713648011,0.9969603803562106,3.259,999,log_v5_3_runtime.csv,0,False,1.531,0.0020000000000000018,0.009000000000000008,0.0040000000000000036,0.01200000000000001,0.0040000000000000036,-0.007000000000000006,0.062000000000000006,-0.005999999999999998,0.05400000000000005,-0.07499999999999996,-0.09899999999999998,-0.351,-0.058049162647051844,-0.0905980001460307,0.006939675096731435,-0.04792510580175602,-0.0006546888815206486,0.014442343861848839,-0.10100000144269572,-0.1439712837718492,-0.0006546888815206486,-0.10100000144269572,5,Swing,1.0
1777415145076,0.368,0.524,-0.896,0.099,-0.893,0.679,149.42841028879016,-19.51951787110838,1.1012792561380607,1.126184265562257,3.925,999,log_v5_3_runtime.csv,0,False,1.544,0.0010000000000000009,-0.0010000000000000009,-0.007000000000000006,-0.01100000000000001,-0.006000000000000005,-0.010000000000000009,-0.016,-0.07800000000000001,-0.14500000000000002,-0.19900000000000007,0.030000000000000027,0.129,0.09312349013509902,0.15117265278215086,-0.0006501138359631398,-0.0075897889326945744,0.0018475847732595252,0.002502273654780174,0.12922388520604633,0.23022388664874205,0.0018475847732595252,0.12922388520604633,5,Swing,1.0
1777415145090,0.368,0.529,-0.891,0.038,-0.817,0.626,149.39419579643825,-19.528315126818843,1.0996117496643987,1.0299558242953917,3.251,999,log_v5_3_runtime.csv,0,False,1.558,0.0,-0.0010000000000000009,0.0050000000000000044,0.01200000000000001,0.0050000000000000044,0.01100000000000001,-0.061000000000000006,-0.045000000000000005,0.07600000000000007,0.22100000000000009,-0.05300000000000005,-0.08300000000000007,-0.03421449235190721,-0.12733798248700623,-0.008797255710462082,-0.008147141874498942,-0.0016675064736619838,-0.003515091246921509,-0.09622844126686525,-0.22545232647291158,-0.0016675064736619838,-0.09622844126686525,5,Swing,1.0
1777415145104,0.372,0.533,-0.896,-0.053,-1.046,0.679,149.35605681589996,-19.557766528650372,1.1069277302516185,1.2481850824296852,3.273,999,log_v5_3_runtime.csv,0,False,1.572,0.0040000000000000036,0.0040000000000000036,0.0040000000000000036,-0.0010000000000000009,-0.0050000000000000044,-0.010000000000000009,-0.091,-0.029999999999999992,-0.2290000000000001,-0.30500000000000016,0.05300000000000005,0.1060000000000001,-0.038138980538292344,-0.003924488186385133,-0.029451401831529722,-0.02065414612106764,0.007315980587219828,0.008983487060881812,0.2182292581342935,0.31445769940115875,0.007315980587219828,0.2182292581342935,5,Swing,1.0
1777415145117,0.369,0.526,-0.899,0.13,-0.977,0.641,149.44041935561302,-19.54426268038255,1.1050058823372841,1.1757168026357367,3.262,999,log_v5_3_runtime.csv,0,False,1.585,-0.0030000000000000027,-0.007000000000000006,-0.007000000000000006,-0.01100000000000001,-0.0030000000000000027,0.0020000000000000018,0.183,0.274,0.06900000000000006,0.29800000000000015,-0.038000000000000034,-0.09100000000000008,0.08436253971305518,0.12250152025134753,0.013503848267824026,0.04295525009935375,-0.0019218479143343625,-0.00923782850155419,-0.07246827979394843,-0.29069753792824193,-0.0019218479143343625,-0.07246827979394843,5,Swing,1.0
1777415145130,0.365,0.526,-0.894,0.115,-0.832,0.55,149.46431046269444,-19.50160427749002,1.0996076573032765,1.003966632911672,3.263,999,log_v5_3_runtime.csv,0,False,1.598,-0.0040000000000000036,-0.0010000000000000009,0.0,0.007000000000000006,0.0050000000000000044,0.008000000000000007,-0.015,-0.198,0.14500000000000002,0.07599999999999996,-0.09099999999999997,-0.052999999999999936,0.02389110708142539,-0.060471432631629796,0.04265840289252765,0.02915455462470362,-0.005398225034007664,-0.0034763771196733018,-0.17175016972406465,-0.09928188993011622,-0.005398225034007664,-0.17175016972406465,5,Swing,1.0
1777415145144,0.369,0.528,-0.899,-0.015,-0.885,0.443,149.49379897381658,-19.498545856035832,1.1059593120906392,0.989797454027843,3.938,999,log_v5_3_runtime.csv,0,False,1.612,0.0040000000000000036,0.008000000000000007,0.0020000000000000018,0.0020000000000000018,-0.0050000000000000044,-0.010000000000000009,-0.13,-0.115,-0.05300000000000005,-0.19800000000000006,-0.10700000000000004,-0.01600000000000007,0.029488511122139016,0.005597404040713627,0.0030584214541882204,-0.03959998143833943,0.0063516547873627704,0.011749879821370435,-0.01416917888382907,0.15758099084023558,0.0063516547873627704,-0.01416917888382907,5,Swing,1.0
1777415145158,0.366,0.531,-0.893,0.191,-0.992,0.702,149.43150965003215,-19.47363491234391,1.101528937431968,1.2301825067850705,3.261,999,log_v5_3_runtime.csv,0,False,1.626,-0.0030000000000000027,-0.007000000000000006,0.0030000000000000027,0.0010000000000000009,0.006000000000000005,0.01100000000000001,0.20600000000000002,0.336,-0.10699999999999998,-0.05399999999999994,0.25899999999999995,0.366,-0.06228932378442664,-0.09177783490656566,0.02491094369192126,0.02185252223773304,-0.004430374658671354,-0.010782029446034125,0.24038505275722744,0.2545542316410565,-0.004430374658671354,0.24038505275722744,5,Swing,1.0
1777415145171,0.369,0.523,-0.901,0.122,-0.962,0.641,149.54896707167438,-19.481842822674484,1.105210839613872,1.1624151581943518,3.261,999,log_v5_3_runtime.csv,0,False,1.639,0.0030000000000000027,0.006000000000000005,-0.008000000000000007,-0.01100000000000001,-0.008000000000000007,-0.014000000000000012,-0.069,-0.275,0.030000000000000027,0.137,-0.06099999999999994,-0.3199999999999999,0.11745742164222861,0.17974674542665525,-0.008207910330572332,-0.03311885402249359,0.0036819021819041176,0.008112276840575472,-0.06776734859071865,-0.3081524013479461,0.0036819021819041176,-0.06776734859071865,5,Swing,1.0
1777415145184,0.38,0.513,-0.883,0.374,-0.931,0.42,149.6288146968314,-19.732785535194733,1.0896136930123446,1.0876750433838225,3.247,999,log_v5_3_runtime.csv,0,False,1.652,0.01100000000000001,0.008000000000000007,-0.010000000000000009,-0.0020000000000000018,0.018000000000000016,0.026000000000000023,0.252,0.321,0.030999999999999917,0.0009999999999998899,-0.22100000000000003,-0.1600000000000001,0.07984762515701505,-0.037609796485213565,-0.25094271252024924,-0.2427348021896769,-0.015597146601527445,-0.019279048783431563,-0.07474011481052933,-0.006972766219810689,-0.015597146601527445,-0.07474011481052933,5,Swing,1.0
1777415145198,0.385,0.583,-0.924,1.038,-1.115,1.351,149.12124821523295,-19.646063739687822,1.1583997582872676,2.036140957792461,3.253,999,log_v5_3_runtime.csv,0,False,1.666,0.0050000000000000044,-0.006000000000000005,0.06999999999999995,0.07999999999999996,-0.041000000000000036,-0.05900000000000005,0.664,0.41200000000000003,-0.18399999999999994,-0.21499999999999986,0.931,1.1520000000000001,-0.5075664815984453,-0.5874141067554604,0.08672179550691084,0.3376645080271601,0.06878606527492304,0.08438321187645048,0.9484659144086385,1.0232060292191678,0.06878606527492304,0.9484659144086385,5,Swing,1.0
1777415145211,0.338,0.496,-0.877,-0.221,2.092,2.496,149.49616984638254,-19.348609118661056,1.0627271521891213,3.2642489182046153,3.92,999,log_v5_3_runtime.csv,0,False,1.679,-0.046999999999999986,-0.05199999999999999,-0.08699999999999997,-0.15699999999999992,0.04700000000000004,0.08800000000000008,-1.2590000000000001,-1.923,3.207,3.391,1.145,0.21399999999999997,0.37492163114959,0.8824881127480353,0.2974546210267661,0.21073282551985528,-0.09567260609814632,-0.16445867137306935,1.2281079604121543,0.27964204600351583,-0.09567260609814632,1.2281079604121543,5,Swing,1.0
1777415145225,0.379,0.532,-0.908,-1.015,-3.336,-0.817,149.53335985448413,-19.472151015243515,1.118538778943314,3.5814256937705684,3.26,999,log_v5_3_runtime.csv,0,False,1.693,0.04099999999999998,0.08799999999999997,0.03600000000000003,0.123,-0.031000000000000028,-0.07800000000000007,-0.7939999999999999,0.4650000000000002,-5.428,-8.635,-3.3129999999999997,-4.458,0.037190008101589456,-0.33773162304800053,-0.12354189658245929,-0.4209965176092254,0.05581162675419282,0.15148423285233914,0.31717677556595314,-0.9109311848462012,0.05581162675419282,0.31717677556595314,5,Swing,1.0
1777415145239,0.369,0.545,-0.912,-1.092,-0.527,1.13,149.42654531689277,-19.385901475148778,1.124691068693977,1.6574356699431805,3.274,999,log_v5_3_runtime.csv,0,False,1.707,-0.010000000000000009,-0.05099999999999999,0.013000000000000012,-0.02300000000000002,-0.0040000000000000036,0.027000000000000024,-0.07700000000000018,0.7169999999999997,2.8089999999999997,8.237,1.9469999999999998,5.26,-0.10681453759136161,-0.14400454569295107,0.0862495400947374,0.20979143667719669,0.006152289750662954,-0.04965933700352987,-1.923990023827388,-2.241166799393341,0.006152289750662954,-1.923990023827388,5,Swing,1.0
1777415145252,0.373,0.526,-0.892,-0.176,-1.359,0.382,149.43902459674268,-19.50019677393931,1.100667524732151,1.422596569657048,3.258,999,log_v5_3_runtime.csv,0,False,1.72,0.0040000000000000036,0.014000000000000012,-0.019000000000000017,-0.03200000000000003,0.020000000000000018,0.02400000000000002,0.9160000000000001,0.9930000000000003,-0.832,-3.6409999999999996,-0.7479999999999999,-2.695,0.012479279849912928,0.11929381744127454,-0.1142952987905339,-0.2005448388852713,-0.024023543961826155,-0.03017583371248911,-0.23483910028613253,1.6891509235412554,-0.024023543961826155,-0.23483910028613253,5,Swing,1.0
1777415145265,0.368,0.518,-0.876,0.351,-0.779,0.275,149.42933223693788,-19.602827844443826,1.0821848270974788,0.8975895498500415,3.258,999,log_v5_3_runtime.csv,0,False,1.733,-0.0050000000000000044,-0.009000000000000008,-0.008000000000000007,0.01100000000000001,0.016000000000000014,-0.0040000000000000036,0.5269999999999999,-0.38900000000000023,0.58,1.412,-0.10699999999999998,0.6409999999999999,-0.009692359804802209,-0.022171639654715136,-0.10263107050451481,0.011664228286019096,-0.01848269763467214,0.005540846327154014,-0.5250070198070065,-0.29016791952087395,-0.01848269763467214,-0.5250070198070065,5,Swing,1.0
1777415145279,0.37,0.52,-0.902,-0.084,-1.679,0.374,149.59341481888828,-19.592315750670927,1.1049452475122918,1.7222000464522118,3.918,999,log_v5_3_runtime.csv,0,False,1.747,0.0020000000000000018,0.007000000000000006,0.0020000000000000018,0.010000000000000009,-0.026000000000000023,-0.04200000000000004,-0.435,-0.962,-0.9,-1.48,0.09899999999999998,0.20599999999999996,0.16408258195039593,0.17377494175519814,0.010512093772899078,0.11314316427741389,0.022760420414813076,0.04124311804948522,0.8246104966021703,1.3496175164091768,0.022760420414813076,0.8246104966021703,5,Swing,1.0
1777415145293,0.369,0.531,-0.883,0.221,-1.115,0.435,149.42743332267165,-19.62242290010556,1.0944455217140778,1.2170829881318692,3.253,999,log_v5_3_runtime.csv,0,False,1.761,-0.0010000000000000009,-0.0030000000000000027,0.01100000000000001,0.009000000000000008,0.019000000000000017,0.04500000000000004,0.305,0.74,0.5640000000000001,1.464,0.061,-0.03799999999999998,-0.16598149621663083,-0.33006407816702676,-0.030107149434630998,-0.040619243207530076,-0.01049972579821401,-0.033260146213027086,-0.5051170583203426,-1.329727554922513,-0.01049972579821401,-0.5051170583203426,5,Swing,1.0
1777415145306,0.366,0.521,-0.884,0.366,-0.748,0.664,149.4433436562067,-19.62465699336205,1.0894278314785244,1.0650615005716806,3.265,999,log_v5_3_runtime.csv,0,False,1.774,-0.0030000000000000027,-0.0020000000000000018,-0.010000000000000009,-0.02100000000000002,-0.0010000000000000009,-0.020000000000000018,0.145,-0.16,0.367,-0.19700000000000006,0.22900000000000004,0.16800000000000004,0.015910333535060772,0.1818918297516916,-0.002234093256490155,0.027873056178140843,-0.005017690235553429,0.005482035562660581,-0.15202148756018863,0.35309557076015397,-0.005017690235553429,-0.15202148756018863,5,Swing,1.0
1777415145319,0.365,0.529,-0.896,0.13,-1.137,0.641,149.44306759657638,-19.54515330702701,1.1026703949957122,1.3116973736346353,3.259,999,log_v5_3_runtime.csv,0,False,1.787,-0.0010000000000000009,0.0020000000000000018,0.008000000000000007,0.018000000000000016,-0.01200000000000001,-0.01100000000000001,-0.236,-0.381,-0.389,-0.756,-0.02300000000000002,-0.25200000000000006,-0.00027605963032328873,-0.01618639316538406,0.07950368633503757,0.08173777959152773,0.013242563517187778,0.018260253752741207,0.24663587306295476,0.3986573606231434,0.013242563517187778,0.24663587306295476,5,Swing,1.0
1777415145333,0.361,0.527,-0.887,1.969,1.168,1.336,149.40005757062073,-19.474753707627297,1.0930777648456673,2.6506755742640404,3.263,999,log_v5_3_runtime.csv,0,False,1.801,-0.0040000000000000036,-0.0030000000000000027,-0.0020000000000000018,-0.010000000000000009,0.009000000000000008,0.02100000000000002,1.839,2.075,2.3049999999999997,2.694,0.6950000000000001,0.7180000000000001,-0.04301002595565251,-0.04273396632532922,0.07039959939971396,-0.009104086935323608,-0.009592630150044856,-0.022835193667232634,1.338978200629405,1.0923423275664503,-0.009592630150044856,1.338978200629405,5,Swing,1.0
1777415145346,0.4,0.561,-0.907,-0.679,-4.809,-2.061,149.09267781149043,-19.767783482686596,1.13902150989347,5.275911580002076,3.925,999,log_v5_3_runtime.csv,0,False,1.814,0.039000000000000035,0.04300000000000004,0.03400000000000003,0.03600000000000003,-0.020000000000000018,-0.029000000000000026,-2.648,-4.487,-5.977,-8.282,-3.3970000000000002,-4.0920000000000005,-0.30737975913029913,-0.2643697331746466,-0.29302977505929917,-0.36342937445901313,0.04594374504780263,0.05553637519784749,2.625236005738036,1.2862578051086309,0.04594374504780263,2.625236005738036,5,Swing,1.0
1777415145360,0.378,0.514,-0.892,2.969,0.908,1.458,149.35077117418442,-19.874212142376066,1.0966968587535937,3.4300421280211704,3.261,999,log_v5_3_runtime.csv,0,False,1.828,-0.02200000000000002,-0.061000000000000054,-0.04700000000000004,-0.08100000000000007,0.015000000000000013,0.03500000000000003,3.6479999999999997,6.295999999999999,5.7170000000000005,11.694,3.519,6.916,0.25809336269398386,0.565473121824283,-0.10642865968947035,0.18660111536982882,-0.04232465113987627,-0.0882683961876789,-1.845869451980906,-4.4711054577189415,-0.04232465113987627,-1.845869451980906,5,Swing,1.0
1777415145373,0.37,0.55,-0.921,-1.779,-3.534,-0.267,149.2979697044204,-19.646174496028483,1.1347427021135672,3.9655120728602,3.259,999,log_v5_3_runtime.csv,0,False,1.841,-0.008000000000000007,0.014000000000000012,0.03600000000000003,0.08300000000000007,-0.029000000000000026,-0.04400000000000004,-4.747999999999999,-8.395999999999999,-4.442,-10.159,-1.725,-5.244,-0.052801469764006015,-0.3108948324579899,0.22803764634758394,0.3344663060370543,0.03804584335997352,0.08037049449984979,0.5354699448390297,2.3813393968199357,0.03804584335997352,0.5354699448390297,5,Swing,1.0
1777415145387,0.369,0.523,-0.899,-0.542,-0.328,1.053,149.43656107451562,-19.615867561717575,1.1035809893252058,1.2288844534780314,3.247,999,log_v5_3_runtime.csv,0,False,1.855,-0.0010000000000000009,0.007000000000000006,-0.027000000000000024,-0.06300000000000006,0.02200000000000002,0.051000000000000045,1.2369999999999999,5.984999999999999,3.206,7.648,1.3199999999999998,3.045,0.13859137009521305,0.19139283985921907,0.030306934310907252,-0.1977307120366767,-0.03116171278836144,-0.06920755614833496,-2.7366276193821686,-3.2720975642211982,-0.03116171278836144,-2.7366276193821686,5,Swing,1.0
1777415145400,0.366,0.522,-0.889,0.618,-0.473,0.702,149.47518799331317,-19.59697651596474,1.0939657215836336,1.0480729936411872,3.254,999,log_v5_3_runtime.csv,0,False,1.868,-0.0030000000000000027,-0.0020000000000000018,-0.0010000000000000009,0.026000000000000023,0.010000000000000009,-0.01200000000000001,1.1600000000000001,-0.07699999999999974,-0.14499999999999996,-3.351,-0.351,-1.6709999999999998,0.038626918797547205,-0.09996445129766585,0.0188910457528344,-0.01141588855807285,-0.009615267741572175,0.021546445046789264,-0.1808114598368442,2.5558161595453246,-0.009615267741572175,-0.1808114598368442,5,Swing,1.0
1777415145413,0.37,0.532,-0.891,-0.176,-1.191,0.351,149.38985910979784,-19.604110489685468,1.1017281878939107,1.2540566175416483,3.922,999,log_v5_3_runtime.csv,0,False,1.881,0.0040000000000000036,0.007000000000000006,0.010000000000000009,0.01100000000000001,-0.0020000000000000018,-0.01200000000000001,-0.794,-1.9540000000000002,-0.7180000000000001,-0.5730000000000002,-0.351,0.0,-0.08532888351533074,-0.12395580231287795,-0.007133973720726772,-0.026025019473561173,0.007762466310277105,0.01737773405184928,0.2059836239004611,0.3867950837373053,0.007762466310277105,0.2059836239004611,5,Swing,1.0
1777415145427,0.37,0.527,-0.876,-2.847,-7.252,1.458,149.27615089439567,-19.683125857009035,1.0872005334803694,7.926075762948522,3.26,999,log_v5_3_runtime.csv,0,False,1.895,0.0,-0.0040000000000000036,-0.0050000000000000044,-0.015000000000000013,0.015000000000000013,0.017000000000000015,-2.671,-1.8769999999999998,-6.061,-5.343,1.107,1.458,-0.1137082154021698,-0.028379331886839054,-0.07901536732356718,-0.0718813936028404,-0.014527654413541313,-0.02229012072381842,6.672019145406874,6.466035521506413,-0.014527654413541313,6.672019145406874,5,Swing,1.0
1777415145441,0.36,0.584,-0.87,-61.221,-56.336,-26.611,148.42564363267854,-19.48803178284367,1.1079512624659984,87.34930485126942,3.268,999,log_v5_3_runtime.csv,0,False,1.909,-0.010000000000000009,-0.010000000000000009,0.05699999999999994,0.061999999999999944,0.006000000000000005,-0.009000000000000008,-58.373999999999995,-55.702999999999996,-49.083999999999996,-43.022999999999996,-28.069,-29.176,-0.8505072617171265,-0.7367990463149567,0.19509407416536462,0.2741094414889318,0.02075072898562902,0.03527838339917033,79.4232290883209,72.75120994291402,0.02075072898562902,79.4232290883209,5,Swing,1.0
1777415145454,0.356,0.572,-0.908,-21.931,-15.863,-5.802,148.25415807842813,-19.18124542382769,1.13065644649469,27.68152333236016,3.27,999,log_v5_3_runtime.csv,0,False,1.922,-0.0040000000000000036,0.006000000000000005,-0.01200000000000001,-0.06899999999999995,-0.038000000000000034,-0.04400000000000004,39.28999999999999,97.66399999999999,40.473,89.55699999999999,20.809,48.878,-0.17148555425040968,0.6790217074667169,0.3067863590159803,0.11169228485061566,0.022705184028691594,0.001954455043062575,-59.667781518909266,-139.09101060723015,0.022705184028691594,-59.667781518909266,5,Swing,1.0
1777415145468,0.325,0.569,-0.906,-7.076,-4.153,0.412,148.15030183575504,-18.564319195317807,1.1181332657603922,8.215042848336214,3.264,999,log_v5_3_runtime.csv,0,False,1.936,-0.030999999999999972,-0.02699999999999997,-0.0030000000000000027,0.009000000000000008,0.0020000000000000018,0.040000000000000036,14.855,-24.43499999999999,11.71,-28.762999999999998,6.2139999999999995,-14.595000000000002,-0.10385624267308913,0.06762931157732055,0.6169262285098824,0.31013986949390215,-0.012523180734297812,-0.035228364762989406,-19.466480484023947,40.20130103488532,-0.012523180734297812,-19.466480484023947,5,Swing,1.0
1777415145481,0.382,0.568,-0.895,-21.901,-18.504,-8.305,148.0014404548229,-18.902905121151324,1.1267533004167327,29.85003922945496,3.924,999,log_v5_3_runtime.csv,0,False,1.949,0.056999999999999995,0.08799999999999997,-0.0010000000000000009,0.0020000000000000018,0.01100000000000001,0.009000000000000008,-14.825,-29.68,-14.351000000000003,-26.061000000000003,-8.717,-14.931000000000001,-0.1488613809321464,-0.045005138259057276,-0.33858592583351665,-0.9555121543433991,0.008620034656340536,0.021143215390638348,21.634996381118746,41.10147686514269,0.008620034656340536,21.634996381118746,5,Swing,1.0
1777415145495,0.373,0.62,-0.981,-76.679,-61.328,-27.336,147.92183599978028,-18.6098342766032,1.2189708774207857,101.92178138651228,3.251,999,log_v5_3_runtime.csv,0,False,1.963,-0.009000000000000008,-0.066,0.052000000000000046,0.05300000000000005,-0.08599999999999997,-0.09699999999999998,-54.778000000000006,-39.953,-42.824,-28.472999999999995,-19.031,-10.313999999999998,-0.07960445504261315,0.06925692588953325,0.2930708445481258,0.6316567703816425,0.09221757700405298,0.08359754234771244,72.07174215705732,50.43674577593857,0.09221757700405298,72.07174215705732,5,Swing,1.0
1777415145508,0.325,0.651,-0.866,-104.702,-62.298,-80.832,146.61017469225106,-18.093411742323692,1.1310976969298452,146.20999224403235,3.256,999,log_v5_3_runtime.csv,0,False,1.976,-0.04799999999999999,-0.03899999999999998,0.031000000000000028,-0.02100000000000002,0.11499999999999999,0.20099999999999996,-28.022999999999996,26.75500000000001,-0.9699999999999989,41.854,-53.495999999999995,-34.464999999999996,-1.3116613075292207,-1.2320568524866076,0.5164225342795064,0.22335168973138053,-0.0878731804909405,-0.18009075749499348,44.28821085752007,-27.783531299537245,-0.0878731804909405,44.28821085752007,5,Swing,1.0
1777415145522,0.498,0.36,-1.15,-167.45,54.504,-250.137,150.9346830790161,-19.271373209616993,1.3038803626100057,305.90637012818155,3.26,999,log_v5_3_runtime.csv,0,False,1.99,0.173,0.22099999999999997,-0.29100000000000004,-0.32200000000000006,-0.2839999999999999,-0.3989999999999999,-62.74799999999999,-34.724999999999994,116.80199999999999,117.77199999999999,-169.305,-115.80900000000001,4.3245083867650465,5.636169694294267,-1.1779614672933008,-1.694384001572807,0.17278266568016054,0.26065584617110105,159.6963778841492,115.40816702662913,0.17278266568016054,159.6963778841492,5,Swing,1.0
1777415145535,1.118,0.178,-1.708,144.87,137.611,79.748,157.1795298991212,-22.998015629270487,2.0491149308908954,215.1368116455201,3.264,999,log_v5_3_runtime.csv,0,False,2.003,0.6200000000000001,0.4470000000000001,-0.182,0.10900000000000004,-0.558,-0.27400000000000013,312.32,375.068,83.107,-33.69499999999999,329.885,499.19,6.244846820105096,1.9203384333400493,-3.726642419653494,-2.5486809523601934,0.7452345682808896,0.5724519026007291,-90.76955848266144,-250.46593636681064,0.7452345682808896,-90.76955848266144,5,Swing,1.0
1777415145548,0.462,1.735,-1.008,112.0,157.916,118.557,147.1773186498982,-20.28782473171321,2.0590611938453893,227.01811668895502,3.939,999,log_v5_3_runtime.csv,0,False,2.016,-0.6560000000000001,-1.2760000000000002,1.5570000000000002,1.739,0.7,1.258,-32.870000000000005,-345.19,20.305000000000007,-62.80199999999999,38.809,-291.076,-10.002211249222995,-16.24705806932809,2.7101908975572755,6.43683331721077,0.009946262954493967,-0.7352883053263957,11.881305043434907,102.65086352609634,0.009946262954493967,11.881305043434907,5,Swing,1.0
1777415145562,-0.671,0.422,-0.32,-87.351,123.26,-201.641,141.7729785687853,-0.8353695772030285,0.8548245434005741,251.95697585500582,3.259,999,log_v5_3_runtime.csv,0,False,2.03,-1.133,-0.47699999999999987,-1.3130000000000002,-2.87,0.688,-0.01200000000000001,-199.351,-166.481,-34.65599999999999,-54.961,-320.198,-359.00699999999995,-5.404340081112906,4.597871168110089,19.452455154510183,16.742264256952907,-1.2042366504448152,-1.2141829133993092,24.938859166050804,13.057554122615898,-1.2042366504448152,24.938859166050804,5,Swing,1.0
1777415145576,-0.057,0.595,-0.618,61.344,-168.885,184.366,140.2366788176664,0.41726404201647815,0.8597662473021374,257.4413554909156,3.264,999,log_v5_3_runtime.csv,0,False,2.044,0.614,1.7469999999999999,0.173,1.4860000000000002,-0.298,-0.986,148.695,348.046,-292.145,-257.489,386.007,706.2049999999999,-1.5362997511189178,3.8680403299939883,1.2526336192195067,-18.199821535290678,0.0049417039015632325,1.2091783543463785,5.484379635909789,-19.454479530141015,0.0049417039015632325,5.484379635909789,5,Swing,1.0
1777415145589,0.822,0.523,-1.276,73.023,-6.435,27.198,144.9578863116913,-8.015753523212776,1.6054248658844175,78.18886722545608,3.253,999,log_v5_3_runtime.csv,0,False,2.057,0.879,0.265,-0.07199999999999995,-0.24499999999999994,-0.658,-0.36000000000000004,11.678999999999995,-137.016,162.45,454.59499999999997,-157.168,-543.175,4.721207494024924,6.257507245143842,-8.433017565229255,-9.685651184448762,0.7456586185822801,0.7407169146807169,-179.25248826545953,-184.73686790136932,0.7456586185822801,-179.25248826545953,5,Swing,1.0
1777415145602,0.451,1.114,-1.03,54.74,54.748,44.458,141.66156553708527,-10.322686089449526,1.5828130022210458,89.27667594618428,3.242,999,log_v5_3_runtime.csv,0,False,2.07,-0.37099999999999994,-1.25,0.5910000000000001,0.663,0.246,0.904,-18.282999999999994,-29.96199999999999,61.183,-101.267,17.259999999999998,174.428,-3.296320774606045,-8.017528268630969,-2.3069325662367497,6.126084998992505,-0.022611863663371645,-0.7682704822456518,11.087808720728205,190.34029698618775,-0.022611863663371645,11.087808720728205,5,Swing,1.0
1777415145616,0.521,1.181,-1.011,28.275,40.237,145.847,138.66384517258822,-12.539244480593347,1.6396106245081483,153.91503891108238,3.932,999,log_v5_3_runtime.csv,0,False,2.084,0.07,0.44099999999999995,0.06699999999999995,-0.5240000000000001,0.019000000000000128,-0.22699999999999987,-26.465000000000003,-8.18200000000001,-14.510999999999996,-75.69399999999999,101.38900000000001,84.12900000000002,-2.9977203644970416,0.2986004101090032,-2.2165583911438205,0.09037417509292922,0.0567976222871025,0.07940948595047415,64.63836296489809,53.55055424416989,0.0567976222871025,64.63836296489809,5,Swing,1.0
1777415145630,0.8,0.496,-1.167,-24.763,176.611,58.176,143.6103036156092,-17.863628811647526,1.4993015040344622,187.587575457438,3.256,999,log_v5_3_runtime.csv,0,False,2.098,0.279,0.20900000000000002,-0.685,-0.752,-0.15600000000000014,-0.17500000000000027,-53.038,-26.572999999999993,136.374,150.885,-87.671,-189.06,4.946458443020987,7.944178807518028,-5.32438433105418,-3.1078259399103594,-0.14030912047368616,-0.19710674276078866,33.672536546355616,-30.965826418542477,-0.14030912047368616,33.672536546355616,5,Swing,1.0
1777415145643,0.409,0.18,-0.848,-50.771,201.397,-21.794,150.20366237324885,-19.86124367528838,0.9585327328787473,208.83827351805033,3.262,999,log_v5_3_runtime.csv,0,False,2.111,-0.39100000000000007,-0.6700000000000002,-0.316,0.36900000000000005,0.31900000000000006,0.4750000000000002,-26.008,27.029999999999998,24.786,-111.588,-79.97,7.701000000000008,6.593358757639635,1.646900314618648,-1.9976148636408553,3.3267694674133246,-0.5407687711557149,-0.4004596506820287,21.250698060612336,-12.42183848574328,-0.5407687711557149,21.250698060612336,5,Swing,1.0
1777415145656,0.232,0.038,-0.669,-7.336,157.977,-35.038,157.37505684685473,-19.654858069204042,0.7091043646741995,161.98213132626697,3.262,999,log_v5_3_runtime.csv,0,False,2.124,-0.17699999999999996,0.2140000000000001,-0.142,0.17400000000000002,0.17899999999999994,-0.14000000000000012,43.435,69.443,-43.41999999999999,-68.20599999999999,-13.243999999999996,66.726,7.171394473605886,0.5780357159662515,0.2063856060843392,2.2040004697251945,-0.24942836820454783,0.29134040295116703,-46.85614219178336,-68.1068402523957,-0.24942836820454783,-46.85614219178336,5,Swing,1.0
1777415145670,0.085,0.674,-0.798,32.725,18.977,82.298,152.6311465628146,-15.601793926622705,1.048000477099128,90.57600652490702,3.257,999,log_v5_3_runtime.csv,0,False,2.138,-0.14700000000000002,0.029999999999999943,0.636,0.778,-0.129,-0.30799999999999994,40.061,-3.3740000000000023,-139.0,-95.58000000000001,117.336,130.57999999999998,-4.74391028404014,-11.915304757646027,4.053064142581338,3.8466785364969986,0.33889611242492856,0.5883244806294764,-71.40612480135995,-24.54998260957659,0.33889611242492856,-71.40612480135995,5,Swing,1.0
1777415145683,0.927,0.931,-1.104,50.992,58.977,108.168,149.18071552732857,-20.219997171178225,1.7160728422768075,133.33711717672614,3.927,999,log_v5_3_runtime.csv,0,False,2.151,0.8420000000000001,0.9890000000000001,0.257,-0.379,-0.30600000000000005,-0.17700000000000005,18.266999999999996,-21.794000000000004,40.0,179.0,25.870000000000005,-91.466,-3.4504310354860195,1.2934792485541209,-4.61820324455552,-8.671267387136858,0.6680723651776794,0.32917625275275086,42.76111065181912,114.16723545317907,0.6680723651776794,42.76111065181912,5,Swing,1.0
1777415145697,0.683,0.516,-0.877,55.565,167.641,120.183,149.27473790577292,-23.907792334810352,1.2255096898841722,213.62333111109376,3.249,999,log_v5_3_runtime.csv,0,False,2.165,-0.244,-1.086,-0.41500000000000004,-0.672,0.2270000000000001,0.5330000000000001,4.573,-13.693999999999996,108.66399999999999,68.66399999999999,12.015,-13.855000000000004,0.09402237844435035,3.54445341393037,-3.687795163632128,0.9304080809233923,-0.49056315239263526,-1.1586355175703147,80.28621393436762,37.5251032825485,-0.49056315239263526,80.28621393436762,5,Swing,1.0
1777415145711,0.244,0.382,-0.503,53.16,123.344,128.718,147.52159982504892,-23.15525207922547,0.6771033894465454,186.0323935770327,3.268,999,log_v5_3_runtime.csv,0,False,2.179,-0.43900000000000006,-0.19500000000000006,-0.134,0.281,0.374,0.1469999999999999,-2.405000000000001,-6.9780000000000015,-44.297,-152.96099999999998,8.534999999999982,-3.480000000000018,-1.7531380807239998,-1.8471604591683501,0.7525402555848828,4.440335419217011,-0.5484063004376268,-0.05784314804499158,-27.590937534061055,-107.87715146842868,-0.5484063004376268,-27.590937534061055,5,Swing,1.0
1777415145724,0.391,0.104,-0.743,98.695,61.618,133.855,154.14321027884586,-24.33628422747903,0.8460177303106596,177.35456569820806,3.259,999,log_v5_3_runtime.csv,0,False,2.192,0.14700000000000002,0.5860000000000001,-0.278,-0.14400000000000002,-0.24,-0.614,45.535,47.94,-61.72599999999999,-17.428999999999995,5.1370000000000005,-3.397999999999982,6.621610453796933,8.374748534520933,-1.1810321482535606,-1.9335724038384434,0.16891434086411428,0.7173206413017411,-8.677827878824644,18.91310965523641,0.16891434086411428,-8.677827878824644,5,Swing,1.0
1777415145737,-0.22,4.0,0.425,-250.137,-208.664,-200.519,135.17604709946914,-16.915958939347554,4.028526405523489,382.5141213419447,3.265,999,log_v5_3_runtime.csv,0,False,2.205,-0.611,-0.758,3.896,4.1739999999999995,1.168,1.408,-348.832,-394.36699999999996,-270.282,-208.55599999999998,-334.374,-339.511,-18.967163179376712,-25.588773633173645,7.420325288131476,8.601357436385037,3.182508675212829,3.013594334348715,205.15955564373664,213.83738352256128,3.182508675212829,205.15955564373664,5,Swing,1.0
1777415145751,0.486,0.902,-2.216,-250.137,-250.137,-250.137,141.30202232327102,-15.448030724645648,2.441404513799383,433.2499928528562,3.936,999,log_v5_3_runtime.csv,0,False,2.219,0.706,1.317,-3.098,-6.994,-2.641,-3.809,0.0,348.832,-41.47300000000001,228.80899999999997,-49.617999999999995,284.75600000000003,6.125975223801873,25.093138403178585,1.4679282147019066,-5.9523970734295695,-1.587121891724106,-4.769630566936935,50.73587151091152,-154.42368413282512,-1.587121891724106,50.73587151091152,5,Swing,1.0
1777415145765,2.08,-0.3,-2.496,-250.137,-153.023,250.13,56.35183722124151,-21.97381465304804,3.2628846133444562,385.4212944272799,3.264,999,log_v5_3_runtime.csv,0,False,2.233,1.594,0.8880000000000001,-1.202,1.896,-0.2799999999999998,2.361,0.0,0.0,97.114,138.58700000000002,500.267,549.885,-84.95018510202951,-91.07616032583138,-6.525783928402394,-7.9937121431043,0.8214800995450733,2.408601991269179,-47.828698425576306,-98.56456993648783,0.8214800995450733,-47.828698425576306,5,Swing,0.8266901957656895
1777415145778,2.126,-0.659,-1.863,-250.137,162.939,250.13,-2.2373713019693824,-28.759782932214343,2.9025723074542,389.46457270206236,3.257,999,log_v5_3_runtime.csv,0,False,2.246,0.04599999999999982,-1.5480000000000003,-0.35900000000000004,0.843,0.633,0.9129999999999998,0.0,0.0,315.962,218.84799999999998,0.0,-500.267,-58.58920852321089,26.360976578818615,-6.785968279166301,-0.26018435076390745,-0.3603123058902562,-1.1817924054353295,4.043278274782438,51.87197670035874,-0.3603123058902562,4.043278274782438,5,Swing,0.8266901957656895
1777415145791,1.545,0.144,-1.059,-13.634,250.13,250.13,44.90324935230444,-35.93698950103407,1.878627690629519,353.9998866609988,3.253,999,log_v5_3_runtime.csv,0,False,2.259,-0.581,-0.6269999999999998,0.803,1.1620000000000001,0.804,0.17100000000000004,236.503,236.503,87.191,-228.771,0.0,0.0,47.140620654273825,105.72982917748472,-7.177206568819727,-0.3912382896534261,-1.023944616824681,-0.6636323109344249,-35.464686041063544,-39.50796431584598,-1.023944616824681,-35.464686041063544,5,Swing,0.8266901957656895
1777415145805,0.047,1.382,-0.318,-112.229,250.13,250.13,60.58717569601346,-26.741208949316327,1.4188928782681234,371.1137052723868,3.252,999,log_v5_3_runtime.csv,0,False,2.273,-1.498,-0.917,1.238,0.43499999999999994,0.7409999999999999,-0.06300000000000017,-98.595,-335.09799999999996,0.0,-87.191,0.0,0.0,15.683926343709018,-31.456694310564806,9.195780551717743,16.37298712053747,-0.4597348123613956,0.5642098044632855,17.113818611388012,52.57850465245156,-0.4597348123613956,17.113818611388012,5,Swing,0.8266901957656895
1777415145818,-1.673,1.31,0.602,-250.137,250.13,218.359,61.865570313167154,-6.212522821851898,2.2084911138603207,415.7092596394745,3.926,999,log_v5_3_runtime.csv,0,False,2.286,-1.72,-0.22199999999999998,-0.07199999999999984,-1.3099999999999998,0.9199999999999999,0.17900000000000005,-137.90800000000002,-39.31300000000002,0.0,0.0,-31.770999999999987,-31.770999999999987,1.278394617153694,-14.405531726555324,20.52868612746443,11.332905575746686,0.7895982355921973,1.249333047953593,44.595554367087686,27.481735755699674,0.7895982355921973,44.595554367087686,5,Swing,0.8266901957656895
1777415145832,-2.013,-0.893,0.496,-250.137,-104.061,-184.313,28.685953114921816,12.511168261338657,2.2573511025093103,327.6713177240266,3.252,999,log_v5_3_runtime.csv,0,False,2.3,-0.33999999999999986,1.3800000000000001,-2.2030000000000003,-2.1310000000000002,-0.10599999999999998,-1.0259999999999998,0.0,137.90800000000002,-354.19100000000003,-354.19100000000003,-402.672,-370.90100000000007,-33.17961719824534,-34.45801181539903,18.723691083190555,-1.8049950442738734,0.04885998864898955,-0.7407382469432078,-88.0379419154479,-132.6334962825356,0.04885998864898955,-88.0379419154479,5,Swing,0.5944220698806949
1777415145845,0.088,-1.322,-0.616,-98.832,-250.137,-250.137,-10.12728735972258,8.198382347709227,1.4611242246982288,367.29389017787923,3.262,999,log_v5_3_runtime.csv,0,False,2.313,2.101,2.441,-0.42900000000000005,1.7740000000000002,-1.112,-1.0060000000000002,151.305,151.305,-146.076,208.11500000000004,-65.82400000000001,336.848,-38.813240474644395,-5.633623276399057,-4.31278591362943,-23.036476996819985,-0.7962268778110815,-0.845086866460071,39.62257245385263,127.66051436930053,-0.7962268778110815,39.62257245385263,5,Swing,0.5944220698806949
1777415145859,1.831,-0.708,-0.874,250.13,-164.947,-93.802,-45.48070327001137,-9.80373367116534,2.148883663672838,313.9607378526812,3.257,999,log_v5_3_runtime.csv,0,False,2.327,1.7429999999999999,-0.3580000000000001,0.6140000000000001,1.0430000000000001,-0.258,0.8540000000000001,348.962,197.65699999999998,85.19,231.266,156.33499999999998,222.159,-35.35341591028879,3.459824564355607,-18.002116018874567,-13.689330105245137,0.6877594389746093,1.4839863167856908,-53.33315232519806,-92.95572477905068,0.6877594389746093,-53.33315232519806,5,Swing,0.5944220698806949
1777415145872,1.705,1.534,-0.468,250.13,109.443,-123.305,-4.29623938982369,-19.785488841375045,2.340770172400529,299.5778866572097,3.26,999,log_v5_3_runtime.csv,0,False,2.34,-0.1259999999999999,-1.8689999999999998,2.242,1.628,0.40599999999999997,0.6639999999999999,0.0,-348.962,274.39,189.2,-29.503,-185.83799999999997,41.18446388018768,76.53787979047647,-9.981755170209706,8.020360848664861,0.19188650872769086,-0.4958729302469185,-14.38285119547146,38.9503011297266,0.19188650872769086,-14.38285119547146,5,Swing,0.5944220698806949
1777415145885,0.369,2.688,0.46,110.275,90.74,-85.229,18.554985157792654,-16.52210669133795,2.751927506312621,166.3078641135169,4.038,999,log_v5_3_runtime.csv,0,False,2.353,-1.336,-1.2100000000000002,1.1540000000000001,-1.0879999999999999,0.928,0.522,-139.855,-139.855,-18.703000000000003,-293.09299999999996,38.07600000000001,67.57900000000001,22.851224547616344,-18.333239332571335,3.2633821500370956,13.245137320246801,0.41115733391209197,0.2192708251844011,-133.27002254369282,-118.88717134822136,0.41115733391209197,-133.27002254369282,5,Swing,0.5944220698806949
1777415145900,-0.128,1.726,0.301,-215.977,-65.305,-172.473,35.18380040041639,-10.929722269732844,1.7567188164302219,284.00306914362744,3.249,999,log_v5_3_runtime.csv,0,False,2.368,-0.497,0.8390000000000001,-0.9620000000000002,-2.1160000000000005,-0.15900000000000003,-1.0870000000000002,-326.252,-186.39700000000002,-156.04500000000002,-137.342,-87.24400000000001,-125.32000000000002,16.628815242623734,-6.22240930499261,5.5923844216051055,2.32900227156801,-0.9952086898823991,-1.406366023794491,117.69520503011054,250.96522757380336,-0.9952086898823991,117.69520503011054,5,Swing,0.5970586309260667
1777415145913,0.6,0.285,-0.348,-183.191,-131.504,-106.344,63.685255340621964,-22.333555271467116,0.7498859913346828,249.32166137943167,3.26,999,log_v5_3_runtime.csv,0,False,2.381,0.728,1.225,-1.441,-0.47899999999999987,-0.649,-0.49,32.786,359.038,-66.19899999999998,89.84600000000003,66.12900000000002,153.37300000000005,28.501454940205576,11.872639697581842,-11.403833001734272,-16.996217423339377,-1.0068328250955392,-0.011624135213140097,-34.68140776419577,-152.3766127943063,-1.0068328250955392,-34.68140776419577,5,Swing,0.5970586309260667
1777415145926,1.414,-0.036,-0.543,57.924,-33.901,63.908,-1.1231102534477344,-34.92735300505897,1.5151042868396882,92.6752396328167,3.259,999,log_v5_3_runtime.csv,0,False,2.394,0.814,0.08599999999999997,-0.32099999999999995,1.12,-0.19500000000000006,0.45399999999999996,241.115,208.329,97.60299999999998,163.80199999999996,170.252,104.12299999999999,-64.8083655940697,-93.30982053427527,-12.593797733591853,-1.1899647318575806,0.7652182955050054,1.7720511206005445,-156.64642174661498,-121.96501398241921,0.7652182955050054,-156.64642174661498,5,Swing,0.5970586309260667
1777415145940,1.007,0.488,-0.251,246.969,43.076,197.634,30.847682304751274,-42.082272085553456,1.1468190790181334,319.23099268867986,3.257,999,log_v5_3_runtime.csv,0,False,2.408,-0.40700000000000003,-1.221,0.524,0.845,0.29200000000000004,0.4870000000000001,189.045,-52.07000000000002,76.977,-20.625999999999976,133.726,-36.52600000000001,31.97079255819901,96.7791581522687,-7.154919080494487,5.438878653097365,-0.3682852078215548,-1.1335035033265601,226.55575305586316,383.2021748024781,-0.3682852078215548,226.55575305586316,5,Swing,0.5970586309260667
1777415145953,0.338,0.688,-0.097,250.13,9.595,250.13,48.9960908220385,-37.721724808148494,0.7726558095297026,353.86734495429215,3.956,999,log_v5_3_runtime.csv,0,False,2.421,-0.6689999999999998,-0.2619999999999998,0.19999999999999996,-0.32400000000000007,0.154,-0.13800000000000004,3.1610000000000014,-185.884,-33.481,-110.458,52.49600000000001,-81.22999999999999,18.148408517287223,-13.822384040911786,4.360547277404962,11.515466357899449,-0.3741632694884308,-0.005878061666875989,34.63635226561229,-191.91940079025088,-0.3741632694884308,34.63635226561229,5,Swing,0.5970586309260667
1777415145967,-0.037,-0.406,-0.192,250.13,-140.16,220.748,4.607842724600005,-26.258616277676367,0.450631778728487,361.85566460123295,3.265,999,log_v5_3_runtime.csv,0,False,2.435,-0.375,0.2939999999999998,-1.0939999999999999,-1.2939999999999998,-0.095,-0.249,0.0,-3.1610000000000014,-149.755,-116.274,-29.382000000000005,-81.87800000000001,-44.38824809743849,-62.536656614725715,11.463108530472127,7.102561253067165,-0.3220240308012156,0.052139238687215206,7.988319646940795,-26.648032618671493,-0.3220240308012156,7.988319646940795,1,Heel-strike,0.5575808829694053
1777415145981,0.154,-0.096,-0.552,250.13,-250.137,250.13,-42.599803716873254,-23.3166601578086,0.5810645403051197,433.24190998678785,3.251,999,log_v5_3_runtime.csv,0,False,2.449,0.191,0.5660000000000001,0.31000000000000005,1.404,-0.36000000000000004,-0.265,0.0,0.0,-109.977,39.77799999999999,29.382000000000005,58.76400000000001,-47.20764644147326,-2.8193983440347665,2.9419561198677684,-8.521152410604358,0.1304327615766327,0.4524567923778483,71.3862453855549,63.397925738614106,0.1304327615766327,71.3862453855549,1,Heel-strike,0.5575808829694053
1777415145994,0.811,0.827,-1.016,250.13,-250.137,250.13,6.961711821441334,-25.597775617016794,1.540748519389196,433.24190998678785,3.262,999,log_v5_3_runtime.csv,0,False,2.462,0.657,0.466,0.9229999999999999,0.6129999999999999,-0.46399999999999997,-0.10399999999999993,0.0,0.0,0.0,109.977,0.0,-29.382000000000005,49.56151553831459,96.76916197978784,-2.281115459208195,-5.223071579075963,0.9596839790840764,0.8292512175074438,0.0,-71.3862453855549,0.9596839790840764,0.0,1,Heel-strike,0.5575808829694053
1777415146007,1.759,1.653,-1.346,250.13,-250.137,250.13,39.97302451500045,-29.36117977803168,2.7637304499534685,433.24190998678785,3.259,999,log_v5_3_runtime.csv,0,False,2.475,0.9479999999999998,0.2909999999999998,0.8260000000000001,-0.09699999999999986,-0.33000000000000007,0.1339999999999999,0.0,0.0,0.0,0.0,0.0,0.0,33.01131269355912,-16.550202844755468,-3.7634041610148863,-1.4822887018066915,1.2229819305642724,0.26329795148019597,0.0,0.0,1.2229819305642724,0.0,1,Heel-strike,0.5575808829694053
1777415146021,2.568,2.105,-1.21,226.504,-90.344,225.794,61.56342426340083,-34.01978309691784,3.5340838982684044,332.3387289919729,3.942,999,log_v5_3_runtime.csv,0,False,2.489,0.8090000000000002,-0.13899999999999968,0.45199999999999996,-0.3740000000000001,0.13600000000000012,0.4660000000000002,-23.626000000000005,-23.626000000000005,159.793,159.793,-24.335999999999984,-24.335999999999984,21.59039974840038,-11.42091294515874,-4.658603318886161,-0.895199157871275,0.7703534483149359,-0.4526284822493365,-100.90318099481493,-100.90318099481493,0.7703534483149359,-100.90318099481493,1,Heel-strike,0.5575808829694053
1777415146035,2.31,2.007,-1.003,-53.0,233.435,176.748,76.41937016499375,-37.21160728628347,3.220272969796194,297.5579854902234,3.268,999,log_v5_3_runtime.csv,0,False,2.503,-0.258,-1.0670000000000002,-0.09799999999999986,-0.5499999999999998,0.20700000000000007,0.07099999999999995,-279.504,-255.87800000000001,323.779,163.986,-49.04600000000002,-24.710000000000036,14.855945901592918,-6.734453846807462,-3.191824189365626,1.4667791295205355,-0.31381092847221037,-1.0841643767871463,-34.7807435017495,66.12243749306543,-0.31381092847221037,-34.7807435017495,1,Heel-strike,0.7192832522604942
1777415146048,1.258,1.342,-0.584,-187.275,250.13,224.443,86.44160552752021,-38.148766084284794,1.9299181329787023,384.72276092531877,3.261,999,log_v5_3_runtime.csv,0,False,2.516,-1.052,-0.794,-0.665,-0.5670000000000002,0.41899999999999993,0.21199999999999986,-134.275,145.229,16.694999999999993,-307.084,47.69500000000002,96.74100000000004,10.022235362526459,-4.833710539066459,-0.9371587980013274,2.2546653913642984,-1.2903548368174917,-0.9765439083452814,87.16477543509535,121.94551893684485,-1.2903548368174917,87.16477543509535,1,Heel-strike,0.7192832522604942
1777415146061,0.461,0.678,0.04,-156.809,250.13,250.13,86.49078103263228,-37.07310014174662,0.820856260255107,386.9355195391087,3.268,999,log_v5_3_runtime.csv,0,False,2.529,-0.7969999999999999,0.2550000000000001,-0.664,0.0010000000000000009,0.624,0.20500000000000007,30.466000000000008,164.741,0.0,-16.694999999999993,25.686999999999983,-22.008000000000038,0.0491755051120748,-9.973059857414384,1.0756659425381727,2.0128247405395,-1.1090618727235952,0.1812929640938965,2.2127586137899584,-84.95201682130539,-1.1090618727235952,2.2127586137899584,1,Heel-strike,0.7192832522604942
1777415146075,0.158,0.49,0.153,-44.542,132.214,250.13,82.7541184107439,-31.67941030700512,0.5370968255352102,286.4080104675845,3.26,999,log_v5_3_runtime.csv,0,False,2.543,-0.30300000000000005,0.4939999999999999,-0.18800000000000006,0.476,0.11299999999999999,-0.511,112.267,81.80099999999999,-117.916,-117.916,0.0,-25.686999999999983,-3.736662621888385,-3.78583812700046,5.393689834741501,4.318023892203328,-0.28375943471989684,0.8253024380036984,-100.52750907152421,-102.74026768531417,-0.28375943471989684,-100.52750907152421,1,Heel-strike,0.7192832522604942
1777415146088,-0.047,0.551,0.029,-172.595,56.687,250.13,83.89771507326341,-21.80568679942312,0.5537607786761356,309.13988240600725,3.928,999,log_v5_3_runtime.csv,0,False,2.556,-0.20500000000000002,0.09800000000000003,0.061000000000000054,0.2490000000000001,-0.124,-0.237,-128.053,-240.32,-75.527,42.388999999999996,0.0,0.0,1.1435966625195135,4.880259284407899,9.873723507582,4.480033672840499,0.01666395314092539,0.30042338786082223,22.731871938422728,123.25938100994694,0.01666395314092539,22.731871938422728,1,Heel-strike,0.7192832522604942
1777415146102,-0.343,0.206,-0.769,-250.137,30.267,0.496,105.80899517391116,-9.617821138068384,0.8668598502641589,251.9620131567455,3.259,999,log_v5_3_runtime.csv,0,False,2.57,-0.29600000000000004,-0.09100000000000003,-0.3450000000000001,-0.40600000000000014,-0.798,-0.674,-77.542,50.510999999999996,-26.419999999999998,49.107,-249.634,-249.634,21.911280100647744,20.76768343812823,12.187865661354737,2.314142153772737,0.3130990715880233,0.2964351184470979,-57.17786924926173,-79.90974118768446,0.3130990715880233,-57.17786924926173,1,Heel-strike,0.8595452094574368
1777415146115,-0.635,-0.197,-1.421,-250.137,-95.458,-70.84,30.72822960323623,-0.5692954558071879,1.5688451166383506,276.94594081336527,3.251,999,log_v5_3_runtime.csv,0,False,2.583,-0.292,0.004000000000000059,-0.403,-0.05799999999999994,-0.652,0.14600000000000002,0.0,77.542,-125.725,-99.30499999999999,-71.336,178.298,-75.08076557067493,-96.99204567132267,9.048525682261197,-3.13933997909354,0.7019852663741917,0.38888619478616837,24.983927656619755,82.16179690588149,0.7019852663741917,24.983927656619755,1,Heel-strike,0.8595452094574368
1777415146129,0.179,-0.507,-0.725,-176.786,-226.939,215.908,-16.75516579737947,-3.50562407116854,0.9026156435604249,359.6816147386463,3.269,999,log_v5_3_runtime.csv,0,False,2.597,0.8140000000000001,1.106,-0.31,0.09300000000000003,0.6960000000000001,1.348,73.351,73.351,-131.481,-5.756,286.748,358.084,-47.4833954006157,27.59737017005923,-2.936328615361352,-11.98485429762255,-0.6662294730779257,-1.3682147394521174,82.73567392528105,57.75174626866129,-0.6662294730779257,82.73567392528105,1,Heel-strike,0.8595452094574368
1777415146142,0.885,-0.337,-0.747,-133.924,-229.374,143.756,-54.29685508217443,-15.310122849229659,1.2061521462900109,302.01631940675,3.256,999,log_v5_3_runtime.csv,0,False,2.61,0.706,-0.1080000000000001,0.16999999999999998,0.48,-0.02200000000000002,-0.7180000000000001,42.861999999999995,-30.489000000000004,-2.4350000000000023,129.046,-72.15199999999999,-358.9,-37.54168928479496,9.941706115820736,-11.804498778061118,-8.868170162699766,0.303536502729586,0.9697659758075117,-57.665295331896345,-140.4009692571774,0.303536502729586,-57.665295331896345,1,Heel-strike,0.8595452094574368
1777415146155,1.268,-0.314,-1.223,-123.763,-157.901,134.13,-84.36624578180462,-23.363653975121917,1.7894549449483215,241.33143779872526,3.937,999,log_v5_3_runtime.csv,0,False,2.623,0.383,-0.32299999999999995,0.02300000000000002,-0.14699999999999996,-0.4760000000000001,-0.45400000000000007,10.161000000000001,-32.70099999999999,71.47299999999998,73.90799999999999,-9.626000000000005,62.52599999999998,-30.06939069963019,7.472298585164772,-8.053531125892258,3.7509676521688604,0.5833027986583106,0.2797662959287246,-60.68488160802471,-3.019586276128365,0.5833027986583106,-60.68488160802471,1,Heel-strike,0.8595452094574368
1777415146170,1.519,-0.511,-1.23,-105.137,-49.611,129.87,-104.10749268437903,-30.22310502561478,2.0202430546842622,174.30220018691676,3.27,999,log_v5_3_runtime.csv,0,False,2.638,0.2509999999999999,-0.13200000000000012,-0.197,-0.22000000000000003,-0.006999999999999895,0.4690000000000002,18.626000000000005,8.465000000000003,108.29000000000002,36.817000000000036,-4.259999999999991,5.366000000000014,-19.741246902574403,10.328143797055787,-6.859451050492865,1.194080075399393,0.23078810973594077,-0.3525146889223698,-67.0292376118085,-6.344356003783787,0.23078810973594077,-67.0292376118085,1,Heel-strike,0.6852172309839016
1777415146183,1.619,-0.503,-1.08,-47.534,89.275,135.031,-117.86362913933999,-36.552403403058584,2.010116912022781,168.7094476963279,3.25,999,log_v5_3_runtime.csv,0,False,2.651,0.10000000000000009,-0.1509999999999998,0.008000000000000007,0.20500000000000002,0.1499999999999999,0.1569999999999998,57.603,38.977,138.886,30.595999999999975,5.161000000000001,9.420999999999992,-13.756136454960966,5.985110447613437,-6.329298377443802,0.5301526730490629,-0.010126142661481374,-0.24091425239742215,-5.59275249058885,61.43648512121965,-0.010126142661481374,-5.59275249058885,1,Heel-strike,0.6852172309839016
1777415146196,1.186,-0.329,-0.826,15.229,205.496,107.901,-128.78299933436608,-41.03422794876883,1.4822661704295892,232.60084750060565,3.254,999,log_v5_3_runtime.csv,0,False,2.664,-0.43300000000000005,-0.5330000000000001,0.174,0.16599999999999998,0.2540000000000001,0.1040000000000002,62.763,5.159999999999997,116.221,-22.664999999999992,-27.13000000000001,-32.29100000000001,-10.91937019502609,2.836766259934876,-4.481824545710246,1.8474738317335557,-0.5278507415931917,-0.5177245989317103,63.89139980427774,69.48415229486659,-0.5278507415931917,63.89139980427774,1,Heel-strike,0.6852172309839016
1777415146210,0.595,-0.125,-0.38,44.183,159.053,102.336,-137.70045502912538,-45.10061549318082,0.7169728028314603,194.22319942272603,3.261,999,log_v5_3_runtime.csv,0,False,2.678,-0.591,-0.15799999999999992,0.20400000000000001,0.030000000000000027,0.44599999999999995,0.19199999999999984,28.954,-33.809,-46.44300000000001,-162.66400000000002,-5.564999999999998,21.565000000000012,-8.917455694759298,2.0019145002667926,-4.066387544411988,0.4154370012982582,-0.7652933675981289,-0.23744262600493726,-38.37764807787963,-102.26904788215737,-0.7652933675981289,-38.37764807787963,1,Heel-strike,0.6852172309839016
1777415146223,0.588,-0.001,-0.303,21.282,13.794,45.947,-149.07685486383446,-49.86534141566388,0.6614786466697167,52.48166126372145,3.93,999,log_v5_3_runtime.csv,0,False,2.691,-0.007000000000000006,0.584,0.124,-0.08000000000000002,0.07700000000000001,-0.36899999999999994,-22.901,-51.855000000000004,-145.259,-98.81599999999997,-56.388999999999996,-50.824,-11.376399834709076,-2.4589441399497787,-4.764725922483059,-0.698338378071071,-0.05549415616174358,0.7097992114363854,-141.74153815900456,-103.36389008112494,-0.05549415616174358,-141.74153815900456,1,Heel-strike,0.6852172309839016
