timestamp,ax,ay,az,gx,gy,gz,roll,pitch_k,acc_norm,gyro_norm,classe_prevista_raw,classe_prevista,delay_ms
1777493316843,-0.0544434,0.972412,-0.351074,4.21374,-27.4122,29.1221,99.9548,2.74289,1.03528,40.2155,0,0,3.324
1777493316857,-0.053,0.974,-0.341,0.145,-1.061,-0.885,104.657,2.855,1.033,1.390,0,0,3.438
1777493316870,-0.055,0.971,-0.346,0.115,-0.557,0.710,106.526,2.938,1.033,0.910,0,0,3.277
1777493316884,-0.055,0.970,-0.352,0.137,-1.000,0.557,107.632,2.977,1.034,1.153,0,0,3.770
1777493316897,-0.049,0.973,-0.348,0.267,-0.595,0.656,108.246,2.900,1.035,0.926,0,0,3.282
1777493316911,-0.051,0.974,-0.343,0.153,-0.947,0.580,108.578,2.884,1.034,1.121,0,0,3.263
1777493316924,-0.053,0.971,-0.345,0.069,-0.985,0.664,108.855,2.900,1.032,1.190,0,0,3.273
1777493316938,-0.052,0.970,-0.344,0.137,-0.786,0.641,109.036,2.902,1.030,1.024,0,0,3.264
1777493316952,-0.049,0.974,-0.354,0.198,-0.939,0.656,109.294,2.843,1.038,1.163,0,0,4.244
1777493316965,-0.054,0.975,-0.352,0.260,-1.061,0.427,109.447,2.884,1.038,1.173,0,0,3.253
1777493316979,-0.057,0.974,-0.345,0.328,-0.863,0.473,109.471,2.952,1.035,1.037,0,0,3.261
1777493316992,-0.058,0.971,-0.354,-0.015,-0.756,0.595,109.625,3.024,1.035,0.962,0,0,3.264
1777493317005,-0.054,0.971,-0.345,0.122,-0.725,0.511,109.608,3.021,1.032,0.896,0,0,3.256
1777493317019,-0.059,0.974,-0.347,0.168,-0.885,0.527,109.608,3.088,1.036,1.044,0,0,3.277
1777493317032,-0.047,0.971,-0.351,-0.038,-0.992,0.481,109.682,2.953,1.033,1.103,0,0,3.251
1777493317046,-0.052,0.973,-0.347,0.076,-1.015,0.450,109.667,2.937,1.034,1.113,0,0,3.268
1777493317060,-0.051,0.973,-0.344,0.191,-1.084,0.473,109.620,2.905,1.034,1.198,0,0,3.260
1777493317073,-0.053,0.975,-0.338,0.267,-0.962,0.580,109.484,2.910,1.033,1.155,0,0,3.268
1777493317086,-0.052,0.976,-0.343,0.191,-0.893,0.412,109.450,2.909,1.036,1.002,0,0,3.259
1777493317100,-0.052,0.977,-0.345,0.145,-0.969,0.397,109.448,2.902,1.038,1.058,0,0,3.915
1777493317114,-0.052,0.979,-0.350,0.099,-1.046,0.466,109.506,2.892,1.040,1.149,0,0,3.270
1777493317127,-0.051,0.974,-0.348,0.359,-1.107,0.473,109.552,2.874,1.035,1.256,0,0,3.255
1777493317141,-0.050,0.975,-0.354,0.252,-0.985,0.504,109.653,2.840,1.038,1.134,0,0,3.279
1777493317154,-0.050,0.967,-0.347,0.115,-0.977,0.412,109.682,2.826,1.029,1.067,0,0,3.262
1777493317167,-0.062,0.975,-0.338,0.351,-0.962,0.397,109.538,2.988,1.034,1.098,0,0,3.273
1777493317181,-0.059,0.974,-0.349,0.344,-0.885,0.618,109.585,3.061,1.036,1.133,0,0,3.256
1777493317194,-0.048,0.974,-0.344,0.183,-1.031,0.458,109.553,2.954,1.034,1.143,0,0,3.269
1777493317208,-0.051,0.974,-0.348,0.153,-1.053,0.565,109.576,2.912,1.036,1.205,0,0,3.268
1777493317221,-0.055,0.970,-0.341,0.237,-1.053,0.573,109.524,2.947,1.030,1.222,0,0,3.262
1777493317234,-0.053,0.976,-0.349,0.282,-0.809,0.595,109.566,2.945,1.038,1.044,4,4,12.906
1777493317257,-0.057,0.966,-0.356,0.336,-1.061,0.504,109.750,3.011,1.031,1.222,4,4,3.278
1777493317271,-0.061,0.972,-0.343,0.252,-0.954,0.580,109.660,3.113,1.033,1.145,4,4,3.266
1777493317284,-0.051,0.977,-0.343,0.298,-1.046,0.603,109.581,3.027,1.036,1.243,4,4,3.261
1777493317298,-0.055,0.967,-0.349,0.237,-0.954,0.626,109.646,3.032,1.030,1.165,4,4,3.269
1777493317311,-0.051,0.973,-0.348,0.069,-0.916,0.504,109.655,2.980,1.034,1.048,4,4,3.941
1777493317326,-0.057,0.971,-0.348,0.130,-0.939,0.435,109.674,3.024,1.033,1.043,4,4,3.290
1777493317340,-0.055,0.976,-0.346,0.275,-1.069,0.603,109.637,3.031,1.037,1.258,4,4,3.263
1777493317353,-0.054,0.972,-0.354,0.076,-1.267,0.725,109.739,3.026,1.036,1.462,4,4,3.358
1777493317366,-0.055,0.966,-0.346,0.076,-0.832,0.756,109.730,3.033,1.027,1.127,4,4,3.266
1777493317381,-0.058,0.976,-0.338,0.160,-0.817,0.580,109.565,3.076,1.035,1.015,4,4,5.081
1777493317395,-0.056,0.971,-0.347,-0.122,-0.977,0.443,109.596,3.083,1.033,1.080,4,4,3.272
1777493317408,-0.056,0.974,-0.350,-0.122,-1.031,0.672,109.636,3.082,1.036,1.236,4,4,3.266
1777493317422,-0.061,0.970,-0.354,-0.237,-0.924,0.634,109.744,3.167,1.034,1.145,4,4,3.272
1777493317435,-0.053,0.974,-0.347,0.000,-0.725,0.855,109.708,3.108,1.035,1.121,4,4,3.264
1777493317450,-0.052,0.972,-0.341,-0.008,-0.702,0.962,109.599,3.045,1.032,1.191,4,4,3.970
1777493317464,-0.057,0.979,-0.343,0.069,-0.893,0.756,109.523,3.074,1.039,1.172,4,4,3.262
1777493317478,-0.052,0.973,-0.337,-0.038,-0.634,0.908,109.406,3.031,1.031,1.108,4,4,3.281
1777493317491,-0.055,0.977,-0.343,0.046,-0.870,0.947,109.388,3.029,1.037,1.287,4,4,3.263
1777493317505,-0.049,0.966,-0.351,0.000,-0.855,0.779,109.540,2.950,1.029,1.156,4,4,3.283
1777493317518,-0.055,0.972,-0.349,-0.053,-0.771,0.695,109.600,2.972,1.034,1.039,1,4,3.945
1777493317533,-0.050,0.978,-0.344,-0.061,-1.076,0.725,109.548,2.916,1.038,1.299,1,4,3.844
1777493317546,-0.053,0.976,-0.341,-0.069,-0.847,0.649,109.475,2.924,1.035,1.069,1,4,3.274
1777493317560,-0.056,0.974,-0.346,0.053,-0.870,0.794,109.494,2.978,1.035,1.179,1,4,3.262
1777493317573,-0.054,0.976,-0.348,0.008,-0.870,0.771,109.527,2.975,1.038,1.163,1,4,3.275
1777493317586,-0.058,0.976,-0.347,0.023,-0.878,0.618,109.536,3.032,1.037,1.074,1,4,3.938
1777493317600,-0.049,0.977,-0.348,-0.038,-0.931,0.748,109.552,2.941,1.039,1.195,1,4,3.285
1777493317614,-0.054,0.977,-0.349,-0.153,-0.847,0.664,109.586,2.958,1.039,1.087,1,4,3.265
1777493317629,-0.055,0.970,-0.349,-0.115,-0.969,0.733,109.645,2.986,1.033,1.221,1,4,3.281
1777493317642,-0.051,0.976,-0.344,0.160,-0.718,0.557,109.577,2.946,1.036,0.923,1,4,3.271
1777493317656,-0.055,0.977,-0.347,0.321,-0.687,0.763,109.573,2.977,1.038,1.076,2,4,4.506
1777493317671,-0.054,0.970,-0.341,0.298,-0.695,0.725,109.514,2.980,1.030,1.047,2,4,3.265
1777493317684,-0.055,0.970,-0.345,0.137,-0.634,0.641,109.539,3.000,1.031,0.912,2,4,3.255
1777493317698,-0.052,0.975,-0.344,0.176,-0.656,0.634,109.509,2.967,1.036,0.929,2,4,3.282
1777493317711,-0.051,0.972,-0.349,0.229,-0.656,0.718,109.577,2.926,1.035,0.999,2,4,3.264
1777493317725,-0.059,0.976,-0.342,0.290,-0.718,0.779,109.505,3.019,1.035,1.098,2,4,3.968
1777493317739,-0.057,0.970,-0.353,0.069,-0.809,0.641,109.643,3.063,1.034,1.035,2,4,3.267
1777493317754,-0.052,0.978,-0.344,0.198,-0.893,0.809,109.571,3.015,1.038,1.221,2,4,3.276
1777493317767,-0.047,0.971,-0.349,0.053,-0.870,0.626,109.627,2.899,1.033,1.073,2,4,3.263
1777493317781,-0.053,0.971,-0.341,0.351,-0.878,0.573,109.545,2.909,1.031,1.105,2,4,3.669
1777493317794,-0.054,0.969,-0.354,0.336,-0.794,0.725,109.677,2.935,1.033,1.126,2,4,3.941
1777493317808,-0.051,0.973,-0.346,0.374,-0.802,0.786,109.658,2.903,1.034,1.183,2,4,3.262
1777493317822,-0.052,0.978,-0.346,0.214,-0.626,0.718,109.614,2.890,1.039,0.976,2,4,3.298
1777493317835,-0.056,0.972,-0.342,0.122,-0.840,0.611,109.558,2.956,1.032,1.045,2,4,3.262
1777493317849,-0.052,0.976,-0.344,0.290,-0.878,0.527,109.520,2.938,1.036,1.064,2,4,3.277
1777493317862,-0.056,0.979,-0.349,0.214,-0.824,0.580,109.552,2.973,1.041,1.031,4,4,3.946
1777493317876,-0.050,0.975,-0.350,0.107,-0.786,0.519,109.601,2.921,1.037,0.948,4,4,3.311
1777493317890,-0.056,0.975,-0.354,0.130,-0.817,0.527,109.688,2.965,1.039,0.981,4,4,3.265
1777493317903,-0.058,0.977,-0.350,0.130,-0.878,0.527,109.695,3.033,1.040,1.032,4,4,3.586
1777493317917,-0.046,0.974,-0.346,0.237,-0.786,0.595,109.661,2.897,1.035,1.014,4,4,3.279
1777493317930,-0.049,0.971,-0.341,0.206,-0.672,0.618,109.577,2.845,1.030,0.936,4,4,3.934
1777493317944,-0.050,0.972,-0.347,0.351,-0.740,0.580,109.600,2.819,1.033,1.004,4,4,3.293
1777493317958,-0.052,0.976,-0.340,0.244,-0.771,0.756,109.492,2.843,1.035,1.107,4,4,3.257
1777493317971,-0.052,0.974,-0.345,0.206,-0.847,0.695,109.490,2.860,1.035,1.115,4,4,3.280
1777493317985,-0.059,0.975,-0.352,0.359,-0.893,0.794,109.581,2.962,1.038,1.248,4,4,3.264
1777493317999,-0.052,0.971,-0.344,0.252,-0.641,0.511,109.555,2.942,1.032,0.858,4,4,4.447
1777493318013,-0.049,0.969,-0.335,0.092,-0.794,0.626,109.430,2.880,1.026,1.015,4,4,3.272
1777493318027,-0.048,0.970,-0.347,0.084,-0.779,0.519,109.495,2.828,1.032,0.940,4,4,3.253
1777493318040,-0.050,0.972,-0.345,0.206,-0.756,0.458,109.503,2.811,1.033,0.907,4,4,3.277
1777493318054,-0.055,0.974,-0.352,0.176,-0.977,0.466,109.605,2.872,1.037,1.097,4,4,3.260
1777493318067,-0.051,0.971,-0.339,0.122,-0.786,0.435,109.506,2.867,1.030,0.907,4,4,3.955
1777493318081,-0.048,0.975,-0.343,0.198,-0.710,0.489,109.469,2.816,1.035,0.884,4,4,3.256
1777493318095,-0.053,0.971,-0.350,0.183,-0.863,0.313,109.563,2.852,1.034,0.936,4,4,3.283
1777493318108,-0.053,0.979,-0.341,-0.031,-0.916,0.565,109.472,2.869,1.038,1.077,4,4,3.274
1777493318122,-0.054,0.975,-0.348,0.168,-1.092,0.466,109.511,2.896,1.037,1.199,4,4,3.717
1777493318136,-0.054,0.968,-0.351,0.252,-0.924,0.382,109.627,2.931,1.031,1.031,4,4,3.943
1777493318150,-0.051,0.974,-0.345,0.069,-0.939,0.481,109.589,2.903,1.035,1.057,4,4,3.260
1777493318163,-0.053,0.970,-0.349,0.260,-0.947,0.397,109.646,2.910,1.033,1.059,4,4,3.289
1777493318177,-0.052,0.967,-0.340,0.053,-0.977,0.420,109.572,2.908,1.027,1.065,4,4,3.259
1777493318190,-0.051,0.974,-0.339,0.221,-0.901,0.565,109.470,2.880,1.033,1.086,4,4,3.271
1777493318203,-0.046,0.968,-0.344,0.092,-0.916,0.466,109.495,2.800,1.028,1.032,1,4,3.943
1777493318218,-0.052,0.972,-0.340,0.099,-0.817,0.420,109.439,2.828,1.032,0.924,1,4,3.277
1777493318232,-0.060,0.978,-0.344,-0.008,-1.031,0.450,109.425,2.953,1.038,1.125,1,4,3.274
1777493318245,-0.061,0.973,-0.352,0.053,-1.153,0.618,109.549,3.063,1.037,1.309,1,4,3.260
1777493318260,-0.056,0.971,-0.344,0.183,-1.107,0.473,109.543,3.075,1.031,1.218,1,4,3.271
1777493318273,-0.057,0.975,-0.338,0.160,-0.947,0.489,109.433,3.097,1.034,1.077,4,4,3.946
1777493318289,-0.055,0.982,-0.346,0.069,-0.962,0.458,109.424,3.080,1.042,1.068,4,4,5.791
1777493318303,-0.053,0.974,-0.344,0.092,-0.809,0.595,109.430,3.041,1.035,1.009,4,4,3.247
1777493318316,-0.057,0.970,-0.349,-0.046,-0.931,0.565,109.526,3.076,1.033,1.090,4,4,3.323
1777493318330,-0.054,0.975,-0.350,0.107,-0.985,0.542,109.586,3.054,1.037,1.129,4,4,3.255
1777493318344,-0.055,0.972,-0.342,0.069,-1.008,0.397,109.526,3.057,1.032,1.085,4,4,5.036
1777493318358,-0.054,0.979,-0.344,0.260,-1.229,0.351,109.473,3.035,1.039,1.304,4,4,3.325
1777493318372,-0.054,0.973,-0.352,0.168,-1.107,0.511,109.587,3.029,1.036,1.231,4,4,3.260
1777493318385,-0.060,0.975,-0.346,0.046,-1.069,0.397,109.577,3.101,1.036,1.141,4,4,3.275
1777493318398,-0.059,0.967,-0.349,-0.092,-0.969,0.275,109.652,3.148,1.030,1.012,4,4,3.258
1777493318412,-0.055,0.973,-0.353,-0.160,-0.931,0.397,109.732,3.115,1.036,1.025,4,4,3.968
1777493318426,-0.048,0.966,-0.344,-0.092,-0.847,0.458,109.698,3.003,1.026,0.968,4,4,3.252
1777493318440,-0.052,0.973,-0.337,-0.198,-0.916,0.473,109.539,2.980,1.031,1.050,4,4,3.949
1777493318453,-0.053,0.975,-0.345,0.069,-0.901,0.542,109.526,2.967,1.035,1.053,4,4,3.266
1777493318467,-0.055,0.975,-0.351,0.046,-0.794,0.565,109.600,2.985,1.038,0.975,4,4,3.677
1777493318481,-0.053,0.977,-0.342,0.015,-1.000,0.420,109.520,2.971,1.036,1.085,4,4,3.941
1777493318495,-0.051,0.972,-0.351,0.053,-0.718,0.420,109.609,2.935,1.035,0.833,4,4,3.591
1777493318508,-0.054,0.975,-0.344,-0.069,-0.824,0.473,109.561,2.953,1.035,0.953,4,4,3.273
1777493318522,-0.059,0.975,-0.355,0.023,-0.817,0.557,109.681,3.028,1.039,0.989,4,4,3.262
1777493318535,-0.049,0.971,-0.353,-0.031,-0.763,0.427,109.767,2.938,1.034,0.875,4,4,3.289
1777493318549,-0.060,0.978,-0.349,-0.015,-0.954,0.550,109.730,3.038,1.040,1.101,4,4,3.935
1777493318563,-0.054,0.971,-0.345,0.000,-0.840,0.557,109.680,3.027,1.032,1.008,4,4,3.288
1777493318576,-0.050,0.970,-0.349,0.000,-0.748,0.626,109.710,2.964,1.032,0.975,4,4,3.257
1777493318590,-0.046,0.968,-0.344,-0.023,-1.107,0.618,109.673,2.861,1.028,1.268,4,4,3.589
1777493318603,-0.051,0.977,-0.345,-0.107,-0.977,0.534,109.613,2.854,1.037,1.119,4,4,3.258
1777493318617,-0.056,0.973,-0.351,0.031,-0.954,0.458,109.671,2.926,1.036,1.059,4,4,3.889
1777493318631,-0.056,0.976,-0.341,-0.084,-0.939,0.435,109.555,2.979,1.036,1.038,4,4,3.272
1777493318644,-0.053,0.976,-0.345,-0.229,-1.038,0.626,109.526,2.962,1.037,1.234,4,4,3.254
1777493318657,-0.056,0.969,-0.344,-0.252,-0.832,0.481,109.535,3.002,1.030,0.994,4,4,3.275
1777493318671,-0.054,0.975,-0.349,-0.206,-0.962,0.328,109.585,2.997,1.037,1.037,4,4,3.309
1777493318686,-0.055,0.974,-0.344,-0.061,-1.099,0.557,109.545,3.013,1.034,1.234,2,4,4.004
1777493318700,-0.054,0.980,-0.339,-0.008,-0.832,0.664,109.412,3.011,1.039,1.065,2,4,3.260
1777493318714,-0.053,0.971,-0.342,0.069,-0.931,0.664,109.402,2.990,1.031,1.146,2,4,3.268
1777493318728,-0.057,0.971,-0.347,-0.046,-0.931,0.756,109.475,3.039,1.033,1.200,2,4,3.269
1777493318741,-0.053,0.978,-0.352,0.130,-0.710,0.473,109.566,3.006,1.041,0.863,2,4,3.264
1777493318758,-0.052,0.975,-0.349,0.099,-0.863,0.565,109.600,2.967,1.037,1.036,1,4,7.597
1777493318772,-0.042,0.970,-0.361,0.435,-0.931,0.427,109.812,2.800,1.036,1.113,1,4,3.296
1777493318786,-0.037,0.977,-0.348,0.626,-0.664,-0.626,109.753,2.590,1.037,1.107,1,4,3.302
1777493318799,-0.051,0.979,-0.346,0.595,-1.496,-0.908,109.678,2.647,1.040,1.849,1,4,3.275
1777493318814,-0.062,0.969,-0.356,0.359,-1.557,-0.809,109.810,2.868,1.034,1.791,1,4,4.626
1777493318828,-0.071,0.973,-0.353,0.130,-1.656,-0.282,109.845,3.147,1.038,1.685,4,4,3.928
1777493318843,-0.065,0.969,-0.358,-0.023,-1.557,0.763,109.958,3.276,1.035,1.734,4,4,4.358
1777493318856,-0.066,0.973,-0.343,-0.557,-1.275,1.076,109.814,3.382,1.034,1.759,4,4,3.283
1777493318869,-0.059,0.970,-0.348,-0.664,-1.145,1.595,109.797,3.355,1.032,2.073,4,4,3.263
1777493318883,-0.058,0.977,-0.343,-0.573,-1.076,1.756,109.673,3.320,1.037,2.137,4,4,3.270
1777493318896,-0.058,0.978,-0.343,-0.733,-1.061,1.679,109.579,3.287,1.038,2.117,4,4,3.933
1777493318910,-0.055,0.975,-0.346,-0.710,-0.962,1.695,109.573,3.216,1.036,2.074,4,4,3.290
1777493318924,-0.051,0.976,-0.337,-0.641,-0.962,1.626,109.427,3.104,1.034,1.995,4,4,3.250
1777493318938,-0.054,0.975,-0.347,-0.748,-1.160,1.588,109.475,3.068,1.037,2.104,4,4,4.528
1777493318952,-0.056,0.981,-0.343,-0.557,-0.908,1.496,109.423,3.078,1.041,1.837,4,4,3.271
1777493318966,-0.060,0.973,-0.351,-0.550,-0.878,1.687,109.531,3.148,1.036,1.980,4,4,4.954
1777493318980,-0.055,0.975,-0.346,-0.374,-0.855,1.885,109.530,3.126,1.036,2.104,4,4,3.259
1777493318995,-0.048,0.976,-0.346,-0.244,-0.756,1.817,109.525,2.992,1.037,1.983,4,4,4.345
1777493319008,-0.049,0.976,-0.350,-0.389,-0.718,1.687,109.587,2.920,1.038,1.874,4,4,3.259
1777493319021,-0.050,0.977,-0.335,-0.412,-0.977,1.466,109.404,2.873,1.034,1.809,4,4,3.253
1777493319035,-0.054,0.968,-0.351,-0.588,-0.672,1.565,109.544,2.904,1.031,1.802,4,4,3.923
1777493319049,-0.051,0.969,-0.341,-0.641,-0.786,1.779,109.500,2.891,1.029,2.048,4,4,3.250
1777493319062,-0.058,0.967,-0.352,-0.809,-0.855,1.588,109.635,2.983,1.031,1.977,4,4,3.282
1777493319076,-0.054,0.977,-0.357,-0.809,-0.847,1.634,109.751,2.975,1.042,2.010,4,4,3.669
1777493319089,-0.057,0.972,-0.343,-0.740,-0.908,1.832,109.665,3.032,1.033,2.175,4,4,3.269
1777493319103,-0.054,0.978,-0.341,-0.573,-0.916,1.908,109.538,3.015,1.037,2.193,1,4,3.933
1777493319117,-0.053,0.975,-0.340,-0.588,-0.824,1.992,109.457,2.993,1.034,2.235,1,4,3.261
1777493319130,-0.051,0.975,-0.340,-0.496,-0.824,1.611,109.391,2.942,1.034,1.876,1,4,3.273
1777493319143,-0.052,0.978,-0.350,-0.740,-0.908,1.695,109.473,2.914,1.040,2.060,1,4,3.258
1777493319157,-0.051,0.970,-0.340,-0.618,-0.786,1.748,109.432,2.898,1.029,2.014,1,4,3.284
1777493319170,-0.052,0.969,-0.347,-0.939,-0.802,1.924,109.514,2.893,1.030,2.286,2,4,3.919
1777493319184,-0.048,0.979,-0.333,-0.710,-0.679,2.061,109.323,2.831,1.036,2.283,2,4,3.292
1777493319197,-0.049,0.976,-0.346,-0.786,-0.771,1.885,109.381,2.791,1.037,2.184,2,4,3.269
1777493319211,-0.047,0.976,-0.335,-0.580,-0.534,1.908,109.269,2.747,1.033,2.065,2,4,3.265
1777493319224,-0.052,0.974,-0.343,-0.427,-0.710,1.847,109.306,2.777,1.034,2.025,2,4,3.263
1777493319238,-0.044,0.977,-0.346,-0.519,-0.511,1.672,109.367,2.683,1.037,1.824,4,4,3.945
1777493319252,-0.045,0.979,-0.339,-0.443,-0.634,1.275,109.287,2.636,1.037,1.491,4,4,3.273
1777493319265,-0.047,0.976,-0.349,-0.160,-0.687,1.519,109.395,2.631,1.037,1.675,4,4,3.264
1777493319278,-0.046,0.977,-0.337,-0.275,-0.420,1.580,109.299,2.607,1.035,1.658,4,4,3.308
1777493319292,-0.046,0.970,-0.349,-0.099,-0.511,1.466,109.428,2.591,1.032,1.555,4,4,3.270
1777493319305,-0.042,0.979,-0.338,-0.137,-0.924,1.244,109.328,2.525,1.037,1.556,1,4,4.057
1777493319319,-0.049,0.968,-0.354,-0.115,-0.908,1.504,109.536,2.580,1.031,1.761,1,4,3.264
1777493319333,-0.048,0.971,-0.340,-0.137,-1.031,1.176,109.468,2.599,1.030,1.569,1,4,3.265
1777493319346,-0.050,0.976,-0.347,-0.267,-0.740,1.168,109.497,2.637,1.037,1.408,1,4,3.264
1777493319359,-0.041,0.975,-0.335,-0.336,-0.870,1.153,109.351,2.533,1.031,1.483,1,4,3.266
1777493319373,-0.052,0.977,-0.335,-0.366,-0.756,0.977,109.243,2.620,1.034,1.288,1,4,3.918
1777493319387,-0.046,0.975,-0.342,-0.183,-0.634,0.870,109.264,2.607,1.034,1.092,1,4,3.259
1777493319400,-0.046,0.973,-0.343,-0.298,-0.885,0.740,109.303,2.598,1.033,1.192,1,4,3.292
1777493319414,-0.043,0.975,-0.343,-0.183,-0.954,0.962,109.329,2.547,1.034,1.367,1,4,3.260
1777493319427,-0.046,0.970,-0.340,-0.351,-1.008,0.718,109.318,2.553,1.029,1.286,1,4,3.249
1777493319440,-0.048,0.980,-0.338,-0.397,-1.008,0.595,109.236,2.585,1.037,1.236,1,1,3.885
1777493319454,-0.049,0.975,-0.340,-0.053,-1.046,0.679,109.238,2.618,1.034,1.248,1,1,3.249
1777493319468,-0.044,0.969,-0.348,-0.084,-1.214,0.565,109.377,2.574,1.031,1.341,1,1,3.267
1777493319481,-0.049,0.978,-0.337,-0.153,-1.084,0.519,109.285,2.605,1.036,1.212,1,1,3.261
1777493319494,-0.045,0.975,-0.346,-0.145,-1.137,0.282,109.358,2.577,1.035,1.181,1,1,3.283
1777493319508,-0.052,0.976,-0.343,0.176,-0.939,0.168,109.358,2.665,1.036,0.970,1,1,3.935
1777493319522,-0.044,0.974,-0.334,0.038,-0.992,0.336,109.241,2.602,1.031,1.048,1,1,3.273
1777493319535,-0.048,0.973,-0.340,-0.015,-1.122,0.634,109.252,2.613,1.032,1.289,1,1,3.265
1777493319549,-0.048,0.977,-0.332,-0.046,-1.183,0.412,109.124,2.624,1.033,1.254,1,1,3.268
1777493319562,-0.039,0.974,-0.343,-0.053,-1.176,0.534,109.190,2.497,1.034,1.292,1,1,3.276
1777493319575,-0.052,0.970,-0.348,-0.099,-1.099,0.458,109.336,2.599,1.032,1.195,1,1,3.923
1777493319589,-0.042,0.976,-0.340,0.092,-1.176,0.282,109.308,2.518,1.034,1.212,1,1,3.345
1777493319603,-0.040,0.976,-0.346,0.237,-1.092,0.298,109.365,2.433,1.036,1.156,1,1,3.262
1777493319616,-0.052,0.976,-0.344,-0.076,-0.664,0.267,109.383,2.556,1.036,0.720,1,1,3.272
1777493319629,-0.042,0.970,-0.343,-0.023,-1.092,0.214,109.400,2.504,1.030,1.113,1,1,3.265
1777493319643,-0.051,0.968,-0.347,-0.229,-1.023,0.328,109.482,2.592,1.029,1.098,1,1,3.946
1777493319657,-0.044,0.971,-0.344,-0.038,-1.229,0.397,109.488,2.559,1.031,1.292,1,1,3.265
1777493319670,-0.057,0.979,-0.337,-0.244,-0.985,0.389,109.358,2.717,1.037,1.087,1,1,3.264
1777493319684,-0.051,0.980,-0.330,-0.275,-0.977,1.168,109.150,2.739,1.035,1.547,1,1,3.286
1777493319697,-0.034,0.975,-0.343,-0.252,-1.137,0.076,109.207,2.511,1.034,1.167,1,1,3.255
1777493319710,-0.045,0.979,-0.336,-0.702,-1.107,0.023,109.135,2.504,1.036,1.311,1,1,3.929
1777493319724,-0.046,0.979,-0.338,-0.481,-1.046,-0.145,109.108,2.510,1.036,1.160,1,1,3.256
1777493319738,-0.048,0.979,-0.343,-0.687,-1.534,-0.137,109.162,2.553,1.038,1.687,1,1,3.261
1777493319751,-0.056,0.975,-0.333,-0.611,-1.214,0.260,109.085,2.699,1.032,1.383,1,1,3.257
1777493319765,-0.052,0.977,-0.342,-0.740,-1.221,0.740,109.137,2.754,1.036,1.609,1,1,3.258
1777493319778,-0.052,0.972,-0.335,-0.847,-1.137,0.878,109.112,2.789,1.029,1.668,4,1,3.896
1777493319792,-0.042,0.970,-0.335,-0.870,-1.053,1.198,109.104,2.676,1.027,1.818,4,1,3.257
1777493319805,-0.046,0.975,-0.331,-1.214,-0.466,0.969,109.009,2.639,1.031,1.622,4,1,3.281
1777493319819,-0.039,0.971,-0.335,-1.206,-0.809,0.420,109.020,2.518,1.028,1.512,4,1,3.264
1777493319832,-0.039,0.976,-0.334,-1.168,-1.374,0.160,108.991,2.424,1.032,1.810,4,1,3.279
1777493319845,-0.052,0.972,-0.335,-0.634,-1.260,0.229,109.003,2.544,1.030,1.428,4,1,3.896
1777493319859,-0.046,0.980,-0.331,-0.763,-1.542,0.496,108.917,2.539,1.035,1.791,4,1,3.259
1777493319873,-0.054,0.979,-0.344,-0.718,-1.344,0.481,109.032,2.657,1.039,1.597,4,1,3.266
1777493319886,-0.061,0.976,-0.336,-0.924,-1.244,0.855,109.020,2.857,1.034,1.770,4,1,3.254
1777493319899,-0.049,0.974,-0.342,-0.718,-1.634,1.298,109.104,2.813,1.034,2.206,4,1,3.282
1777493319913,-0.053,0.974,-0.343,-0.939,-1.191,1.496,109.179,2.854,1.034,2.130,2,1,3.927
1777493319927,-0.055,0.978,-0.337,-0.901,-1.374,2.053,109.138,2.904,1.036,2.630,2,1,3.275
1777493319940,-0.054,0.979,-0.333,-0.870,-1.298,2.107,109.048,2.922,1.036,2.623,2,1,3.257
1777493319954,-0.049,0.979,-0.339,-0.824,-1.160,2.679,109.064,2.858,1.037,3.034,2,1,3.266
1777493319967,-0.050,0.980,-0.343,-0.969,-1.244,3.038,109.128,2.828,1.040,3.423,2,1,3.256
1777493319980,-0.054,0.983,-0.329,-1.000,-0.710,3.183,108.959,2.865,1.038,3.411,2,1,3.921
1777493319995,-0.049,0.976,-0.335,-0.954,-0.832,3.634,108.951,2.831,1.033,3.848,2,1,3.704
1777493320008,-0.043,0.974,-0.344,-1.084,-0.931,3.557,109.088,2.713,1.034,3.834,2,1,3.260
1777493320022,-0.043,0.986,-0.336,-0.962,-1.107,3.534,109.015,2.625,1.042,3.826,2,1,3.283
1777493320035,-0.045,0.983,-0.336,-0.817,-0.908,3.656,108.970,2.588,1.040,3.855,2,1,3.274
1777493320048,-0.053,0.978,-0.332,-0.756,-0.962,4.099,108.909,2.686,1.034,4.278,1,1,3.959
1777493320062,-0.042,0.984,-0.328,-0.656,-1.092,4.313,108.781,2.579,1.038,4.497,1,1,3.271
1777493320076,-0.045,0.978,-0.338,-0.466,-0.779,4.489,108.862,2.558,1.035,4.579,1,1,3.264
1777493320089,-0.048,0.986,-0.340,-0.679,-0.588,4.855,108.902,2.577,1.044,4.937,1,1,3.273
1777493320103,-0.042,0.980,-0.332,-0.794,-0.435,4.893,108.848,2.505,1.036,4.976,1,1,3.254
1777493320116,-0.038,0.968,-0.334,-0.992,-0.588,4.939,108.894,2.400,1.025,5.072,4,1,3.938
1777493320130,-0.041,0.978,-0.333,-0.718,-0.267,4.824,108.879,2.359,1.034,4.885,4,1,3.259
1777493320143,-0.041,0.979,-0.342,-0.489,-0.046,5.038,108.974,2.330,1.038,5.062,4,1,3.268
1777493320157,-0.037,0.981,-0.337,-0.473,-0.160,5.267,108.967,2.250,1.038,5.291,4,1,3.258
1777493320170,-0.039,0.976,-0.332,-0.458,-0.351,5.595,108.911,2.232,1.032,5.625,4,1,3.259
1777493320183,-0.033,0.979,-0.335,-0.237,-0.252,5.672,108.908,2.126,1.035,5.682,2,4,3.888
1777493320197,-0.026,0.984,-0.330,-0.519,-0.137,5.511,108.802,1.934,1.038,5.538,2,4,3.259
1777493320211,-0.034,0.994,-0.336,-0.679,-0.176,4.763,108.773,1.908,1.050,4.815,2,4,3.294
1777493320224,-0.032,0.987,-0.331,-0.733,0.023,4.435,108.710,1.864,1.042,4.495,2,4,3.256
1777493320238,-0.021,0.974,-0.336,-0.489,-0.191,4.435,108.803,1.680,1.031,4.466,2,4,3.283
1777493320251,-0.029,0.980,-0.336,-0.237,-0.137,4.916,108.834,1.663,1.037,4.924,4,4,3.885
1777493320265,-0.034,0.967,-0.333,-0.107,0.046,5.237,108.879,1.727,1.023,5.238,4,4,3.271
1777493320278,-0.023,0.972,-0.340,0.344,-0.305,5.366,108.991,1.609,1.030,5.386,4,4,3.257
1777493320292,-0.036,0.975,-0.333,0.550,-0.053,5.832,108.953,1.717,1.030,5.858,4,4,3.258
1777493320305,-0.022,0.988,-0.342,0.603,-0.168,5.718,108.990,1.579,1.046,5.752,4,4,3.274
1777493320318,-0.027,0.984,-0.330,0.328,-0.282,5.626,108.875,1.549,1.038,5.643,4,4,3.877
1777493320332,-0.029,0.987,-0.333,0.198,-0.214,5.458,108.817,1.559,1.042,5.466,4,4,3.322
1777493320346,-0.011,0.975,-0.335,-0.176,-0.443,4.702,108.861,1.310,1.031,4.726,4,4,3.260
1777493320359,-0.017,0.980,-0.334,0.176,-0.565,4.702,108.844,1.211,1.036,4.739,4,4,3.269
1777493320373,-0.021,0.972,-0.346,0.603,-0.374,4.916,109.051,1.199,1.032,4.967,4,4,3.264
1777493320386,-0.027,0.968,-0.335,0.847,-0.282,5.328,109.064,1.284,1.025,5.403,4,4,3.896
1777493320400,-0.018,0.979,-0.335,0.885,-0.153,5.634,109.016,1.200,1.035,5.705,4,4,3.305
1777493320413,-0.013,0.993,-0.344,0.298,0.031,5.771,109.037,1.067,1.051,5.779,4,4,3.253
1777493320427,-0.015,0.983,-0.333,0.122,0.466,5.771,108.949,1.001,1.038,5.791,4,4,3.290
1777493320440,-0.016,1.000,-0.339,-0.015,0.046,5.382,108.886,0.967,1.055,5.382,4,4,3.250
1777493320454,-0.014,0.989,-0.330,-0.153,-0.015,4.985,108.771,0.912,1.043,4.987,4,4,3.906
1777493320468,-0.011,0.983,-0.340,0.115,-0.305,4.511,108.857,0.829,1.040,4.523,4,4,3.267
1777493320481,-0.012,0.989,-0.338,0.450,-0.160,4.458,108.857,0.790,1.045,4.484,4,4,3.265
1777493320494,-0.006,0.984,-0.330,0.840,-0.053,4.557,108.772,0.667,1.038,4.634,4,4,3.256
1777493320508,-0.030,0.997,-0.342,0.847,-0.389,4.527,108.820,0.931,1.054,4.622,4,4,3.258
1777493320521,-0.025,1.026,-0.321,1.565,-0.382,3.260,108.422,1.045,1.076,3.636,1,4,3.900
1777493320535,0.004,1.021,-0.322,2.336,0.031,1.366,108.174,0.703,1.071,2.706,1,4,3.253
1777493320548,0.014,0.988,-0.330,2.557,1.099,0.260,108.248,0.299,1.042,2.796,1,4,3.282
1777493320562,0.012,0.978,-0.327,6.130,2.878,-1.435,108.316,0.031,1.031,6.922,1,4,3.262
1777493320575,0.029,0.931,-0.352,5.275,1.198,-2.313,108.966,-0.433,0.996,5.883,1,4,3.265
1777493320589,0.039,0.943,-0.354,5.328,-0.809,-3.198,109.396,-0.912,1.008,6.267,1,4,3.892
1777493320603,-0.011,0.968,-0.337,4.542,-1.038,-2.672,109.342,-0.492,1.025,5.371,1,4,3.303
1777493320616,-0.018,0.956,-0.347,4.374,-0.771,-1.641,109.501,-0.081,1.017,4.735,1,4,3.260
1777493320629,-0.015,0.955,-0.347,3.458,-1.084,-0.588,109.631,0.164,1.016,3.671,1,4,3.258
1777493320643,-0.015,0.957,-0.353,2.672,-1.649,0.824,109.792,0.346,1.020,3.246,1,4,3.288
1777493320656,-0.031,0.957,-0.347,1.809,-1.359,1.649,109.831,0.716,1.019,2.800,1,4,3.877
1777493320670,-0.028,0.963,-0.346,1.092,-1.786,2.695,109.816,0.951,1.024,3.412,1,4,3.271
1777493320684,-0.022,0.966,-0.341,0.763,-0.504,3.809,109.718,1.026,1.024,3.917,1,4,3.260
1777493320697,-0.003,0.943,-0.358,0.038,-0.802,4.000,110.004,0.794,1.009,4.080,1,4,3.268
1777493320710,0.003,0.954,-0.357,-1.198,-1.107,3.840,110.140,0.539,1.018,4.172,1,4,3.421
1777493320724,0.009,0.940,-0.337,-2.267,-1.893,3.634,110.025,0.249,0.999,4.683,4,4,3.878
1777493320738,-0.025,0.993,-0.339,-1.504,-1.771,3.969,109.706,0.557,1.049,4.599,4,4,3.268
1777493320751,-0.001,1.000,-0.343,-2.244,-0.344,3.374,109.496,0.417,1.057,4.067,4,4,3.249
1777493320765,0.021,0.985,-0.348,-2.580,-0.687,1.496,109.492,-0.003,1.045,3.061,4,4,3.301
1777493320778,0.011,0.967,-0.347,-2.534,-1.916,0.901,109.563,-0.175,1.028,3.302,4,4,3.252
1777493320791,0.043,0.960,-0.325,-2.542,-1.252,-0.901,109.332,-0.788,1.014,2.973,1,4,3.910
1777493320805,0.044,0.951,-0.341,-2.176,-1.802,-1.725,109.440,-1.244,1.011,3.310,1,4,3.259
1777493320819,0.025,0.928,-0.341,-1.389,-2.550,-0.664,109.641,-1.297,0.990,2.979,1,4,3.264
1777493320832,-0.006,0.992,-0.372,-0.718,-4.183,0.931,109.884,-0.865,1.059,4.345,1,4,3.263
1777493320845,-0.076,1.024,-0.333,-0.153,-4.443,3.321,109.384,0.462,1.079,5.549,1,4,3.259
1777493320859,-0.018,1.004,-0.320,0.863,-3.336,2.450,108.916,0.599,1.054,4.228,1,1,3.945
1777493320873,0.021,0.989,-0.337,1.191,-3.153,1.397,108.888,0.119,1.045,3.648,1,1,3.272
1777493320886,-0.007,0.991,-0.336,1.206,-2.473,1.473,108.848,0.192,1.046,3.121,1,1,3.273
1777493320900,0.008,0.971,-0.344,1.855,-2.695,1.824,109.025,0.026,1.030,3.746,1,1,3.260
1777493320913,-0.014,0.972,-0.361,2.160,-4.145,2.710,109.392,0.230,1.037,5.403,1,1,3.272
1777493320927,-0.041,1.003,-0.340,2.237,-4.466,4.519,109.206,0.764,1.060,6.735,1,1,3.892
1777493320941,-0.022,1.008,-0.332,1.015,-2.969,4.947,108.945,0.885,1.061,5.858,1,1,3.262
1777493320954,0.007,0.992,-0.346,-0.099,-2.191,3.679,109.025,0.538,1.050,4.283,1,1,3.268
1777493320967,-0.006,0.977,-0.343,-0.786,-2.473,2.870,109.118,0.484,1.035,3.870,1,1,3.255
1777493320981,-0.010,0.982,-0.334,-0.901,-2.382,3.137,109.032,0.506,1.038,4.041,1,1,3.284
1777493320994,-0.007,0.979,-0.339,-0.748,-1.878,3.908,109.045,0.475,1.036,4.400,1,1,3.896
1777493321008,-0.017,1.001,-0.332,-0.252,-1.427,4.389,108.859,0.601,1.055,4.622,1,1,3.271
1777493321022,-0.027,1.000,-0.331,-0.550,-0.427,5.000,108.710,0.833,1.053,5.048,1,1,3.258
1777493321035,-0.011,0.991,-0.333,-0.542,0.053,4.947,108.682,0.778,1.045,4.976,1,1,3.283
1777493321048,0.002,0.992,-0.358,-0.695,-0.702,4.221,108.997,0.539,1.055,4.335,1,1,3.266
1777493321062,0.013,1.000,-0.334,-0.198,-0.328,3.550,108.850,0.207,1.055,3.570,1,1,3.884
1777493321076,0.019,0.979,-0.347,0.656,-0.351,2.466,109.025,-0.125,1.039,2.576,1,1,3.281
1777493321089,0.034,0.989,-0.350,2.061,-1.656,1.145,109.145,-0.599,1.050,2.882,1,1,3.274
1777493321102,0.005,0.994,-0.340,4.290,-2.641,0.863,109.071,-0.509,1.051,5.111,1,1,3.271
1777493321116,-0.005,1.018,-0.333,7.412,-2.359,1.282,108.815,-0.298,1.071,7.883,1,1,3.262
1777493321129,-0.014,1.027,-0.335,11.221,-1.885,1.634,108.620,-0.018,1.080,11.495,1,1,3.882
1777493321143,-0.011,1.046,-0.333,15.679,-1.038,2.214,108.359,0.139,1.097,15.869,1,1,3.276
1777493321157,-0.023,1.071,-0.347,21.145,0.947,2.817,108.253,0.420,1.126,21.353,1,1,3.260
1777493321170,-0.017,1.117,-0.351,29.214,4.847,1.038,108.032,0.526,1.171,29.631,1,1,3.278
1777493321183,-0.012,1.073,-0.365,33.679,4.366,3.458,108.239,0.551,1.134,34.137,1,1,3.256
1777493321197,-0.038,1.108,-0.385,40.565,3.000,4.435,108.494,0.907,1.174,40.917,4,1,3.932
1777493321211,-0.050,1.152,-0.369,48.527,2.626,8.649,108.296,1.302,1.211,49.361,4,1,3.270
1777493321224,-0.077,1.125,-0.385,53.466,5.160,9.870,108.457,1.950,1.192,54.613,4,1,3.277
1777493321238,-0.032,1.125,-0.424,53.313,9.366,4.573,109.050,1.841,1.203,54.322,4,1,3.260
1777493321251,0.068,1.160,-0.435,51.015,15.496,-7.931,109.451,0.494,1.241,53.904,4,1,3.260
1777493321264,-0.922,0.810,-0.411,59.137,35.939,-13.344,111.466,12.640,1.294,70.476,4,1,3.894
1777493321278,0.118,1.296,-0.379,62.634,27.969,-9.504,110.071,7.871,1.355,69.250,4,1,3.257
1777493321292,0.073,1.028,-0.372,51.229,23.611,-14.206,110.022,4.709,1.095,58.169,4,1,3.300
1777493321305,-0.092,0.978,-0.372,51.947,30.221,4.496,110.244,4.791,1.050,60.266,4,1,3.259
1777493321319,-0.146,0.959,-0.371,47.725,32.145,1.168,110.487,5.686,1.039,57.553,4,1,3.298
1777493321332,-0.222,0.910,-0.323,39.344,36.374,-1.008,110.235,7.650,0.991,53.591,4,1,3.883
1777493321346,0.126,0.654,0.293,15.542,-3.130,-16.565,98.252,2.889,0.727,22.929,4,1,3.278
1777493321359,-0.303,1.001,0.243,12.038,24.389,-1.038,92.332,6.541,1.074,27.218,4,1,3.264
1777493321373,-0.061,0.736,0.305,2.328,-8.397,-22.321,85.627,5.953,0.799,23.961,4,1,3.259
1777493321386,-0.094,0.792,0.304,-22.557,-10.794,-12.901,81.127,6.044,0.853,28.138,4,1,3.292
1777493321399,-0.128,0.760,0.326,-40.351,-16.962,-12.878,77.251,6.783,0.837,45.626,4,1,3.888
1777493321413,-0.091,0.888,0.258,-51.305,-28.023,-16.046,76.320,6.470,0.929,60.622,4,1,3.308
1777493321427,-0.019,0.893,0.118,-61.595,-35.405,-15.489,77.976,5.045,0.901,72.714,4,1,3.257
1777493321440,-0.013,0.929,0.011,-72.443,-50.214,-13.672,81.045,3.898,0.929,89.198,4,1,3.259
1777493321454,-0.073,1.014,-0.107,-79.687,-59.550,-9.321,85.099,3.959,1.022,99.915,4,1,3.263
1777493321467,-0.129,1.033,-0.159,-82.473,-64.939,-7.969,88.786,4.792,1.053,105.273,4,4,3.890
1777493321481,-0.174,1.072,-0.228,-82.588,-68.328,-9.282,92.359,5.930,1.109,107.590,4,4,3.272
1777493321494,-0.191,1.091,-0.299,-82.603,-70.863,-11.771,95.861,6.923,1.147,109.468,4,4,3.268
1777493321508,-0.168,1.017,-0.373,-87.328,-74.168,-18.588,99.712,7.430,1.096,116.072,4,4,3.297
1777493321521,-0.204,1.002,-0.408,-95.183,-75.328,-25.542,103.074,8.308,1.101,124.043,4,4,3.357
1777493321535,-0.228,1.064,-0.394,-98.542,-70.336,-26.092,105.036,9.134,1.157,123.848,5,4,4.002
1777493321549,-0.190,1.087,-0.407,-99.542,-58.824,-31.756,106.517,9.174,1.176,119.906,5,4,3.266
1777493321562,-0.159,1.083,-0.446,-101.420,-49.611,-36.000,108.100,8.789,1.183,118.504,5,4,3.262
1777493321575,-0.168,1.112,-0.457,-100.008,-36.038,-33.695,109.244,8.567,1.214,111.515,5,4,3.268
1777493321589,-0.204,1.166,-0.438,-94.221,-22.046,-28.763,109.614,8.770,1.262,100.951,5,4,3.255
1777493321602,-0.175,1.109,-0.434,-89.824,-7.382,-31.412,110.088,8.653,1.204,95.444,5,4,3.907
1777493321616,-0.134,1.012,-0.432,-90.130,1.527,-37.779,110.909,8.194,1.109,97.739,5,4,3.253
1777493321630,-0.128,1.076,-0.378,-88.878,9.771,-36.557,110.496,7.706,1.147,96.598,5,4,3.307
1777493321643,-0.010,1.118,-0.319,-81.221,12.282,-33.511,109.256,5.758,1.162,88.717,5,4,3.257
1777493321656,0.018,1.083,-0.305,-73.550,12.145,-32.107,108.304,3.953,1.125,81.166,5,4,3.273
1777493321670,0.114,0.965,-0.287,-70.214,5.092,-29.443,107.834,1.148,1.014,76.307,1,4,3.859
1777493321684,0.121,1.002,-0.270,-65.046,-3.542,-20.947,107.094,-0.953,1.045,68.427,1,4,3.255
1777493321697,-0.018,1.061,-0.287,-57.122,-6.580,-15.443,106.567,-0.445,1.099,59.538,1,4,3.306
1777493321710,-0.035,1.008,-0.289,-50.634,-9.366,-16.366,106.407,0.187,1.049,54.031,1,4,3.256
1777493321724,-0.039,1.022,-0.274,-43.756,-14.870,-14.397,106.024,0.701,1.059,48.404,1,4,3.735
1777493321738,-0.074,0.983,-0.215,-39.695,-20.214,-11.916,105.024,1.654,1.009,46.111,1,4,3.903
1777493321752,-0.075,0.957,-0.205,-36.031,-24.962,-10.809,104.227,2.387,0.981,45.146,1,4,3.702
1777493321765,-0.062,0.909,-0.254,-33.504,-27.618,-9.275,104.600,2.754,0.946,44.399,1,4,3.261
1777493321779,-0.079,0.898,-0.292,-30.313,-29.809,-7.198,105.527,3.299,0.948,43.119,1,4,3.263
1777493321792,-0.139,0.954,-0.294,-23.985,-23.244,-1.939,105.966,4.555,1.008,33.456,1,4,3.256
1777493321806,-0.162,0.938,-0.314,-16.107,-18.435,-2.969,106.661,5.843,1.002,24.660,1,4,3.899
1777493321820,-0.149,0.883,-0.334,-11.534,-12.344,-4.321,107.758,6.683,0.956,17.438,1,4,3.262
1777493321834,-0.128,0.882,-0.341,-9.321,-12.718,-0.565,108.671,6.955,0.954,15.777,1,4,4.102
1777493321848,-0.173,0.945,-0.325,-0.954,-8.366,5.328,108.761,7.730,1.014,9.965,1,4,3.945
1777493321861,-0.204,0.946,-0.291,7.298,-6.443,1.519,108.312,8.793,1.011,9.853,1,4,3.277
1777493321875,-0.172,0.876,-0.269,10.718,-9.786,-2.519,107.967,9.294,0.933,14.730,1,1,3.943
1777493321889,-0.158,0.903,-0.255,14.473,-13.771,1.863,107.377,9.374,0.951,20.065,1,1,3.284
1777493321902,-0.164,0.921,-0.249,20.183,-16.023,3.389,106.765,9.469,0.968,25.992,1,1,3.315
1777493321916,-0.185,0.881,-0.303,24.198,-17.267,-0.779,107.372,9.939,0.950,29.738,1,1,3.287
1777493321929,-0.193,0.875,-0.305,26.374,-18.092,0.664,107.864,10.438,0.947,31.990,1,1,3.288
1777493321942,-0.208,0.926,-0.291,31.282,-15.733,4.481,107.745,10.894,0.992,35.301,1,1,3.965
1777493321957,0.182,0.712,-0.161,52.122,-36.145,46.840,106.394,4.163,0.753,78.849,1,1,3.267
1777493321970,0.014,1.365,0.309,83.107,-18.237,60.588,98.522,2.882,1.400,104.452,1,1,3.264
1777493321983,-0.381,2.491,1.413,74.649,-45.008,61.672,88.233,4.150,2.890,106.778,1,1,3.259
1777493321997,0.090,1.073,0.401,67.313,-14.061,33.603,83.173,1.810,1.149,76.537,1,1,3.271
1777493322010,0.472,1.052,-0.830,93.656,-34.038,-5.321,95.354,-3.918,1.421,99.792,5,1,3.852
1777493322024,-0.301,0.916,-0.416,85.153,8.740,-16.130,100.506,1.647,1.050,87.106,5,1,3.257
1777493322037,-0.135,1.004,-0.007,73.321,42.664,-24.450,97.773,3.264,1.013,88.283,5,1,3.293
1777493322051,-0.087,0.985,-0.180,65.786,48.405,-25.221,98.475,3.727,1.005,85.481,5,1,3.259
1777493322064,-0.055,1.008,-0.211,66.275,29.198,-24.252,99.383,3.549,1.031,76.374,5,1,3.268
1777493322078,-0.257,0.963,-0.140,70.061,4.000,-13.351,99.089,6.592,1.007,71.434,5,1,3.848
1777493322092,-0.331,0.907,-0.235,69.366,-16.198,5.038,100.552,10.069,0.994,71.411,5,1,3.264
1777493322105,-0.267,0.945,-0.227,65.634,-25.191,17.336,101.347,11.496,1.008,72.408,5,1,3.254
1777493322118,-0.184,0.962,-0.219,65.908,-29.000,19.145,101.750,11.242,1.004,74.508,5,1,3.260
1777493322132,-0.186,0.970,-0.211,64.802,-24.916,18.321,101.894,11.076,1.010,71.803,5,1,3.308
1777493322145,-0.162,0.915,-0.309,54.290,4.885,13.420,103.718,10.660,0.979,56.137,5,1,3.887
1777493322159,-0.093,0.999,-0.251,50.450,18.870,4.542,103.819,9.171,1.034,54.055,5,1,3.267
1777493322172,-0.098,0.987,-0.272,46.702,24.183,-3.542,104.247,8.168,1.029,52.711,5,1,3.261
1777493322186,-0.100,0.928,-0.354,38.954,21.000,-6.458,106.033,7.509,0.998,44.723,5,1,3.270
1777493322199,-0.168,0.927,-0.330,28.977,14.557,-5.779,106.990,8.100,0.999,32.939,5,1,3.266
1777493322213,-0.145,0.944,-0.339,23.618,10.931,-1.695,107.731,8.127,1.013,26.080,1,1,3.908
1777493322227,-0.189,0.972,-0.279,21.733,11.611,5.931,107.267,8.790,1.029,25.344,1,1,3.263
1777493322240,-0.160,1.008,-0.234,27.947,15.786,11.489,106.126,8.788,1.047,34.091,1,1,3.257
1777493322254,-0.158,0.976,-0.301,30.282,20.908,14.481,106.397,8.789,1.034,39.546,1,1,3.376
1777493322267,-0.096,0.938,-0.327,29.153,22.313,11.595,107.163,7.912,0.999,38.499,1,1,3.256
1777493322280,0.043,0.954,-0.390,20.328,15.885,-2.191,108.534,5.122,1.031,25.892,1,1,4.019
1777493322294,-0.042,0.961,-0.343,15.053,7.580,-11.206,108.834,4.371,1.021,20.240,1,1,3.253
1777493322308,-0.122,0.944,-0.356,15.405,5.443,-12.351,109.333,5.058,1.016,20.481,1,1,3.273
1777493322321,-0.132,0.948,-0.367,13.939,1.580,-12.237,109.828,5.688,1.025,18.615,1,1,3.284
1777493322335,-0.135,0.951,-0.345,5.603,1.740,-12.069,109.853,6.205,1.021,13.419,1,1,3.282
1777493322348,-0.177,0.961,-0.325,4.718,3.611,-9.290,109.542,7.194,1.030,11.027,1,1,3.963
1777493322362,-0.200,0.971,-0.314,9.130,5.931,-5.840,109.103,8.242,1.040,12.355,1,1,3.251
1777493322375,-0.126,0.963,-0.352,11.893,6.664,-6.145,109.372,7.911,1.033,14.954,1,1,3.288
1777493322389,-0.146,0.973,-0.317,14.695,6.015,-6.183,109.014,7.959,1.034,17.040,1,1,3.308
1777493322402,-0.113,0.953,-0.358,15.504,4.893,-7.763,109.440,7.521,1.024,18.016,1,1,3.308
1777493322416,-0.093,0.953,-0.352,14.069,3.626,-11.740,109.658,6.903,1.020,18.679,1,1,3.847
1777493322430,-0.114,0.943,-0.358,13.893,0.198,-15.756,109.961,6.785,1.015,21.007,1,1,3.258
1777493322443,-0.144,0.944,-0.364,14.191,-1.908,-17.496,110.264,7.145,1.022,22.608,1,1,3.258
1777493322456,-0.159,0.953,-0.377,12.008,-1.916,-17.450,110.621,7.597,1.037,21.269,1,1,3.264
1777493322470,-0.213,0.959,-0.347,10.794,1.061,-14.084,110.427,8.727,1.042,17.776,1,1,3.297
1777493322483,-0.182,0.948,-0.378,10.649,1.084,-10.962,110.780,9.100,1.036,15.321,1,1,3.852
1777493322497,-0.195,0.949,-0.360,11.122,1.885,-7.351,110.780,9.574,1.033,13.465,1,1,3.274
1777493322511,-0.165,0.945,-0.379,10.824,1.344,-5.664,111.065,9.478,1.031,12.290,1,1,3.298
1777493322524,-0.161,0.952,-0.378,10.351,1.275,-4.962,111.227,9.329,1.037,11.550,1,1,3.257
1777493322537,-0.208,0.946,-0.359,11.031,2.458,-3.115,111.115,9.941,1.033,11.722,1,1,3.363
1777493322551,-0.170,0.938,-0.388,10.565,2.557,-1.931,111.476,9.822,1.029,11.040,1,1,3.920
1777493322565,-0.181,0.942,-0.387,9.870,2.527,0.267,111.704,9.891,1.034,10.192,1,1,3.311
1777493322578,-0.191,0.953,-0.387,10.321,2.794,2.061,111.810,10.059,1.046,10.889,1,1,3.253
1777493322592,-0.195,0.980,-0.360,10.687,4.718,3.313,111.372,10.197,1.062,12.143,1,1,3.284
1777493322605,-0.204,0.949,-0.376,12.198,6.794,6.260,111.444,10.496,1.041,15.302,1,1,3.286
1777493322618,-0.185,0.945,-0.391,12.939,6.847,8.649,111.723,10.425,1.039,17.003,1,1,3.921
1777493322632,-0.163,0.950,-0.402,13.802,7.321,10.954,112.053,10.031,1.045,19.081,1,1,3.258
1777493322646,-0.167,0.962,-0.380,15.420,8.443,12.176,111.918,9.807,1.047,21.384,1,1,3.253
1777493322659,-0.163,0.950,-0.394,17.710,10.977,12.885,112.075,9.592,1.041,24.498,1,1,3.273
1777493322673,-0.146,0.951,-0.404,19.359,10.939,12.229,112.325,9.170,1.043,25.377,1,1,3.243
1777493322687,-0.163,0.990,-0.376,20.542,11.206,10.847,111.912,9.058,1.071,25.792,4,1,5.174
1777493322701,-0.104,0.955,-0.431,20.672,12.046,9.107,112.561,8.135,1.053,25.600,4,1,3.314
1777493322717,-0.137,0.948,-0.415,19.733,8.664,6.748,112.844,7.977,1.044,22.583,4,1,4.521
1777493322731,-0.112,0.924,-0.449,17.573,7.595,5.725,113.680,7.496,1.034,19.982,4,1,3.256
1777493322744,-0.124,0.921,-0.441,15.237,5.145,5.473,114.198,7.345,1.029,16.988,4,1,3.461
1777493322757,-0.096,0.936,-0.449,12.977,4.817,4.809,114.582,6.787,1.043,14.654,4,1,3.857
1777493322771,-0.147,0.939,-0.440,11.557,3.611,4.053,114.725,7.136,1.048,12.769,4,1,3.267
1777493322785,-0.152,0.931,-0.450,10.420,5.053,4.885,115.019,7.472,1.045,12.569,4,1,3.257
1777493322798,-0.136,0.936,-0.451,10.244,4.366,5.542,115.212,7.469,1.047,12.439,4,1,3.269
1777493322812,-0.122,0.965,-0.442,11.260,4.122,4.519,115.052,7.227,1.068,12.814,4,1,3.282
1777493322826,-0.125,0.962,-0.454,12.412,3.595,3.389,115.110,7.085,1.071,13.360,1,1,3.845
1777493322841,-0.151,0.940,-0.450,14.725,3.542,3.061,115.237,7.399,1.054,15.451,1,1,4.762
1777493322855,-0.114,0.904,-0.456,17.069,3.351,2.450,115.651,7.139,1.019,17.566,1,1,3.249
1777493322868,-0.113,0.929,-0.462,19.053,2.076,1.786,115.862,6.884,1.043,19.249,1,1,3.436
1777493322881,-0.142,0.972,-0.456,21.641,2.992,2.351,115.663,7.061,1.083,21.973,1,1,3.271
1777493322895,-0.166,0.976,-0.450,23.679,4.756,3.076,115.424,7.522,1.087,24.347,4,1,3.859
1777493322909,-0.133,0.950,-0.480,23.840,6.809,3.084,115.791,7.408,1.073,24.984,4,1,3.289
1777493322922,-0.120,0.910,-0.498,22.511,5.122,2.260,116.574,7.195,1.044,23.197,4,1,3.259
1777493322937,-0.081,0.910,-0.492,20.053,4.427,1.992,117.073,6.454,1.038,20.633,4,1,4.517
1777493322950,-0.118,0.910,-0.493,17.954,2.641,2.244,117.444,6.462,1.042,18.286,4,1,3.260
1777493322965,-0.072,0.895,-0.508,16.611,1.718,3.290,118.017,5.791,1.031,17.020,4,1,5.167
1777493322980,-0.116,0.904,-0.515,16.115,-0.252,2.947,118.456,5.941,1.047,16.384,4,1,3.260
1777493322994,-0.121,0.932,-0.501,17.122,-0.160,2.519,118.407,6.093,1.065,17.307,4,1,3.325
1777493323007,-0.098,0.922,-0.513,18.038,0.977,3.099,118.590,5.886,1.060,18.329,4,1,3.259
1777493323020,-0.115,0.986,-0.509,18.595,1.588,4.328,118.235,5.887,1.116,19.158,4,1,3.262
1777493323034,-0.144,0.966,-0.536,17.443,2.985,2.023,118.451,6.300,1.115,17.812,4,4,3.852
1777493323048,1.022,1.914,-0.370,-0.756,-0.595,21.191,113.719,-2.874,2.201,21.213,4,4,3.255
1777493323062,-0.380,0.927,-0.620,14.015,10.481,14.061,116.439,2.988,1.178,22.450,4,4,3.287
1777493323076,0.070,1.011,-0.490,16.855,3.901,14.053,116.276,1.217,1.126,22.289,4,4,3.245
1777493323090,-0.023,0.980,-0.526,21.008,-8.282,11.351,116.804,1.211,1.113,25.274,4,4,4.379
1777493323104,0.003,1.002,-0.534,24.031,-8.435,12.672,117.146,0.837,1.135,28.446,4,4,3.843
1777493323119,-0.035,0.988,-0.538,26.786,-14.702,14.435,117.533,1.091,1.125,33.794,4,4,4.338
1777493323132,-0.070,1.013,-0.548,29.244,-17.176,17.260,117.773,1.737,1.154,38.054,4,4,3.251
1777493323145,-0.200,1.027,-0.563,31.977,-17.931,18.069,118.032,3.889,1.188,40.872,4,4,3.264
1777493323159,-0.140,0.975,-0.573,34.420,-14.198,17.481,118.682,4.740,1.140,41.133,4,4,3.255
1777493323172,-0.102,0.988,-0.573,36.412,-13.260,18.542,119.073,4.842,1.147,42.959,4,4,3.859
1777493323186,-0.053,0.986,-0.559,39.122,-13.076,19.122,119.206,4.264,1.134,45.466,4,4,3.280
1777493323200,-0.038,0.977,-0.574,41.969,-13.328,19.794,119.535,3.635,1.134,48.279,4,4,3.251
1777493323214,-0.062,0.982,-0.572,45.153,-8.000,21.198,119.720,3.491,1.138,50.519,4,4,4.382
1777493323228,-0.123,0.953,-0.552,48.725,-6.611,22.939,119.826,4.263,1.108,54.259,4,4,3.250
1777493323242,-0.124,0.943,-0.593,51.344,-5.908,24.008,120.451,4.821,1.121,56.986,4,4,6.741
1777493323258,-0.173,0.936,-0.596,54.832,-3.573,24.153,121.004,5.908,1.123,60.022,4,4,3.255
1777493323272,-0.180,0.972,-0.603,57.664,1.809,22.038,121.217,6.723,1.158,61.758,4,4,3.374
1777493323286,-0.091,0.949,-0.627,59.458,7.595,21.450,121.825,6.144,1.141,63.664,4,4,3.259
1777493323299,-0.056,0.915,-0.614,60.542,6.000,21.336,122.377,5.273,1.103,64.471,4,4,3.253
1777493323312,-0.045,0.910,-0.630,61.420,4.122,19.977,123.002,4.480,1.107,64.718,4,4,3.859
1777493323326,-0.026,0.909,-0.646,62.725,1.878,18.649,123.646,3.629,1.116,65.466,4,4,3.258
1777493323341,0.013,0.942,-0.654,66.656,-2.458,17.573,123.948,2.474,1.147,68.978,4,4,3.268
1777493323354,-0.046,0.979,-0.651,71.595,-1.000,18.458,123.865,2.416,1.176,73.943,4,4,3.248
1777493323369,-0.048,1.003,-0.661,77.412,-1.504,18.977,123.736,2.379,1.202,79.719,4,4,4.412
1777493323383,-0.104,1.017,-0.661,83.916,0.786,16.473,123.544,3.055,1.217,85.521,4,4,3.848
1777493323398,-0.058,0.965,-0.653,89.328,3.794,14.252,123.690,2.998,1.166,90.538,4,4,4.410
1777493323411,-0.035,0.935,-0.663,92.191,6.374,16.252,124.138,2.656,1.147,93.829,4,4,3.277
1777493323425,-0.044,0.846,-0.651,91.794,6.229,14.588,125.067,2.572,1.068,93.154,4,4,3.267
1777493323438,-0.083,0.865,-0.686,93.015,6.145,13.550,125.971,3.046,1.106,94.198,4,4,3.254
1777493323451,-0.128,0.881,-0.703,93.908,10.023,10.779,126.674,3.976,1.135,95.055,4,4,3.852
1777493323465,-0.168,0.912,-0.689,98.160,13.229,6.351,126.775,5.157,1.155,99.251,4,4,3.272
1777493323479,-0.199,0.997,-0.684,104.573,20.008,1.580,126.145,6.285,1.225,106.481,4,4,3.241
1777493323494,-0.197,1.027,-0.697,115.603,26.336,-2.473,125.606,7.028,1.256,118.591,4,4,4.383
1777493323507,-0.186,1.044,-0.766,131.115,36.763,-7.939,125.791,7.335,1.308,136.402,4,4,3.265
1777493323522,-0.123,1.004,-0.982,152.809,43.626,-14.076,128.105,6.701,1.410,159.537,4,4,4.879
1777493323536,-0.058,1.073,-1.355,190.427,40.550,-23.366,131.754,5.411,1.730,196.094,4,4,3.259
1777493323549,0.224,0.891,-1.421,191.695,-4.260,-39.870,136.115,1.893,1.692,195.843,4,4,3.333
1777493323563,-0.336,0.572,-1.086,183.206,-4.344,-29.389,140.472,5.518,1.273,185.599,4,4,3.257
1777493323576,-0.519,0.605,-0.929,157.427,34.573,-39.718,142.211,10.806,1.224,166.000,4,4,3.252
1777493323590,-0.301,0.594,-0.830,131.298,57.443,-32.664,142.807,12.325,1.063,146.989,4,4,3.875
1777493323604,-0.113,0.428,-0.908,106.740,76.214,-21.099,146.037,10.724,1.010,132.843,4,4,3.250
1777493323618,0.102,0.591,-0.948,97.000,63.504,-4.076,146.584,6.416,1.121,116.010,4,4,4.411
1777493323632,0.055,0.470,-0.900,84.962,46.183,-1.718,148.157,3.842,1.017,96.718,4,4,3.257
1777493323646,0.090,0.421,-0.785,74.290,28.359,-11.031,149.137,1.245,0.896,80.280,4,4,4.363
1777493323660,0.007,0.315,-0.662,58.824,24.565,-14.191,150.609,0.770,0.733,65.308,4,4,3.851
1777493323674,0.024,0.309,-0.563,48.672,25.359,-14.115,150.778,-0.008,0.643,56.668,4,4,3.256
1777493323687,0.079,0.291,-0.525,41.374,28.519,-13.832,150.839,-2.023,0.605,52.120,4,4,3.250
1777493323701,0.190,0.250,-0.462,31.847,23.313,-9.069,151.048,-6.858,0.558,40.497,4,4,4.000
1777493323714,0.237,0.194,-0.400,20.061,15.931,-2.702,151.879,-12.586,0.504,25.760,4,4,3.252
1777493323728,0.261,0.159,-0.374,4.038,8.672,3.031,153.260,-18.025,0.483,10.034,4,4,3.911
1777493323742,0.293,0.053,-0.417,-20.649,-5.824,4.588,158.517,-22.579,0.512,21.940,4,4,3.262
1777493323755,0.260,0.013,-0.409,-51.069,-19.229,2.641,163.822,-25.240,0.485,54.633,4,4,3.255
1777493323769,0.183,0.128,-0.388,-71.443,-24.863,5.397,163.248,-24.931,0.448,75.838,4,4,3.270
1777493323782,0.177,0.199,-0.401,-84.626,-27.405,9.725,160.649,-24.035,0.482,89.483,4,4,3.253
1777493323795,0.102,0.280,-0.382,-96.542,-26.397,10.511,156.089,-20.813,0.484,100.636,5,4,3.903
1777493323809,0.037,0.358,-0.352,-108.939,-22.397,3.481,150.259,-16.339,0.504,111.272,5,4,3.262
1777493323823,0.020,0.322,-0.315,-129.176,-18.771,-4.679,145.970,-12.596,0.451,130.616,5,4,3.259
1777493323836,0.004,0.438,-0.249,-146.611,-17.023,-2.107,138.859,-9.321,0.503,147.611,5,4,3.267
1777493323849,0.095,0.525,-0.314,-158.832,-20.458,2.366,134.011,-9.179,0.619,160.162,5,4,3.260
1777493323863,0.138,0.594,-0.365,-170.656,-28.695,4.260,130.650,-9.733,0.711,173.104,5,4,3.943
1777493323877,0.059,0.685,-0.415,-181.489,-41.435,6.794,128.103,-8.239,0.803,186.282,5,4,3.264
1777493323890,-0.023,0.711,-0.419,-189.786,-45.832,3.015,126.043,-5.587,0.826,195.265,5,4,3.267
1777493323903,-0.146,0.699,-0.416,-204.122,-45.198,-9.168,124.618,-1.334,0.827,209.267,5,4,3.270
1777493323917,-0.233,0.774,-0.382,-222.595,-41.740,-19.351,122.370,3.110,0.894,227.300,5,4,3.263
1777493323930,-0.256,0.940,-0.361,-234.122,-31.466,-20.237,119.292,6.121,1.039,237.092,5,4,3.931
1777493323944,-0.128,1.021,-0.448,-241.405,-26.084,-18.176,117.785,6.243,1.122,243.489,5,4,3.265
1777493323958,-0.067,1.163,-0.519,-244.061,-38.664,-11.649,116.772,5.368,1.276,247.379,5,4,3.644
1777493323971,-0.118,1.249,-0.555,-241.534,-45.786,-9.756,116.010,5.256,1.372,246.029,5,4,3.253
1777493323985,-0.161,1.308,-0.591,-238.901,-51.282,-14.832,115.553,5.563,1.445,244.793,5,4,3.276
1777493323998,-0.152,1.349,-0.658,-237.443,-56.321,-21.290,115.678,5.621,1.509,244.958,5,4,3.926
1777493324012,-0.156,1.394,-0.717,-233.969,-61.458,-18.450,116.097,5.633,1.575,242.609,5,4,3.272
1777493324026,-0.222,1.400,-0.768,-229.214,-62.725,-15.870,116.815,6.250,1.612,238.171,5,4,3.261
1777493324039,-0.271,1.403,-0.784,-225.435,-56.527,-20.718,117.460,7.147,1.630,233.336,5,4,3.264
1777493324052,-0.242,1.396,-0.817,-223.924,-51.168,-26.420,118.240,7.518,1.636,231.210,5,4,3.268
1777493324066,-0.175,1.378,-0.837,-219.359,-55.435,-27.420,119.061,7.163,1.622,227.910,5,5,3.883
1777493324080,-0.299,1.403,-0.838,-214.160,-54.534,-26.489,119.542,8.026,1.661,222.576,5,5,3.274
1777493324093,-0.335,1.437,-0.844,-207.664,-48.397,-32.198,119.782,8.929,1.699,215.646,5,5,3.259
1777493324106,-0.365,1.400,-0.887,-197.366,-39.061,-39.092,120.476,9.872,1.697,204.957,5,5,3.272
1777493324120,-0.375,1.352,-0.954,-185.595,-26.267,-41.809,121.753,10.656,1.696,192.051,5,5,3.262
1777493324133,-0.323,1.269,-0.979,-171.443,-10.328,-43.977,123.346,10.860,1.635,177.294,5,5,3.939
1777493324147,-0.253,1.190,-1.040,-153.947,4.023,-49.947,125.459,10.383,1.600,161.896,5,5,3.276
1777493324161,-0.196,1.127,-1.079,-136.611,15.908,-52.267,127.696,9.510,1.573,147.131,5,5,3.702
1777493324174,-0.107,1.111,-1.098,-112.565,26.695,-47.267,129.575,7.999,1.566,124.971,5,5,3.268
1777493324188,-0.074,1.043,-1.120,-85.412,38.374,-44.061,131.596,6.583,1.532,103.485,5,5,3.263
1777493324201,-0.073,0.899,-1.101,-64.069,50.679,-46.214,134.072,5.596,1.424,93.856,1,5,3.956
1777493324215,-0.032,0.903,-0.936,-44.328,61.664,-39.611,134.596,4.465,1.301,85.653,1,5,3.266
1777493324229,-0.017,1.010,-0.810,-21.565,66.710,-19.771,133.008,3.457,1.295,72.843,1,5,3.276
1777493324242,0.127,0.966,-0.678,-1.817,52.748,-10.107,130.867,0.864,1.187,53.738,1,5,3.278
1777493324255,0.285,0.924,-0.598,11.878,15.794,-3.336,128.713,-3.291,1.137,20.041,1,5,3.267
1777493324269,0.205,1.022,-0.503,27.679,-21.046,12.412,125.329,-5.159,1.157,36.921,1,5,3.934
1777493324283,0.119,1.044,-0.480,48.756,-51.420,17.534,122.463,-5.361,1.155,72.997,1,5,3.266
1777493324296,0.245,1.277,-0.461,82.786,-97.550,57.206,119.051,-6.675,1.380,140.150,1,5,3.284
1777493324309,-0.180,1.473,0.060,122.458,-65.878,70.282,110.572,-2.994,1.485,155.806,1,5,3.264
1777493324323,-1.026,2.859,1.796,130.313,-105.366,68.817,96.332,2.382,3.529,181.161,1,5,3.287
1777493324336,-0.119,1.053,0.833,69.282,-29.214,51.099,84.267,3.102,1.348,90.910,1,5,3.931
1777493324350,0.171,0.917,-0.954,115.809,2.260,32.641,98.278,0.274,1.335,120.342,1,5,3.273
1777493324364,-0.117,0.825,-0.915,107.771,31.885,0.649,108.999,1.665,1.237,112.391,1,5,3.442
1777493324377,-0.160,1.055,-0.020,97.115,49.504,-13.733,104.164,3.550,1.067,109.866,1,5,3.252
1777493324391,-0.281,0.996,-0.024,83.290,85.595,-11.977,100.717,6.849,1.035,120.030,1,5,3.276
1777493324404,-0.003,0.995,-0.325,81.992,81.244,-13.504,102.704,5.039,1.047,116.214,1,5,3.919
1777493324418,-0.057,0.959,-0.247,78.489,44.840,-16.405,103.179,4.573,0.992,91.870,1,5,3.289
1777493324431,-0.451,0.867,-0.296,57.840,39.504,12.893,104.711,10.421,1.022,71.219,1,5,3.263
1777493324445,-0.348,0.811,-0.472,47.893,23.443,34.282,108.905,13.103,1.001,63.392,1,5,3.261
1777493324458,-0.244,0.941,-0.302,40.069,19.092,40.176,108.597,13.304,1.018,59.867,1,5,3.266
1777493324471,-0.111,1.024,-0.241,40.282,27.061,35.489,107.146,11.331,1.058,60.120,1,1,3.934
1777493324485,-0.053,0.977,-0.311,36.580,34.870,31.733,107.287,9.069,1.027,59.674,1,1,3.281
1777493324499,-0.100,0.980,-0.233,32.534,37.786,26.794,106.234,8.151,1.013,56.606,1,1,3.262
1777493324512,-0.114,0.984,-0.282,35.038,42.298,26.344,106.165,7.670,1.030,60.916,1,1,3.287
1777493324526,-0.056,0.928,-0.353,28.855,39.374,24.267,107.418,6.476,0.994,54.514,1,1,3.264
1777493324539,0.038,0.969,-0.333,23.664,27.748,12.809,107.835,4.148,1.025,38.653,1,1,3.945
1777493324553,0.040,0.909,-0.416,17.695,14.618,0.214,109.652,2.415,1.000,22.953,1,1,3.268
1777493324567,-0.020,0.969,-0.341,20.374,10.183,-5.588,109.578,2.061,1.027,23.453,1,1,3.571
1777493324580,-0.012,0.953,-0.369,18.176,5.389,-12.038,110.010,1.685,1.022,22.457,1,1,3.262
1777493324593,-0.072,0.945,-0.372,15.847,2.321,-15.626,110.404,2.322,1.018,22.376,1,1,3.251
1777493324607,-0.149,0.990,-0.298,4.511,6.046,-17.756,109.411,3.913,1.045,19.292,1,1,3.962
1777493324621,-0.109,0.969,-0.342,7.786,10.748,-17.076,109.410,4.497,1.034,21.627,1,1,3.263
1777493324634,-0.160,0.960,-0.349,13.427,10.908,-14.305,109.562,5.682,1.034,22.448,1,1,3.280
1777493324647,-0.099,0.960,-0.348,17.298,9.695,-12.931,109.661,5.648,1.026,23.673,1,1,3.264
1777493324661,-0.090,0.969,-0.338,19.176,6.626,-14.611,109.543,5.474,1.030,25.002,1,1,3.260
1777493324674,-0.088,0.967,-0.350,21.267,6.641,-15.840,109.639,5.315,1.032,27.337,1,1,3.923
1777493324688,-0.127,0.955,-0.367,20.817,4.756,-17.168,110.006,5.790,1.031,27.399,1,1,3.259
1777493324701,-0.120,0.965,-0.359,18.183,2.832,-17.313,110.118,6.026,1.037,25.266,1,1,3.268
1777493324715,-0.166,0.976,-0.346,17.496,4.374,-15.328,109.957,6.859,1.049,23.669,1,1,3.255
1777493324728,-0.162,0.939,-0.386,16.962,4.595,-11.878,110.606,7.448,1.029,21.211,1,1,3.268
1777493324741,-0.153,0.943,-0.385,15.504,3.504,-8.527,111.032,7.738,1.030,18.037,1,1,3.909
1777493324755,-0.158,0.968,-0.385,14.725,2.924,-6.916,111.211,7.973,1.054,16.529,1,1,3.263
1777493324769,-0.162,0.978,-0.368,16.122,2.702,-5.847,111.050,8.199,1.057,17.361,1,1,3.503
1777493324782,-0.164,0.965,-0.374,17.908,2.336,-4.221,111.079,8.421,1.048,18.547,1,1,3.252
1777493324796,-0.166,0.973,-0.382,19.786,3.344,-3.061,111.178,8.576,1.059,20.299,1,1,3.281
1777493324809,-0.140,0.966,-0.393,20.489,5.015,-3.229,111.430,8.319,1.052,21.339,1,1,3.920
1777493324823,-0.146,0.967,-0.383,21.435,4.397,-2.687,111.483,8.231,1.050,22.046,1,1,3.286
1777493324837,-0.149,0.932,-0.414,21.824,5.863,-1.359,112.153,8.255,1.031,22.639,1,1,3.261
1777493324850,-0.155,0.923,-0.435,19.954,4.534,-0.053,112.989,8.363,1.032,20.463,1,1,3.273
1777493324863,-0.127,0.927,-0.429,17.878,4.580,0.863,113.485,8.015,1.029,18.475,1,1,3.270
1777493324877,-0.109,0.924,-0.427,15.328,3.084,0.130,113.834,7.499,1.024,15.636,4,1,3.933
1777493324891,-0.141,0.920,-0.431,13.305,2.168,0.031,114.176,7.609,1.026,13.481,4,1,3.268
1777493324904,-0.121,0.904,-0.448,10.832,0.962,0.160,114.769,7.406,1.016,10.876,4,1,3.260
1777493324917,-0.125,0.917,-0.439,8.542,-0.153,-0.290,114.992,7.305,1.025,8.548,4,1,3.273
1777493324931,-0.126,0.923,-0.437,6.855,-1.015,-0.420,115.079,7.232,1.029,6.942,4,1,3.259
1777493324944,-0.132,0.936,-0.431,6.214,-1.076,-0.794,114.987,7.251,1.039,6.356,1,1,3.949
1777493324958,-0.137,0.929,-0.437,6.046,-2.336,-0.992,115.038,7.346,1.035,6.557,1,1,3.266
1777493324971,-0.117,0.919,-0.434,6.214,-2.954,-1.496,115.101,7.138,1.023,7.041,1,1,3.298
1777493324985,-0.112,0.951,-0.407,7.611,-3.130,-1.870,114.581,6.876,1.041,8.439,1,1,3.272
1777493324998,-0.127,0.941,-0.448,8.427,-3.405,-2.374,114.814,6.903,1.049,9.394,1,1,3.252
1777493325012,-0.144,0.925,-0.455,9.015,-6.031,-3.160,115.184,7.181,1.040,11.297,1,1,3.928
1777493325026,-0.157,0.952,-0.431,8.863,-7.244,-3.634,114.965,7.557,1.057,12.009,1,1,3.253
1777493325039,-0.143,0.933,-0.453,8.336,-5.389,-3.786,115.216,7.641,1.047,10.624,1,1,3.283
1777493325052,-0.154,0.936,-0.451,8.145,-6.641,-3.542,115.356,7.855,1.050,11.090,1,1,3.260
1777493325066,-0.161,0.937,-0.443,8.214,-6.626,-2.817,115.348,8.113,1.049,10.923,1,1,3.272
1777493325079,-0.190,0.937,-0.438,8.924,-4.214,-1.191,115.265,8.733,1.052,9.940,1,1,3.924
1777493325093,-0.132,0.934,-0.449,9.916,-3.557,-0.733,115.382,8.328,1.045,10.560,1,1,3.267
1777493325107,-0.151,0.945,-0.459,11.481,-4.107,-1.107,115.518,8.289,1.062,12.243,1,1,3.263
1777493325120,-0.179,0.962,-0.442,13.840,-3.000,-0.008,115.291,8.650,1.073,14.161,1,1,3.270
1777493325133,-0.181,0.960,-0.439,16.588,-1.069,1.252,115.096,8.943,1.071,16.669,1,1,3.275
1777493325147,-0.179,0.949,-0.454,18.649,1.244,2.771,115.221,9.131,1.068,18.895,4,1,3.929
1777493325161,-0.145,0.920,-0.472,19.244,0.992,2.519,115.743,8.814,1.044,19.434,4,1,3.277
1777493325174,-0.156,0.918,-0.466,18.504,0.649,2.908,116.060,8.763,1.042,18.742,4,1,3.286
1777493325187,-0.156,0.920,-0.478,17.550,0.405,2.985,116.433,8.702,1.048,17.806,4,1,3.277
1777493325201,-0.158,0.912,-0.481,16.481,0.931,3.130,116.802,8.701,1.043,16.801,4,1,3.262
1777493325214,-0.137,0.918,-0.490,15.489,0.824,3.061,117.155,8.382,1.050,15.810,4,1,3.930
1777493325228,-0.143,0.927,-0.496,14.771,0.008,2.786,117.425,8.203,1.062,15.031,4,1,3.280
1777493325242,-0.172,0.934,-0.502,14.198,-0.366,2.893,117.647,8.470,1.074,14.495,4,1,3.263
1777493325255,-0.180,0.934,-0.490,14.244,0.008,3.061,117.659,8.795,1.070,14.569,4,1,3.297
1777493325268,-0.167,0.925,-0.484,14.618,0.534,2.809,117.647,8.882,1.057,14.895,4,1,3.271
1777493325282,-0.180,0.924,-0.501,15.115,2.282,2.053,117.872,9.113,1.067,15.423,4,1,3.944
1777493325296,-0.108,0.914,-0.502,15.137,1.527,1.252,118.119,8.244,1.048,15.266,4,1,3.264
1777493325309,-0.130,0.895,-0.502,14.511,0.420,0.855,118.433,7.963,1.034,14.543,4,1,3.262
1777493325322,-0.140,0.889,-0.531,13.603,0.092,0.847,119.085,7.893,1.045,13.630,4,1,3.260
1777493325336,-0.269,1.030,-0.528,9.855,-9.504,-15.206,118.563,9.297,1.188,20.461,4,1,3.265
1777493325349,-0.128,0.996,-0.544,12.069,-1.420,3.504,118.587,8.527,1.142,12.647,4,4,3.963
1777493325363,-0.175,0.961,-0.517,12.656,1.824,4.992,118.503,8.681,1.105,13.727,4,4,3.265
1777493325377,-0.153,0.955,-0.510,14.802,0.046,3.679,118.389,8.507,1.093,15.252,4,4,3.299
1777493325390,-0.167,0.957,-0.530,17.359,0.328,3.099,118.555,8.547,1.106,17.636,4,4,3.264
1777493325403,-0.088,0.990,-0.538,19.679,-2.916,3.458,118.541,7.450,1.130,20.193,4,4,3.261
1777493325417,-0.093,0.984,-0.546,22.122,-3.458,5.420,118.674,6.711,1.129,23.037,4,4,3.921
1777493325431,-0.086,1.840,-0.759,27.176,-3.855,-15.771,116.983,5.566,1.992,31.656,4,4,3.265
1777493325444,-0.121,1.094,-0.576,29.137,-3.893,16.252,117.200,5.574,1.242,33.590,4,4,3.280
1777493325458,-0.069,1.021,-0.544,27.611,-11.947,17.679,117.426,4.988,1.159,34.895,4,4,3.262
1777493325471,-0.206,0.982,-0.576,29.672,-12.107,17.473,118.226,6.416,1.157,36.501,4,4,3.293
1777493325484,-0.098,0.986,-0.557,32.435,-15.954,16.107,118.562,6.015,1.136,39.573,4,4,3.931
1777493325498,-0.137,1.000,-0.565,35.336,-16.824,17.389,118.813,6.227,1.157,42.826,4,4,3.272
1777493325512,-0.102,1.013,-0.566,37.649,-18.244,17.252,118.909,5.899,1.165,45.254,4,4,3.262
1777493325525,-0.155,1.009,-0.579,40.267,-19.275,17.733,119.167,6.357,1.173,48.036,4,4,3.264
1777493325538,-0.188,0.998,-0.588,41.672,-17.206,17.206,119.528,7.128,1.173,48.256,4,4,3.278
1777493325552,-0.157,0.957,-0.588,42.718,-13.969,15.588,120.081,7.352,1.134,47.570,4,4,3.922
1777493325566,-0.096,0.934,-0.599,43.573,-5.656,14.519,120.788,6.705,1.114,46.275,4,4,3.290
1777493325579,-0.135,0.935,-0.577,45.282,-2.298,13.244,121.033,6.792,1.107,47.235,4,4,3.272
1777493325593,-0.109,0.933,-0.575,47.305,-9.550,14.023,121.207,6.497,1.101,50.256,4,4,3.282
1777493325606,-0.083,0.894,-0.592,49.145,-10.679,15.252,121.835,5.938,1.075,52.554,4,4,3.264
1777493325619,-0.110,0.878,-0.615,50.924,-10.763,16.115,122.693,5.915,1.078,54.486,4,4,3.926
1777493325633,-0.130,0.883,-0.626,54.542,-10.244,14.305,123.411,6.165,1.090,57.310,4,4,3.272
1777493325647,-0.156,0.885,-0.617,57.366,-8.573,13.450,123.806,6.722,1.090,59.542,4,4,3.260
1777493325660,-0.123,0.912,-0.636,59.557,-4.412,13.817,124.097,6.613,1.118,61.298,4,4,3.279
1777493325673,-0.143,0.914,-0.648,60.939,-4.305,12.763,124.436,6.785,1.130,62.410,4,4,3.253
1777493325687,-0.145,0.897,-0.663,62.351,-3.573,10.733,124.977,6.946,1.125,63.369,4,4,3.962
1777493325701,-0.132,0.910,-0.668,64.595,-2.695,11.748,125.330,6.872,1.137,65.710,4,4,3.255
1777493325714,-0.180,0.953,-0.675,66.031,0.718,14.924,125.329,7.388,1.182,67.700,4,4,3.281
1777493325728,-0.137,0.956,-0.661,71.130,4.122,11.183,125.151,7.205,1.170,72.121,4,4,3.268
1777493325741,-0.141,1.006,-0.666,76.076,10.145,11.336,124.707,7.057,1.215,77.582,4,4,3.264
1777493325754,-0.133,1.010,-0.669,82.160,11.557,7.160,124.387,6.838,1.218,83.278,4,4,3.936
1777493325768,-0.121,1.050,-0.655,88.908,12.847,3.695,123.728,6.503,1.243,89.908,4,4,3.262
1777493325782,-0.127,1.097,-0.657,96.908,15.122,2.359,122.976,6.281,1.285,98.110,4,4,3.292
1777493325795,-0.163,1.121,-0.639,105.901,18.809,-0.611,122.089,6.533,1.301,107.560,4,4,3.261
1777493325808,-0.168,1.187,-0.663,117.924,25.626,-7.908,121.308,6.676,1.370,120.935,4,4,3.274
1777493325822,-0.172,1.153,-0.845,131.611,37.176,-16.542,122.642,6.722,1.440,137.757,4,4,3.900
1777493325836,-0.128,1.116,-1.255,159.664,38.023,-35.313,126.888,6.087,1.684,167.885,4,4,3.334
1777493325849,0.039,1.244,-1.596,193.321,-12.038,-38.282,130.990,4.146,2.024,197.442,4,4,3.278
1777493325863,-0.505,0.611,-0.890,163.962,-2.450,-14.076,134.917,9.795,1.192,164.583,4,4,3.289
1777493325876,-0.735,0.833,-0.500,146.183,55.031,9.550,131.152,17.179,1.218,156.490,4,4,3.268
1777493325889,-0.337,0.496,-0.522,119.191,67.947,1.443,132.589,19.319,0.795,137.205,4,4,3.967
1777493325903,-0.170,0.556,-0.552,94.656,53.084,-7.145,133.182,17.417,0.801,108.760,4,4,3.271
1777493325917,-0.417,0.522,-0.456,70.947,66.588,-13.710,132.635,21.097,0.809,98.261,4,4,3.292
1777493325930,0.005,0.644,-0.487,52.969,71.985,-3.809,131.138,15.299,0.807,89.454,4,4,3.283
1777493325944,-0.071,0.606,-0.406,41.832,59.847,0.656,129.165,12.673,0.734,73.021,4,4,3.290
1777493325957,0.008,0.591,-0.394,28.511,58.000,-8.176,127.684,9.079,0.710,65.144,4,4,3.900
1777493325971,0.060,0.506,-0.386,18.389,43.679,-1.802,127.602,5.164,0.639,47.427,4,4,3.270
1777493325984,0.056,0.391,-0.407,4.053,32.176,0.298,129.904,2.235,0.567,32.431,4,4,3.258
1777493325998,0.055,0.310,-0.404,-13.176,16.420,-1.397,133.296,-0.032,0.512,21.099,4,4,3.286
1777493326011,-0.012,0.297,-0.387,-29.527,5.901,-1.985,135.779,0.364,0.488,30.176,4,4,3.248
1777493326024,-0.024,0.327,-0.386,-40.809,2.206,-0.893,136.853,1.012,0.507,40.879,4,4,3.892
1777493326038,0.021,0.338,-0.372,-51.969,-4.420,-0.634,137.081,0.085,0.503,52.161,4,4,3.263
1777493326052,0.026,0.304,-0.358,-65.771,-11.527,0.916,137.767,-0.806,0.470,66.780,4,4,3.269
1777493326065,0.038,0.331,-0.323,-80.412,-20.740,4.489,136.828,-1.854,0.463,83.165,4,4,3.268
1777493326079,0.115,0.365,-0.366,-93.557,-32.275,6.702,136.370,-4.734,0.530,99.194,4,4,3.266
1777493326092,0.114,0.433,-0.407,-103.916,-46.664,5.405,135.528,-6.378,0.605,114.041,5,4,3.975
1777493326106,0.051,0.501,-0.448,-113.901,-54.534,5.405,134.514,-5.816,0.674,126.399,5,4,3.256
1777493326119,-0.049,0.532,-0.446,-124.817,-51.557,5.298,133.289,-3.147,0.696,135.150,5,4,3.277
1777493326133,-0.058,0.590,-0.452,-135.557,-47.511,5.840,131.714,-1.094,0.745,143.761,5,4,3.263
1777493326146,-0.076,0.628,-0.431,-146.870,-41.802,5.595,129.752,0.750,0.765,152.806,5,4,3.272
1777493326159,-0.084,0.646,-0.396,-160.939,-39.786,1.916,127.539,2.257,0.762,165.795,5,4,3.926
1777493326173,-0.091,0.718,-0.372,-174.626,-35.802,4.519,124.790,3.383,0.814,178.315,5,4,3.266
1777493326187,-0.085,0.806,-0.414,-183.069,-40.626,10.076,122.728,3.925,0.910,187.793,5,4,3.261
1777493326200,-0.116,0.880,-0.417,-190.260,-42.863,4.580,120.740,4.698,0.981,195.082,5,4,3.268
1777493326214,-0.161,0.931,-0.443,-197.206,-45.389,-2.855,119.307,5.830,1.043,202.382,5,4,3.287
1777493326227,-0.147,1.016,-0.455,-205.198,-50.137,-7.344,117.904,6.284,1.122,211.362,5,4,3.924
1777493326241,-0.189,1.162,-0.492,-210.466,-51.313,-7.145,116.568,6.886,1.276,216.748,5,4,3.277
1777493326254,-0.221,1.247,-0.558,-213.176,-48.336,-9.084,115.907,7.508,1.384,218.775,5,4,3.261
1777493326268,-0.227,1.306,-0.641,-215.191,-45.847,-9.962,115.972,7.878,1.473,220.246,5,4,3.257
1777493326281,-0.226,1.327,-0.694,-218.023,-45.939,-10.939,116.415,8.072,1.514,223.079,5,4,3.261
1777493326294,-0.266,1.374,-0.723,-217.824,-42.519,-11.237,116.779,8.519,1.575,222.220,5,4,3.892
1777493326308,-0.286,1.402,-0.725,-215.397,-39.519,-15.298,116.931,8.989,1.604,219.526,5,4,3.289
1777493326322,-0.258,1.449,-0.750,-209.771,-37.427,-19.153,117.052,8.983,1.652,213.943,5,4,3.250
1777493326335,-0.249,1.445,-0.773,-203.275,-33.710,-21.351,117.350,8.887,1.657,207.154,5,4,3.271
1777493326348,-0.209,1.449,-0.828,-194.130,-29.084,-21.847,117.998,8.414,1.682,197.508,5,4,3.262
1777493326362,-0.172,1.377,-0.894,-183.366,-28.718,-23.618,119.350,7.753,1.651,187.098,5,5,3.933
1777493326376,-0.158,1.338,-0.948,-170.740,-27.901,-22.794,120.960,7.145,1.647,174.500,5,5,3.263
1777493326389,-0.163,1.268,-1.005,-155.916,-26.351,-22.176,122.968,6.770,1.626,159.674,5,5,3.264
1777493326403,-0.216,1.233,-1.043,-138.947,-19.183,-24.344,124.927,6.995,1.630,142.361,5,5,3.269
1777493326416,-0.192,1.176,-1.078,-117.237,-6.542,-24.611,126.976,6.955,1.607,119.970,5,5,3.261
1777493326429,-0.109,0.979,-1.111,-97.527,2.038,-30.809,130.121,6.210,1.485,102.298,5,5,3.953
1777493326443,-0.182,0.942,-1.083,-85.099,14.672,-33.183,132.511,6.486,1.447,92.511,5,5,3.261
1777493326457,-0.115,0.990,-1.003,-66.466,31.771,-28.473,133.289,5.992,1.414,78.980,5,5,3.283
1777493326470,0.009,0.976,-0.959,-45.557,40.351,-22.908,133.621,4.268,1.369,65.027,5,5,3.263
1777493326484,0.068,0.891,-0.937,-28.939,31.779,-16.679,134.376,2.297,1.295,46.104,5,5,3.267
1777493326497,0.065,0.948,-0.823,-10.397,22.229,-3.817,133.458,0.871,1.257,24.835,1,5,3.957
1777493326511,0.119,0.974,-0.726,12.206,4.344,4.275,131.633,-0.875,1.220,13.643,1,5,3.256
1777493326524,0.110,0.920,-0.658,27.588,-21.794,3.176,129.996,-2.138,1.136,35.301,1,5,3.280
1777493326538,0.062,0.964,-0.583,42.282,-42.863,7.527,127.604,-2.411,1.128,60.677,1,5,3.260
1777493326551,0.012,0.972,-0.523,56.305,-60.290,10.061,125.093,-1.935,1.104,83.105,1,5,3.292
1777493326564,-0.113,0.959,-0.484,66.725,-68.924,11.511,122.846,0.203,1.081,96.619,1,5,3.927
1777493326579,0.087,0.683,-0.339,77.626,-80.282,15.466,121.100,-1.618,0.768,112.740,1,5,3.275
1777493326592,-0.219,0.916,0.369,93.420,-33.374,44.748,106.770,2.192,1.012,108.828,1,5,3.269
1777493326605,-1.296,2.971,2.312,111.275,-56.817,58.496,92.002,6.732,3.982,137.957,1,5,3.264
1777493326619,-0.392,1.337,0.836,25.740,-17.244,73.947,82.811,8.684,1.625,80.175,1,5,3.272
1777493326632,0.052,0.680,-1.159,96.649,55.260,40.626,100.853,5.745,1.344,118.512,1,5,3.922
1777493326646,0.011,0.720,-1.117,93.565,64.481,4.237,113.375,4.062,1.329,113.711,1,5,3.282
1777493326660,-0.024,1.130,0.056,84.397,77.160,-17.985,106.299,3.289,1.132,115.758,1,5,3.264
1777493326673,-0.160,1.067,0.015,79.893,87.962,-26.595,101.672,4.702,1.079,121.768,1,5,3.271
1777493326686,-0.055,0.955,-0.307,71.443,78.168,-20.221,103.337,4.282,1.004,107.811,1,5,3.269
1777493326700,-0.182,0.831,-0.381,59.389,52.733,-5.473,106.397,6.162,0.932,79.610,1,5,3.952
1777493326714,-0.340,0.860,-0.454,47.740,24.962,26.038,109.483,9.711,1.030,59.835,1,5,3.274
1777493326727,-0.289,0.875,-0.397,45.382,11.298,34.695,110.809,11.609,1.004,58.231,1,5,3.256
1777493326741,-0.188,1.008,-0.243,42.947,20.237,36.115,108.854,11.252,1.054,59.651,1,5,3.310
1777493326754,0.010,1.021,-0.273,39.687,26.000,23.412,107.812,8.062,1.057,52.907,1,5,3.270
1777493326767,-0.089,0.965,-0.324,34.137,24.763,19.389,108.012,7.228,1.022,46.417,1,1,3.946
1777493326781,-0.135,0.968,-0.317,25.878,28.954,15.305,108.042,7.307,1.028,41.740,1,1,3.268
1777493326795,-0.111,0.964,-0.319,3.069,31.122,13.611,108.116,7.016,1.021,34.107,1,1,3.266
1777493326808,-0.104,1.012,-0.247,10.954,35.985,15.679,106.920,6.657,1.047,40.752,1,1,3.270
1777493326821,-0.047,0.955,-0.331,19.435,35.107,14.763,107.505,5.572,1.012,42.757,1,1,3.255
1777493326835,-0.068,0.964,-0.316,20.931,28.313,8.931,107.678,5.097,1.017,36.325,1,1,3.985
1777493326849,0.004,0.987,-0.332,20.634,21.237,-1.107,107.917,3.662,1.041,29.630,1,1,3.264
1777493326862,-0.009,0.979,-0.329,23.008,18.977,-9.061,108.091,2.804,1.033,31.170,1,1,3.296
1777493326876,-0.001,0.957,-0.377,21.443,13.137,-16.466,109.015,2.069,1.029,30.058,1,1,3.265
1777493326889,-0.103,1.004,-0.325,16.504,14.466,-20.481,108.727,3.016,1.060,30.018,1,1,3.270
1777493326903,-0.113,0.953,-0.342,18.634,10.359,-18.344,108.995,3.915,1.018,28.125,1,1,3.968
1777493326917,-0.068,0.959,-0.344,19.824,8.664,-18.916,109.199,3.887,1.021,28.738,1,1,3.250
1777493326930,-0.081,0.940,-0.389,17.206,4.191,-21.305,110.093,4.061,1.020,27.704,1,1,3.251
1777493326943,-0.106,0.974,-0.357,16.061,2.160,-21.718,110.108,4.543,1.043,27.098,1,1,3.259
1777493326957,-0.134,0.946,-0.379,15.008,1.130,-22.038,110.578,5.336,1.028,26.687,1,1,3.281
1777493326970,-0.125,0.944,-0.372,14.901,0.710,-21.992,110.827,5.796,1.022,26.574,1,1,3.877
1777493326984,-0.082,0.973,-0.385,15.397,-0.176,-25.550,111.040,5.434,1.050,29.831,1,1,3.274
1777493326997,-0.157,0.968,-0.350,16.611,-4.534,-24.427,110.723,6.317,1.041,29.886,1,1,3.248
1777493327011,-0.178,0.947,-0.385,18.092,-5.847,-19.878,111.107,7.274,1.038,27.507,1,1,3.269
1777493327024,-0.190,0.966,-0.377,18.740,-7.229,-15.023,111.173,8.110,1.054,25.083,1,1,3.250
1777493327037,-0.217,0.970,-0.357,21.374,-2.565,-10.534,110.911,9.123,1.056,23.967,1,1,3.891
1777493327051,-0.181,0.947,-0.390,22.198,-0.420,-7.420,111.313,9.366,1.040,23.409,1,1,3.254
1777493327065,-0.168,0.951,-0.391,22.527,0.656,-5.847,111.587,9.349,1.042,23.283,1,1,3.264
1777493327078,-0.152,0.955,-0.415,22.374,1.397,-4.710,112.095,9.062,1.052,22.907,1,1,3.252
1777493327091,-0.185,0.955,-0.395,22.053,3.695,-2.427,112.200,9.360,1.050,22.492,1,1,3.264
1777493327105,-0.161,0.930,-0.414,21.305,3.939,-0.260,112.692,9.265,1.031,21.668,1,1,3.906
1777493327119,-0.163,0.933,-0.415,20.206,2.435,1.427,113.038,9.209,1.034,20.402,1,1,3.259
1777493327132,-0.188,0.953,-0.395,19.870,3.458,4.115,112.896,9.518,1.049,20.584,1,1,3.249
1777493327146,-0.165,0.937,-0.423,19.252,3.878,7.420,113.275,9.412,1.041,20.994,1,1,3.259
1777493327159,-0.172,0.916,-0.428,18.115,4.244,9.260,113.749,9.483,1.026,20.782,1,1,3.247
1777493327172,-0.146,0.931,-0.437,16.206,3.870,8.992,114.119,9.104,1.039,18.934,1,1,3.893
1777493327186,-0.110,0.932,-0.450,14.992,2.771,6.542,114.564,8.286,1.040,16.591,1,1,3.261
1777493327200,-0.136,0.948,-0.449,14.481,1.008,3.359,114.777,8.047,1.057,14.899,1,1,3.259
1777493327213,-0.118,0.943,-0.439,14.641,0.046,0.977,114.825,7.616,1.047,14.674,1,1,3.259
1777493327226,-0.130,0.960,-0.427,14.947,0.305,-0.351,114.595,7.460,1.058,14.954,1,1,3.249
1777493327240,-0.156,0.952,-0.454,13.969,0.550,0.336,114.832,7.714,1.066,13.984,1,1,3.887
1777493327254,-0.133,0.943,-0.443,13.855,-0.023,-0.183,114.919,7.590,1.050,13.856,1,1,3.248
1777493327267,-0.152,0.932,-0.465,13.618,1.618,-0.298,115.354,7.777,1.052,13.717,1,1,3.265
1777493327280,-0.164,0.896,-0.456,12.061,0.809,-0.595,115.792,8.180,1.019,12.103,1,1,3.259
1777493327294,-0.134,0.908,-0.468,10.763,0.046,0.389,116.196,7.986,1.030,10.770,1,1,3.273
1777493327307,-0.148,0.906,-0.465,9.695,-0.389,1.153,116.455,8.058,1.029,9.771,1,1,3.887
1777493327322,-0.150,0.907,-0.462,9.405,-0.321,1.359,116.598,8.145,1.028,9.508,1,1,3.573
1777493327335,-0.133,0.919,-0.470,9.710,-0.145,2.137,116.730,7.929,1.041,9.943,1,1,3.256
1777493327348,-0.158,0.955,-0.469,10.374,0.458,2.519,116.580,8.071,1.076,10.685,1,1,3.248
1777493327362,-0.151,0.947,-0.464,11.580,0.252,2.328,116.459,8.095,1.065,11.815,1,1,3.268
1777493327375,-0.168,0.944,-0.478,12.382,0.427,1.939,116.564,8.340,1.072,12.540,1,1,3.917
1777493327389,-0.161,0.940,-0.472,12.672,1.496,1.069,116.589,8.433,1.064,12.804,1,1,3.274
1777493327403,-0.149,0.955,-0.483,12.634,1.565,0.702,116.658,8.291,1.081,12.749,1,1,3.259
1777493327418,-0.135,0.940,-0.476,14.267,0.695,-0.504,116.710,8.026,1.063,14.293,1,1,3.282
1777493327432,-0.152,0.962,-0.480,16.084,0.473,-0.420,116.661,8.025,1.086,16.096,1,1,3.273
1777493327445,-0.147,0.938,-0.499,17.573,0.840,-0.038,117.025,7.992,1.073,17.593,1,1,3.966
1777493327459,-0.125,0.919,-0.493,18.206,0.359,0.282,117.353,7.683,1.050,18.212,1,1,3.271
1777493327472,-0.132,0.927,-0.499,18.221,-0.405,1.985,117.603,7.536,1.061,18.334,1,1,3.262
1777493327486,-0.147,0.905,-0.508,17.618,-0.389,3.702,118.059,7.675,1.048,18.007,1,1,3.270
1777493327499,-0.150,0.913,-0.511,17.947,0.878,4.710,118.375,7.801,1.057,18.575,1,1,3.255
1777493327515,-0.122,0.903,-0.514,18.168,-0.710,4.573,118.715,7.496,1.046,18.748,1,1,6.715
1777493327529,-0.119,0.935,-0.516,18.824,-0.137,3.939,118.766,7.188,1.074,19.233,1,1,3.257
1777493327543,-0.142,0.911,-0.517,18.580,-1.779,3.954,118.980,7.329,1.057,19.079,1,1,3.278
1777493327557,-0.104,0.905,-0.547,15.344,4.405,4.145,119.565,6.871,1.062,16.493,1,1,3.271
1777493327570,-0.073,1.217,-0.550,19.595,-0.397,14.756,118.153,5.857,1.337,24.533,1,1,3.273
1777493327584,-0.171,0.938,-0.522,19.733,-3.672,11.725,118.403,6.722,1.087,23.245,4,1,3.939
1777493327598,-0.143,0.914,-0.531,21.672,-5.679,10.122,118.879,6.991,1.067,24.584,4,1,3.267
1777493327611,-0.137,0.922,-0.545,23.511,-5.573,9.947,119.345,7.068,1.079,26.130,4,1,3.278
1777493327624,-0.113,0.917,-0.547,24.344,-6.168,10.947,119.744,6.784,1.074,27.395,4,1,3.267
1777493327638,-0.133,0.907,-0.552,24.985,-8.000,10.573,120.171,6.880,1.071,28.285,4,1,3.292
1777493327651,-0.140,0.924,-0.540,25.481,-6.740,10.458,120.200,7.041,1.079,28.356,4,1,3.912
1777493327665,-0.134,0.900,-0.566,25.542,-7.962,10.664,120.729,7.083,1.072,28.801,4,1,3.315
1777493327679,-0.117,0.898,-0.573,25.511,-7.962,10.702,121.215,6.868,1.072,28.788,4,1,3.289
1777493327692,-0.108,0.904,-0.576,25.336,-9.168,10.656,121.561,6.573,1.077,28.974,4,1,3.265
1777493327705,-0.086,0.886,-0.567,26.115,-11.107,11.374,121.849,6.055,1.056,30.573,4,1,3.270
1777493327719,-0.128,0.891,-0.579,26.206,-11.252,11.344,122.161,6.271,1.070,30.693,4,1,3.925
1777493327733,-0.150,0.893,-0.591,26.847,-9.901,11.435,122.514,6.733,1.081,30.815,4,1,3.295
1777493327746,-0.140,0.929,-0.582,27.649,-6.290,11.588,122.393,6.876,1.105,30.632,4,1,3.292
1777493327760,-0.131,0.969,-0.609,28.802,-10.336,14.000,122.328,6.780,1.153,33.651,4,1,3.305
1777493327773,-0.287,0.954,-0.603,31.382,-6.901,9.115,122.317,8.800,1.164,33.399,4,1,3.251
1777493327786,-0.084,0.948,-0.612,34.015,-4.344,7.389,122.453,7.572,1.131,35.079,4,1,4.013
1777493327800,-0.096,0.951,-0.616,35.870,-0.832,9.374,122.580,6.841,1.137,37.084,4,1,3.267
1777493327814,-0.073,0.942,-0.622,37.832,-0.298,9.519,122.810,5.989,1.131,39.012,4,1,3.280
1777493327827,-0.063,0.958,-0.619,40.015,-5.542,12.107,122.823,5.228,1.142,42.172,4,1,3.277
1777493327841,-0.117,0.948,-0.642,41.893,-6.244,13.641,123.174,5.398,1.151,44.498,4,1,3.271
1777493327854,-0.123,0.950,-0.636,43.832,-5.588,14.977,123.345,5.596,1.150,46.656,4,4,3.927
1777493327868,-0.174,0.952,-0.647,46.084,-5.061,17.321,123.578,6.402,1.164,49.491,4,4,3.298
1777493327881,-0.168,0.950,-0.645,48.824,-2.336,14.649,123.736,6.917,1.161,51.028,4,4,3.318
1777493327895,-0.123,0.963,-0.648,51.183,2.313,15.626,123.792,6.682,1.168,53.565,4,4,3.271
1777493327908,-0.044,0.918,-0.659,52.733,1.076,16.527,124.296,5.485,1.131,55.272,4,4,3.261
1777493327922,-0.037,0.875,-0.652,53.687,-1.450,16.252,124.942,4.533,1.092,56.112,4,4,4.406
1777493327936,-0.061,0.879,-0.673,54.443,-2.924,16.443,125.615,4.164,1.109,56.947,4,4,3.278
1777493327950,-0.062,0.853,-0.676,55.275,-2.863,15.489,126.362,3.924,1.090,57.475,4,4,3.319
1777493327963,-0.037,0.843,-0.687,56.366,-5.176,15.069,127.128,3.388,1.088,58.575,4,4,3.256
1777493327976,-0.105,0.847,-0.692,58.031,-3.863,13.473,127.702,3.954,1.098,59.699,4,4,3.282
1777493327990,-0.106,0.834,-0.704,60.336,-4.282,11.534,128.375,4.388,1.097,61.578,4,4,3.925
1777493328004,-0.088,0.857,-0.683,62.847,-4.374,12.489,128.430,4.438,1.099,64.225,4,4,3.297
1777493328017,-0.119,0.823,-0.712,61.252,-1.489,13.336,129.089,4.924,1.094,62.705,4,4,3.265
1777493328030,-0.108,0.774,-0.724,59.115,-1.336,10.321,130.168,5.172,1.065,60.024,4,4,3.258
1777493328044,-0.080,0.743,-0.736,56.626,-2.122,7.374,131.397,4.961,1.049,57.143,4,4,3.285
1777493328057,-0.091,0.756,-0.730,55.542,-2.679,5.641,132.101,4.962,1.055,55.892,4,4,3.920
1777493328071,-0.110,0.739,-0.742,55.420,-1.122,2.519,132.912,5.236,1.053,55.488,4,4,3.281
1777493328085,-0.146,0.784,-0.747,57.244,1.031,-0.473,133.099,5.892,1.093,57.256,4,4,3.279
1777493328098,-0.165,0.826,-0.742,60.435,5.137,-2.748,132.785,6.580,1.123,60.715,4,4,3.348
1777493328112,-0.190,0.871,-0.744,64.893,10.679,-4.557,132.171,7.352,1.161,65.924,4,4,3.274
1777493328125,-0.231,0.922,-0.736,73.542,16.794,-9.473,131.208,8.355,1.202,76.028,4,4,4.294
1777493328139,-0.269,0.959,-0.777,84.626,26.198,-20.504,130.619,9.419,1.263,90.930,4,4,3.339
1777493328153,-0.266,0.950,-0.793,96.954,34.931,-31.908,130.412,10.148,1.266,107.882,4,4,3.259
1777493328166,-0.195,0.941,-0.861,112.611,40.099,-35.359,130.964,9.753,1.290,124.657,4,4,3.290
1777493328180,-0.178,0.938,-1.173,132.695,64.160,-37.298,133.770,8.945,1.512,152.038,4,4,3.268
1777493328193,-0.037,0.839,-1.293,163.351,20.344,-36.351,137.348,6.896,1.542,168.579,4,4,3.935
1777493328207,-0.382,0.443,-1.079,148.298,16.931,-18.718,142.843,9.927,1.227,150.430,4,4,3.296
1777493328220,-0.634,0.361,-0.742,119.618,38.527,-17.878,145.874,17.385,1.041,126.935,4,4,3.254
1777493328234,-0.464,0.312,-0.629,88.076,67.771,-15.794,147.955,21.732,0.842,112.249,4,4,3.257
1777493328247,-0.529,0.431,-0.514,44.069,57.336,-35.847,145.810,26.188,0.855,80.712,4,4,3.259
1777493328260,-0.240,0.635,-0.406,5.695,82.710,-42.664,139.545,23.876,0.791,93.239,4,4,3.985
1777493328275,0.025,0.838,-0.324,1.267,81.122,-11.412,131.871,16.988,0.899,81.931,4,4,3.264
1777493328288,0.043,0.774,-0.335,-3.855,72.473,-17.718,126.876,11.602,0.845,74.707,4,4,3.281
1777493328301,0.052,0.570,-0.366,-19.481,58.702,-26.901,125.751,7.281,0.679,67.447,4,4,3.275
1777493328315,0.033,0.570,-0.313,-38.244,36.908,-26.023,123.869,4.536,0.651,59.178,4,4,3.267
1777493328328,-0.056,0.581,-0.212,-50.198,29.969,-17.908,120.127,4.719,0.621,61.145,4,4,4.137
1777493328342,-0.098,0.538,-0.180,-60.252,30.405,-17.122,116.975,6.094,0.576,69.627,4,4,3.265
1777493328356,-0.067,0.462,-0.183,-75.038,32.733,-24.550,115.516,6.525,0.502,85.468,4,4,3.277
1777493328369,0.025,0.425,-0.214,-95.328,25.985,-23.031,115.849,3.938,0.477,101.455,4,4,3.262
1777493328382,0.073,0.503,-0.231,-111.038,17.237,-10.344,115.527,0.852,0.558,112.843,4,4,3.302
1777493328396,0.122,0.581,-0.275,-122.267,3.603,-4.672,115.463,-2.271,0.654,122.409,4,4,3.916
1777493328410,0.136,0.651,-0.304,-130.519,-11.458,-11.916,115.342,-4.554,0.731,131.562,4,4,3.270
1777493328423,0.170,0.695,-0.354,-135.420,-25.855,-18.412,115.785,-6.638,0.798,139.090,4,4,3.256
1777493328437,0.112,0.681,-0.354,-145.435,-38.160,-19.099,116.236,-7.085,0.775,151.566,4,4,3.260
1777493328450,0.054,0.711,-0.354,-158.115,-39.107,-14.511,116.286,-6.230,0.796,163.524,4,4,3.290
1777493328463,0.068,0.799,-0.371,-170.786,-43.267,-8.672,115.919,-5.745,0.884,176.395,5,4,3.967
1777493328477,0.021,0.916,-0.369,-179.115,-44.046,-8.542,114.841,-4.522,0.988,184.648,5,4,3.295
1777493328491,-0.016,0.971,-0.400,-187.092,-44.458,-12.145,114.174,-3.063,1.050,192.684,5,4,3.246
1777493328504,-0.044,0.992,-0.414,-198.206,-47.947,-13.954,113.762,-1.596,1.076,204.400,5,4,3.274
1777493328518,-0.091,1.109,-0.425,-206.198,-50.534,-13.137,113.000,0.013,1.191,212.707,5,4,3.265
1777493328531,-0.125,1.226,-0.475,-208.840,-52.374,-15.053,112.511,1.477,1.320,215.832,5,4,4.133
1777493328545,-0.163,1.311,-0.528,-209.557,-53.634,-17.359,112.350,2.854,1.423,217.007,5,4,3.258
1777493328559,-0.132,1.296,-0.595,-211.832,-59.924,-18.641,112.973,3.507,1.432,220.932,5,4,3.250
1777493328572,-0.260,1.397,-0.623,-212.611,-63.847,-16.832,113.254,5.161,1.552,222.628,5,4,3.270
1777493328585,-0.280,1.436,-0.618,-210.550,-61.748,-22.328,113.263,6.507,1.588,220.550,5,4,3.295
1777493328599,-0.262,1.533,-0.606,-207.359,-63.053,-26.557,112.801,7.193,1.669,218.354,5,4,3.998
1777493328613,-0.158,1.568,-0.656,-202.115,-68.725,-24.985,112.773,6.681,1.707,214.936,5,4,3.279
1777493328626,-0.187,1.582,-0.730,-194.603,-75.351,-19.374,113.310,6.529,1.752,209.579,5,4,3.281
1777493328640,-0.271,1.546,-0.775,-181.275,-76.351,-16.664,114.203,7.175,1.751,197.402,5,4,3.317
1777493328653,-0.367,1.452,-0.852,-169.076,-69.641,-27.107,115.881,8.563,1.723,184.855,5,4,3.255
1777493328666,-0.394,1.375,-0.852,-157.313,-61.679,-34.336,117.477,9.951,1.665,172.426,5,4,3.953
1777493328680,-0.292,1.354,-0.857,-142.603,-45.282,-38.901,118.783,10.047,1.629,154.594,5,4,3.265
1777493328694,-0.181,1.140,-0.911,-136.565,-42.641,-46.321,121.449,9.240,1.470,150.379,5,4,3.303
1777493328707,-0.222,1.159,-0.888,-124.962,-29.565,-38.359,123.076,9.076,1.477,134.018,5,4,3.261
1777493328721,-0.126,1.158,-0.896,-105.008,-19.534,-33.046,124.333,7.950,1.469,111.804,5,4,3.283
1777493328734,-0.194,1.075,-0.886,-85.031,-2.908,-30.443,125.728,7.942,1.407,90.363,5,5,4.182
1777493328748,-0.118,0.945,-0.866,-68.145,9.031,-31.947,127.557,7.220,1.287,75.802,5,5,3.256
1777493328762,-0.065,0.947,-0.743,-53.000,15.229,-27.115,127.712,6.100,1.206,61.450,5,5,3.259
1777493328775,0.030,0.947,-0.622,-40.374,14.084,-22.435,126.513,4.049,1.133,48.288,5,5,3.264
1777493328788,0.087,0.921,-0.530,-30.527,5.565,-17.023,124.734,1.695,1.066,35.392,5,5,3.275
1777493328802,0.085,0.911,-0.476,-23.176,-6.229,-13.359,122.805,-0.035,1.032,27.466,1,5,3.922
1777493328816,0.060,0.916,-0.414,-15.214,-17.656,-10.206,120.511,-0.949,1.007,25.444,1,5,3.286
1777493328829,0.012,0.943,-0.323,-8.504,-23.099,-5.344,117.381,-0.886,0.997,25.188,1,5,3.260
1777493328842,-0.012,0.927,-0.277,-2.710,-28.656,-3.901,114.475,-0.448,0.968,29.047,1,5,3.270
1777493328856,-0.025,0.893,-0.239,-0.115,-30.053,-3.550,111.912,0.094,0.925,30.263,1,5,3.264
1777493328869,-0.005,0.899,-0.244,4.260,-35.672,0.290,110.093,0.154,0.931,35.926,1,5,4.089
1777493328883,-0.066,0.901,-0.258,7.015,-37.053,3.206,108.975,1.196,0.939,37.848,1,5,3.277
1777493328897,-0.058,0.869,-0.285,10.573,-34.435,2.756,108.751,1.858,0.917,36.127,1,5,3.256
1777493328910,-0.099,0.912,-0.286,14.389,-30.405,3.481,108.389,2.959,0.961,33.817,1,5,3.310
1777493328924,-0.120,0.891,-0.320,16.626,-22.237,4.924,108.754,4.114,0.954,28.198,1,5,3.250
1777493328937,-0.152,0.898,-0.313,18.863,-11.748,5.015,108.885,5.449,0.963,22.781,1,5,4.103
1777493328951,-0.143,0.913,-0.278,20.160,-4.489,5.061,108.358,6.273,0.965,21.265,1,5,3.274
1777493328965,-0.134,0.920,-0.274,21.687,0.023,8.466,107.872,6.729,0.970,23.281,1,5,3.295
1777493328978,-0.160,0.910,-0.298,23.397,4.427,11.252,107.949,7.469,0.971,26.337,1,5,3.263
1777493328991,-0.227,0.961,-0.300,28.298,11.160,12.702,107.789,8.889,1.032,32.965,1,5,3.248
1777493329005,-0.216,0.947,-0.325,34.092,17.931,10.634,108.099,9.777,1.024,39.961,1,5,3.990
1777493329019,-0.153,0.912,-0.395,37.748,19.580,10.229,109.533,9.505,1.005,43.737,1,5,3.265
1777493329032,-0.136,0.982,-0.404,43.603,16.076,13.786,110.292,8.913,1.070,48.474,1,5,3.292
1777493329046,-0.074,0.792,-0.304,59.489,11.489,8.458,110.479,7.855,0.852,61.175,1,5,3.272
1777493329059,0.252,-0.050,0.395,83.137,10.595,-2.947,78.672,-2.992,0.471,83.862,1,5,3.277
1777493329072,-1.260,2.626,2.080,120.710,-18.885,41.595,71.364,3.383,3.580,129.065,1,1,3.930
1777493329086,-0.657,1.593,1.239,23.374,1.191,88.084,66.165,7.338,2.122,91.140,1,1,3.254
1777493329100,0.412,0.723,-0.933,96.595,-13.718,29.053,86.720,0.154,1.250,101.799,1,1,3.273
1777493329113,0.030,0.846,-1.094,115.092,-13.176,4.962,101.735,-0.227,1.383,115.950,1,1,3.257
1777493329127,-0.155,0.995,-0.056,102.183,-20.855,-4.580,99.441,2.227,1.009,104.390,1,1,3.307
1777493329140,-0.308,0.994,0.026,86.603,17.748,-3.084,96.480,6.273,1.041,88.457,5,1,4.324
1777493329154,-0.029,0.925,-0.414,77.496,23.695,-8.718,101.244,5.022,1.014,81.505,5,1,3.276
1777493329168,-0.082,0.913,-0.294,66.603,18.511,-16.153,103.023,4.986,0.963,70.990,5,1,3.267
1777493329181,-0.262,0.885,-0.294,51.725,17.702,-5.527,104.476,7.885,0.969,54.949,5,1,3.294
1777493329195,-0.236,0.873,-0.400,39.794,8.214,3.267,107.216,9.487,0.989,40.764,5,1,3.265
1777493329208,-0.224,0.951,-0.279,32.466,4.252,9.351,106.983,10.359,1.016,34.052,5,1,3.882
1777493329222,-0.219,0.977,-0.212,35.595,10.427,14.573,105.709,10.903,1.023,39.851,5,1,3.289
1777493329235,-0.199,0.953,-0.262,37.977,15.496,17.053,105.623,11.031,1.009,44.421,5,1,3.255
1777493329249,-0.184,0.974,-0.249,39.863,22.870,19.603,105.277,10.857,1.022,49.964,5,1,3.272
1777493329262,-0.134,0.996,-0.270,41.389,26.885,19.511,105.248,9.927,1.041,53.072,5,1,3.258
1777493329275,-0.182,0.942,-0.290,40.977,31.977,22.435,105.749,10.070,1.002,56.613,4,1,3.976
1777493329290,-0.063,0.942,-0.307,40.824,28.977,20.794,106.368,8.336,0.993,54.210,4,1,3.256
1777493329303,-0.039,0.960,-0.341,32.557,23.626,14.542,107.235,6.681,1.019,42.774,4,1,3.262
1777493329316,-0.056,0.985,-0.317,28.137,22.221,8.206,107.399,5.708,1.037,36.781,4,1,3.274
1777493329330,-0.082,0.958,-0.352,26.031,23.565,3.771,108.140,5.403,1.024,35.314,4,1,3.258
1777493329344,-0.060,0.949,-0.372,22.031,16.588,-3.931,109.022,4.854,1.021,27.856,5,1,4.466
1777493329358,-0.106,0.960,-0.357,18.863,14.534,-7.069,109.394,5.146,1.029,24.840,5,1,3.259
1777493329371,-0.128,0.941,-0.375,16.366,10.870,-7.992,110.019,5.700,1.021,21.211,5,1,3.281
1777493329384,-0.130,0.952,-0.370,10.840,9.481,-8.664,110.347,6.122,1.029,16.806,5,1,3.262
1777493329398,-0.153,0.958,-0.363,8.351,10.023,-7.756,110.452,6.761,1.035,15.177,5,1,3.270
1777493329411,-0.118,0.964,-0.362,6.458,9.634,-7.084,110.482,6.696,1.036,13.590,1,1,3.935
1777493329425,-0.122,0.962,-0.346,7.282,9.000,-7.336,110.290,6.724,1.029,13.706,1,1,3.276
1777493329439,-0.115,0.962,-0.379,9.679,7.954,-7.000,110.618,6.625,1.041,14.351,1,1,3.285
1777493329452,-0.118,0.969,-0.346,10.427,6.130,-8.107,110.358,6.601,1.036,14.561,1,1,3.260
1777493329465,-0.115,0.954,-0.378,11.168,4.389,-7.794,110.701,6.537,1.033,14.309,1,1,3.278
1777493329479,-0.126,0.958,-0.372,11.687,2.351,-8.023,110.842,6.667,1.035,14.369,1,1,3.945
1777493329493,-0.127,0.952,-0.374,10.489,1.099,-7.435,111.010,6.774,1.031,12.903,1,1,3.274
1777493329506,-0.154,0.961,-0.364,11.550,2.336,-5.374,110.944,7.247,1.039,12.951,1,1,3.263
1777493329519,-0.130,0.950,-0.378,12.061,2.351,-4.893,111.140,7.248,1.031,13.226,1,1,3.264
1777493329533,-0.127,0.962,-0.374,11.901,1.061,-5.595,111.170,7.191,1.040,13.193,1,1,3.269
1777493329547,-0.115,0.963,-0.381,11.573,1.023,-7.389,111.284,6.956,1.042,13.768,1,1,4.321
1777493329561,-0.132,0.952,-0.385,12.977,0.847,-8.015,111.478,7.051,1.035,15.276,1,1,3.281
1777493329574,-0.147,0.955,-0.388,13.344,0.137,-6.916,111.646,7.346,1.041,15.030,1,1,3.273
1777493329587,-0.156,0.955,-0.379,13.496,0.397,-6.061,111.646,7.697,1.040,14.800,1,1,3.274
1777493329601,-0.153,0.962,-0.382,13.252,1.565,-4.237,111.649,7.882,1.046,14.000,1,1,3.260
1777493329614,-0.149,0.951,-0.406,13.160,5.061,-2.260,112.047,7.962,1.045,14.280,1,1,3.973
1777493329628,-0.133,0.939,-0.411,11.427,3.252,-1.939,112.473,7.813,1.033,12.038,1,1,3.269
1777493329642,-0.131,0.937,-0.406,10.176,1.305,-2.466,112.733,7.684,1.029,10.551,1,1,3.262
1777493329655,-0.137,0.962,-0.391,9.458,0.427,-3.107,112.574,7.638,1.047,9.964,1,1,3.273
1777493329668,-0.146,0.940,-0.409,9.809,0.405,-2.924,112.824,7.765,1.035,10.244,1,1,3.260
1777493329682,-0.149,0.934,-0.412,9.710,-0.229,-2.168,113.084,7.906,1.031,9.952,4,1,4.006
1777493329696,-0.148,0.945,-0.422,9.298,-0.382,-1.679,113.352,7.974,1.046,9.456,4,1,3.285
1777493329709,-0.136,0.955,-0.396,9.763,-0.237,-1.794,113.125,7.852,1.043,9.930,4,1,3.273
1777493329723,-0.162,0.958,-0.403,12.206,1.466,-0.947,113.039,8.130,1.052,12.330,4,1,3.263
1777493329736,-0.155,0.945,-0.412,13.824,1.244,-0.275,113.183,8.247,1.043,13.883,4,1,3.290
1777493329749,-0.149,0.942,-0.427,14.786,1.863,0.611,113.499,8.236,1.045,14.916,1,1,3.988
1777493329763,-0.158,0.945,-0.425,15.374,1.382,1.115,113.694,8.348,1.049,15.476,1,1,3.252
1777493329777,-0.167,0.941,-0.423,16.244,2.496,2.122,113.831,8.573,1.045,16.571,1,1,3.294
1777493329790,-0.156,0.922,-0.429,16.511,2.466,3.038,114.141,8.613,1.029,16.969,1,1,3.254
1777493329804,-0.136,0.923,-0.427,15.969,2.962,3.221,114.330,8.351,1.026,16.558,1,1,3.277
1777493329817,-0.130,0.943,-0.434,14.863,2.008,2.863,114.434,8.019,1.046,15.268,4,1,3.927
1777493329831,-0.115,0.929,-0.452,12.618,2.160,2.099,114.841,7.565,1.039,12.973,4,1,3.268
1777493329844,-0.135,0.928,-0.451,10.695,0.183,1.244,115.130,7.531,1.041,10.768,4,1,3.264
1777493329858,-0.137,0.934,-0.452,9.092,-0.328,0.824,115.314,7.531,1.047,9.135,4,1,3.260
1777493329871,-0.151,0.935,-0.438,8.145,0.832,2.290,115.256,7.750,1.044,8.502,4,1,3.280
1777493329884,-0.163,0.908,-0.452,7.771,1.061,2.809,115.581,8.120,1.027,8.331,4,1,3.929
1777493329899,-0.133,0.926,-0.453,7.916,1.061,2.618,115.721,7.907,1.039,8.405,4,1,3.263
1777493329912,-0.123,0.942,-0.464,8.489,0.725,2.344,115.854,7.569,1.057,8.836,4,1,3.260
1777493329925,-0.136,0.941,-0.442,10.206,-0.145,2.076,115.667,7.541,1.049,10.416,4,1,3.268
1777493329939,-0.153,0.945,-0.457,12.214,2.061,2.145,115.709,7.737,1.061,12.571,4,1,3.260
1777493329952,-0.148,0.925,-0.458,13.420,0.229,2.214,115.881,7.850,1.043,13.603,1,1,4.429
1777493329967,-0.151,0.938,-0.464,14.168,1.710,3.718,116.003,7.953,1.057,14.747,1,1,3.266
1777493329980,-0.125,0.923,-0.469,13.511,1.443,4.069,116.251,7.665,1.042,14.184,1,1,3.252
1777493329993,-0.142,0.939,-0.491,13.382,1.595,5.160,116.618,7.655,1.069,14.431,1,1,3.270
1777493330007,-0.142,0.940,-0.463,15.198,0.634,5.527,116.514,7.672,1.058,16.185,1,1,3.251
1777493330020,-0.159,0.946,-0.473,17.344,1.634,6.504,116.526,7.905,1.069,18.595,4,1,3.925
1777493330034,-0.136,0.945,-0.495,18.863,2.374,6.634,116.828,7.739,1.075,20.135,4,1,3.258
1777493330047,-0.115,0.959,-0.485,20.092,2.489,5.649,116.829,7.291,1.081,21.018,4,1,3.269
1777493330061,-0.139,0.953,-0.479,20.473,-0.542,-0.534,116.786,7.323,1.076,20.487,4,1,3.278
1777493330074,0.032,0.804,-0.485,19.969,3.160,8.267,117.957,4.817,0.940,21.843,4,1,3.253
1777493330087,-0.145,0.952,-0.524,23.115,1.931,8.229,118.195,5.563,1.096,24.612,4,4,3.966
1777493330102,-0.157,0.939,-0.518,22.351,2.107,9.046,118.385,6.306,1.084,24.204,4,4,3.436
1777493330115,-0.106,0.925,-0.514,20.420,1.954,9.382,118.574,6.151,1.064,22.557,4,4,3.275
1777493330128,-0.100,0.929,-0.523,19.321,0.748,10.038,118.794,5.934,1.071,21.786,4,4,3.264
1777493330142,-0.095,0.956,-0.530,18.664,-1.611,10.977,118.846,5.669,1.097,21.713,4,4,3.266
1777493330155,-0.103,1.131,-0.573,13.137,-2.137,15.275,118.319,5.395,1.272,20.260,4,4,3.952
1777493330169,-0.265,1.013,-0.529,21.084,-2.481,15.672,118.120,7.467,1.173,26.387,4,4,3.263
1777493330183,-0.054,1.025,-0.529,23.000,-1.359,18.885,117.898,6.177,1.154,29.791,4,4,3.265
1777493330196,-1.298,-0.211,-0.308,33.565,-10.397,15.985,46.734,24.485,1.351,38.603,4,4,3.252
1777493330209,0.136,0.694,-0.572,32.588,-15.137,17.031,69.091,15.547,0.909,39.764,4,4,3.273
1777493330223,-0.082,1.164,-0.544,32.725,-10.840,24.336,81.511,12.331,1.287,42.198,4,4,3.939
1777493330237,-0.127,1.049,-0.573,34.466,-7.565,25.351,91.538,10.634,1.202,43.449,4,4,3.268
1777493330250,-0.097,1.006,-0.546,37.550,-6.855,26.153,98.824,9.076,1.148,46.270,4,4,3.262
1777493330264,-0.106,0.998,-0.557,41.351,-4.313,27.000,104.318,8.056,1.147,49.573,4,4,3.262
1777493330277,-0.003,1.011,-0.549,44.771,5.649,24.260,108.153,5.919,1.150,51.234,4,4,3.261
1777493330290,0.041,1.003,-0.553,49.160,1.435,27.359,111.047,3.765,1.146,56.279,4,4,3.928
1777493330304,0.013,1.001,-0.567,52.977,-3.916,27.664,113.339,2.571,1.150,59.893,4,4,3.320
1777493330318,0.021,0.980,-0.562,56.382,-6.282,27.412,115.090,1.582,1.130,63.006,4,4,3.245
1777493330331,-0.032,1.010,-0.584,60.145,-5.817,29.099,116.435,1.585,1.167,67.067,4,4,3.259
1777493330344,-0.104,0.967,-0.588,62.954,-4.458,27.885,117.752,2.575,1.137,68.998,4,4,3.259
1777493330358,-0.088,0.962,-0.594,65.191,-3.115,29.076,118.813,3.081,1.133,71.449,4,4,3.910
1777493330372,-0.087,0.952,-0.603,68.840,-1.534,26.076,119.773,3.447,1.130,73.629,4,4,3.279
1777493330385,-0.047,0.942,-0.608,71.527,1.000,25.260,120.608,3.162,1.122,75.862,4,4,3.254
1777493330399,-0.032,0.900,-0.619,74.298,0.405,24.656,121.663,2.768,1.093,78.283,4,4,3.261
1777493330412,-0.021,0.867,-0.626,76.611,-0.153,22.550,122.792,2.324,1.070,79.861,4,4,3.310
1777493330425,-0.015,0.872,-0.664,78.901,-2.618,21.802,124.002,1.913,1.096,81.899,4,4,3.915
1777493330439,-0.035,0.919,-0.675,81.664,-2.878,21.359,124.627,1.877,1.141,84.460,4,4,3.266
1777493330453,-0.040,0.934,-0.669,86.237,-2.588,21.924,124.898,1.909,1.150,89.017,4,4,3.256
1777493330466,-0.051,0.970,-0.635,88.840,0.206,22.771,124.449,2.074,1.161,91.712,4,4,3.266
1777493330479,-0.070,0.879,-0.668,89.740,2.260,21.550,125.203,2.498,1.107,92.319,4,4,3.264
1777493330493,-0.020,0.853,-0.697,90.519,0.260,15.405,126.297,2.104,1.102,91.821,4,4,3.898
1777493330507,-0.051,0.844,-0.716,90.908,0.351,12.107,127.377,2.246,1.108,91.712,4,4,3.254
1777493330520,-0.125,0.837,-0.732,93.145,3.260,5.008,128.397,3.375,1.119,93.336,4,4,3.263
1777493330533,-0.161,0.869,-0.707,96.321,8.748,-4.618,128.595,4.677,1.132,96.827,4,4,3.256
1777493330547,-0.174,0.908,-0.706,102.481,15.718,-10.481,128.394,5.742,1.163,104.208,4,4,3.263
1777493330560,-0.179,0.925,-0.722,111.641,25.389,-18.595,128.277,6.540,1.187,115.992,4,4,3.875
1777493330574,-0.130,0.918,-0.834,123.802,31.229,-21.878,129.356,6.385,1.247,129.540,4,4,3.255
1777493330587,-0.062,0.935,-1.066,142.756,39.931,-22.015,131.895,5.331,1.420,149.861,4,4,3.262
1777493330601,-0.006,0.825,-1.152,170.008,23.542,-20.542,135.271,3.958,1.417,172.855,4,4,3.264
1777493330614,0.094,0.838,-1.263,173.947,-3.275,-19.649,138.288,1.935,1.518,175.083,4,4,3.262
1777493330628,-0.244,0.458,-0.936,168.649,3.008,-18.656,142.517,4.969,1.070,169.704,4,4,3.872
1777493330642,-0.311,0.450,-0.821,137.779,40.092,-22.603,144.879,8.594,0.986,145.262,4,4,3.260
1777493330655,-0.178,0.432,-0.768,125.191,44.420,-12.847,146.431,9.360,0.899,133.458,4,4,3.249
1777493330668,-0.162,0.363,-0.793,97.214,51.366,-6.252,148.864,9.672,0.887,110.128,4,4,3.261
1777493330682,-0.023,0.382,-0.760,63.863,45.275,-7.031,150.065,7.472,0.851,78.598,4,4,3.260
1777493330695,-0.066,0.379,-0.696,38.595,36.565,-8.260,150.427,6.733,0.795,53.804,4,4,3.890
1777493330709,-0.077,0.375,-0.663,21.130,43.412,-22.160,150.445,6.472,0.765,53.124,4,4,3.264
1777493330722,0.065,0.415,-0.636,6.817,38.084,-18.313,149.481,3.394,0.763,42.804,4,4,3.248
1777493330736,0.176,0.439,-0.623,-0.176,27.656,-5.962,148.224,-1.025,0.782,28.292,4,4,3.261
1777493330749,0.161,0.382,-0.597,-6.443,15.183,0.511,147.993,-4.199,0.727,16.502,4,4,3.252
1777493330762,0.102,0.323,-0.545,-17.473,5.710,1.153,148.344,-5.537,0.642,18.419,4,4,3.972
1777493330776,0.035,0.307,-0.478,-28.450,0.023,-2.237,148.060,-4.997,0.569,28.538,4,4,3.259
1777493330790,0.022,0.272,-0.440,-41.702,-0.649,-6.695,148.116,-4.319,0.518,42.241,4,4,3.252
1777493330803,0.012,0.203,-0.424,-62.481,-0.450,-10.344,149.823,-3.554,0.470,63.333,4,4,3.266
1777493330817,0.007,0.249,-0.401,-83.183,-0.763,-8.504,149.371,-2.818,0.472,83.620,4,4,3.307
1777493330830,0.076,0.232,-0.422,-109.298,-0.527,-10.885,149.858,-4.478,0.487,109.840,4,4,3.965
1777493330844,0.069,0.306,-0.385,-136.740,-15.550,-15.023,147.603,-5.428,0.497,138.439,4,4,3.263
1777493330857,-0.016,0.470,-0.317,-150.511,-17.328,-10.573,141.228,-3.528,0.567,151.874,4,4,3.276
1777493330871,-0.043,0.654,-0.327,-148.511,-14.023,-0.947,134.556,-1.656,0.733,149.175,4,4,3.256
1777493330884,-0.032,0.708,-0.328,-143.779,-11.107,-9.695,129.228,-0.570,0.781,144.533,4,4,3.263
1777493330898,-0.059,0.685,-0.332,-147.344,-10.786,-21.122,125.616,0.784,0.763,149.240,5,4,3.930
1777493330912,-0.009,0.634,-0.355,-159.618,-13.099,-26.328,123.890,0.754,0.727,162.305,5,4,3.261
1777493330925,-0.013,0.662,-0.331,-176.252,-23.557,-24.573,121.906,0.816,0.740,179.509,5,4,3.262
1777493330938,0.082,0.789,-0.386,-188.588,-30.542,-19.756,120.327,-0.847,0.882,192.064,5,4,3.266
1777493330952,0.111,0.994,-0.464,-188.710,-51.160,-13.214,118.897,-2.180,1.102,195.968,5,4,3.272
1777493330965,0.044,1.039,-0.549,-187.580,-64.649,-16.985,118.610,-2.167,1.176,199.134,5,4,3.886
1777493330979,-0.117,1.069,-0.593,-188.122,-70.153,-22.885,118.725,-0.099,1.228,202.077,5,4,3.262
1777493330992,-0.214,1.077,-0.611,-190.870,-61.122,-25.221,118.949,2.579,1.256,201.999,5,4,3.257
1777493331006,-0.225,1.136,-0.606,-193.588,-50.198,-27.145,118.717,4.564,1.307,201.824,5,4,3.249
1777493331019,-0.184,1.219,-0.601,-194.550,-41.763,-25.168,118.052,5.410,1.371,200.567,5,4,3.273
1777493331032,-0.086,1.269,-0.636,-194.916,-43.962,-24.565,117.671,4.882,1.422,201.317,5,4,3.877
1777493331046,-0.073,1.328,-0.682,-193.489,-52.550,-22.756,117.537,4.322,1.494,201.785,5,4,3.312
1777493331060,-0.068,1.335,-0.735,-191.664,-64.901,-23.382,117.888,3.846,1.525,203.701,5,4,3.258
1777493331074,-0.146,1.346,-0.756,-185.298,-74.389,-23.481,118.278,4.264,1.551,201.048,5,4,3.772
1777493331087,-0.240,1.336,-0.790,-175.824,-72.802,-27.672,118.901,5.482,1.571,192.302,5,4,3.260
1777493331100,-0.308,1.305,-0.779,-167.405,-61.267,-34.153,119.421,7.099,1.551,181.506,5,4,3.908
1777493331114,-0.299,1.311,-0.776,-162.893,-43.321,-39.901,119.745,8.180,1.552,173.214,5,4,3.256
1777493331128,-0.193,1.326,-0.756,-161.061,-31.695,-38.351,119.730,7.918,1.539,168.571,5,4,3.248
1777493331141,-0.083,1.266,-0.736,-157.519,-26.565,-36.160,119.850,6.650,1.466,163.785,5,4,3.260
1777493331155,-0.099,1.269,-0.672,-152.053,-23.656,-32.435,119.323,5.921,1.439,157.264,5,4,3.255
1777493331168,-0.117,1.243,-0.658,-143.481,-18.748,-28.939,118.936,5.606,1.411,147.566,5,5,3.909
1777493331182,-0.236,1.189,-0.659,-134.153,-13.198,-29.969,118.956,6.747,1.380,138.092,5,5,3.266
1777493331195,-0.241,1.110,-0.642,-125.649,-4.374,-34.046,119.253,7.803,1.304,130.253,5,5,3.275
1777493331209,-0.218,1.057,-0.616,-116.824,0.634,-37.115,119.522,8.422,1.242,122.580,5,5,3.256
1777493331222,-0.158,1.103,-0.578,-106.794,3.321,-35.382,119.025,8.106,1.255,112.551,5,5,3.249
1777493331235,-0.118,1.063,-0.564,-93.725,4.260,-30.840,118.739,7.425,1.209,98.761,1,5,3.897
1777493331249,-0.120,1.050,-0.541,-80.153,2.435,-28.313,118.342,6.985,1.187,85.041,1,5,3.249
1777493331263,-0.091,1.007,-0.527,-67.802,-0.954,-26.321,118.149,6.333,1.140,72.737,1,5,3.276
1777493331276,-0.080,0.986,-0.537,-55.221,-3.298,-22.458,118.263,5.727,1.126,59.705,1,5,3.366
1777493331290,-0.115,0.944,-0.514,-43.748,-4.206,-21.695,118.348,5.825,1.081,49.013,1,5,3.264
1777493331303,-0.097,0.907,-0.489,-33.740,-5.267,-20.939,118.345,5.703,1.035,40.057,1,5,3.882
1777493331317,-0.091,0.939,-0.462,-25.206,-10.198,-17.069,117.772,5.506,1.050,32.104,1,5,3.253
1777493331330,-0.117,0.876,-0.404,-19.298,-14.191,-14.443,116.949,5.889,0.972,27.971,1,5,3.259
1777493331344,-0.170,0.886,-0.344,-16.160,-17.206,-13.916,115.394,7.032,0.966,27.402,1,5,3.253
1777493331357,-0.198,0.930,-0.323,-9.130,-17.061,-12.176,113.701,8.197,1.004,22.862,1,5,3.261
1777493331370,-0.216,0.905,-0.362,-2.366,-13.878,-13.947,113.192,9.359,0.999,19.817,1,5,3.881
1777493331384,-0.177,0.904,-0.429,5.634,-9.260,-12.893,113.786,9.548,1.016,16.844,1,5,3.286
1777493331398,-0.162,0.888,-0.442,12.191,-8.244,-9.580,114.511,9.473,1.005,17.560,1,5,3.254
1777493331411,-0.188,0.912,-0.404,20.496,-4.885,-3.725,114.347,9.796,1.015,21.397,1,5,3.257
1777493331425,-0.207,0.891,-0.374,26.511,-1.321,-1.221,113.917,10.413,0.988,26.572,1,5,3.265
1777493331438,-0.206,0.892,-0.353,29.878,2.481,1.947,113.285,10.875,0.981,30.044,1,5,3.887
1777493331452,-0.222,0.909,-0.338,33.351,8.565,10.153,112.501,11.428,0.995,35.899,1,5,3.261
1777493331465,-0.125,0.922,-0.380,38.893,9.679,13.885,112.471,10.264,1.005,42.417,1,5,3.253
1777493331479,0.073,1.066,-0.429,55.046,-4.863,19.565,112.317,6.516,1.152,58.621,1,5,3.365
1777493331492,0.456,0.233,-0.023,99.336,-34.221,44.947,107.837,-12.198,0.512,114.276,1,5,3.257
1777493331505,-0.432,2.503,1.600,153.504,-59.107,37.145,94.215,-6.668,3.002,168.632,1,1,3.886
1777493331519,-1.439,2.305,1.970,17.656,-50.145,106.046,82.129,1.993,3.357,118.625,1,1,3.255
1777493331533,0.704,0.511,-0.587,47.802,-58.908,30.901,97.480,-9.925,1.050,81.915,1,1,3.264
1777493331546,-0.065,1.024,-1.062,101.382,-1.107,7.137,107.897,-6.558,1.477,101.639,1,1,3.255
1777493331559,-0.180,0.961,-0.312,103.504,10.153,-7.435,107.916,-2.061,1.026,104.266,1,1,3.257
1777493331573,-0.290,0.987,0.089,79.237,53.305,-18.756,101.678,2.899,1.033,97.323,1,1,3.910
1777493331587,-0.204,0.936,-0.254,66.679,66.115,-15.573,102.622,5.321,0.990,95.183,1,1,3.258
1777493331600,-0.078,0.953,-0.319,63.122,56.672,-22.947,104.212,5.084,1.008,87.879,1,1,3.266
1777493331614,-0.229,0.936,-0.191,58.840,32.389,-18.366,103.488,7.361,0.982,69.631,1,1,3.263
1777493331627,-0.285,0.932,-0.225,56.794,11.344,-6.969,103.518,9.844,1.000,58.333,1,1,3.259
1777493331640,-0.264,0.928,-0.270,56.580,-7.000,5.198,104.245,11.308,1.002,57.248,1,1,3.894
1777493331654,-0.321,0.906,-0.219,53.489,-3.305,15.992,104.068,13.387,0.986,55.926,1,1,3.257
1777493331668,-0.321,0.932,-0.254,49.221,12.160,24.084,104.387,14.740,1.018,56.131,1,1,3.261
1777493331681,-0.235,0.975,-0.210,47.817,26.435,23.527,103.787,14.334,1.025,59.488,1,1,3.268
1777493331694,-0.140,0.975,-0.260,48.252,31.557,21.580,104.097,12.598,1.019,61.561,1,1,3.277
1777493331708,-0.128,0.963,-0.297,47.229,27.832,19.427,104.923,11.144,1.016,58.160,1,1,3.875
1777493331722,-0.150,0.947,-0.314,44.901,22.603,19.046,105.843,10.442,1.009,53.756,1,1,3.270
1777493331735,-0.148,0.948,-0.352,39.511,19.321,17.985,107.064,9.876,1.023,47.517,1,1,3.262
1777493331748,-0.147,0.990,-0.292,38.847,18.397,17.176,106.902,9.401,1.043,46.288,1,1,3.259
1777493331762,-0.181,0.954,-0.326,40.145,22.924,19.542,107.431,9.609,1.024,50.190,1,1,3.274
1777493331775,-0.123,0.961,-0.324,36.420,25.573,17.893,107.753,8.878,1.022,47.964,1,1,3.929
1777493331789,-0.197,0.975,-0.335,36.122,31.229,19.221,108.088,9.396,1.049,51.473,1,1,3.301
1777493331803,-0.146,0.982,-0.305,35.863,32.847,19.939,107.858,9.034,1.038,52.561,1,1,3.259
1777493331816,-0.089,0.926,-0.393,27.969,32.092,17.275,109.244,7.957,1.010,45.941,1,1,3.278
1777493331829,-0.143,0.923,-0.374,23.000,30.458,13.374,110.003,8.021,1.006,40.442,1,1,3.261
1777493331844,-0.078,0.931,-0.400,19.153,24.206,7.092,110.880,7.044,1.017,31.671,1,1,5.001
1777493331858,-0.082,0.938,-0.410,11.511,16.824,-0.611,111.615,6.372,1.027,20.395,1,1,3.278
1777493331871,-0.093,0.956,-0.372,12.885,11.672,-4.718,111.524,6.050,1.030,18.014,1,1,3.260
1777493331885,-0.096,0.946,-0.392,8.244,6.786,-6.244,111.792,5.865,1.028,12.370,1,1,3.271
1777493331898,-0.101,0.967,-0.375,1.221,5.962,-9.687,111.626,5.777,1.042,11.440,1,1,3.244
1777493331911,-0.106,0.967,-0.361,4.969,4.382,-9.924,111.321,5.804,1.037,11.932,1,1,3.888
1777493331927,-0.114,0.948,-0.380,6.756,2.405,-11.550,111.465,5.948,1.028,13.595,1,1,4.672
1777493331940,-0.133,0.951,-0.393,7.855,1.504,-11.939,111.730,6.335,1.038,14.370,1,1,3.278
1777493331955,-0.156,0.960,-0.373,4.160,2.214,-11.000,111.589,6.957,1.042,11.967,1,1,4.753
1777493331969,-0.158,0.944,-0.396,5.832,2.664,-9.137,111.897,7.448,1.036,11.163,1,1,3.310
1777493331982,-0.148,0.964,-0.373,7.328,2.420,-8.458,111.691,7.644,1.044,11.450,1,1,4.038
1777493331997,-0.125,0.943,-0.393,9.061,2.260,-8.160,111.938,7.471,1.029,12.402,1,1,3.584
1777493332010,-0.141,0.965,-0.378,10.290,1.595,-7.740,111.785,7.551,1.046,12.975,1,1,3.274
1777493332023,-0.148,0.953,-0.391,12.481,0.282,-7.992,111.922,7.723,1.040,14.823,1,1,3.267
1777493332037,-0.171,0.991,-0.352,12.244,1.084,-8.573,111.277,8.130,1.066,14.986,1,1,3.303
1777493332050,-0.151,0.940,-0.405,12.328,4.023,-6.985,111.821,8.205,1.035,14.729,1,1,3.930
1777493332064,-0.164,0.938,-0.399,10.038,2.832,-5.573,112.148,8.452,1.032,11.825,1,1,3.283
1777493332078,-0.161,0.939,-0.407,8.916,2.092,-5.244,112.497,8.585,1.036,10.553,1,1,3.274
1777493332091,-0.159,0.936,-0.407,7.366,1.290,-4.305,112.763,8.657,1.033,8.629,1,1,3.612
1777493332105,-0.172,0.940,-0.409,6.840,1.687,-3.626,112.966,8.892,1.040,7.923,1,1,3.264
1777493332118,-0.175,0.960,-0.402,6.916,1.588,-3.008,112.900,9.066,1.055,7.707,1,1,3.949
1777493332132,-0.169,0.943,-0.391,8.435,2.076,-1.908,112.793,9.160,1.035,8.894,1,1,3.266
1777493332146,-0.155,0.952,-0.404,10.053,2.496,-1.183,112.846,8.980,1.046,10.426,1,1,3.245
1777493332159,-0.167,0.939,-0.409,11.687,3.382,-0.573,113.035,9.060,1.038,12.180,1,1,3.273
1777493332172,-0.148,0.939,-0.412,12.336,2.870,-0.718,113.204,8.830,1.036,12.686,1,1,3.252
1777493332187,-0.164,0.938,-0.408,12.656,2.473,0.092,113.290,8.910,1.036,12.896,1,1,4.947
1777493332203,-0.143,0.917,-0.436,11.931,2.710,0.611,113.872,8.666,1.025,12.250,1,1,3.256
1777493332217,-0.137,0.930,-0.439,10.916,1.595,0.206,114.248,8.374,1.038,11.034,1,1,4.230
1777493332230,-0.120,0.943,-0.432,10.374,0.336,-0.695,114.354,7.896,1.044,10.403,1,1,3.265
1777493332244,-0.151,0.963,-0.408,11.084,-0.237,-0.908,113.972,7.984,1.057,11.124,1,1,3.260
1777493332257,-0.157,0.943,-0.427,12.015,0.695,-0.481,114.084,8.153,1.047,12.045,1,1,3.931
1777493332271,-0.161,0.927,-0.438,11.885,-0.008,0.176,114.417,8.368,1.038,11.887,1,1,3.264
1777493332285,-0.154,0.918,-0.444,12.122,-0.107,0.397,114.790,8.424,1.031,12.129,1,1,3.281
1777493332298,-0.151,0.926,-0.440,12.817,-0.771,0.443,114.959,8.414,1.036,12.848,1,1,3.263
1777493332314,-0.162,0.951,-0.439,14.137,0.855,0.580,114.914,8.520,1.061,14.175,1,1,4.846
1777493332327,-0.166,0.949,-0.436,15.954,0.511,0.595,114.855,8.655,1.057,15.973,4,1,3.915
1777493332342,-0.165,0.953,-0.452,16.542,1.397,0.901,115.000,8.712,1.068,16.625,4,1,4.170
1777493332355,-0.185,0.961,-0.450,16.870,1.191,1.290,115.028,9.027,1.077,16.961,4,1,3.282
1777493332369,-0.138,0.941,-0.465,16.496,1.916,0.366,115.371,8.618,1.059,16.611,4,1,3.268
1777493332382,-0.154,0.943,-0.455,16.397,1.756,-0.145,115.482,8.551,1.058,16.491,4,1,3.264
1777493332395,-0.168,0.944,-0.468,16.962,1.916,0.405,115.726,8.695,1.067,17.075,4,1,3.922
1777493332410,-0.180,0.931,-0.478,17.321,1.206,2.344,116.118,8.978,1.062,17.520,4,1,3.276
1777493332423,-0.199,0.904,-0.470,18.015,2.359,3.893,116.482,9.545,1.038,18.581,4,1,3.260
1777493332436,-0.116,0.912,-0.480,18.511,2.191,4.160,116.829,8.697,1.037,19.099,4,1,3.325
1777493332450,-0.178,0.924,-0.476,19.092,2.473,5.244,116.942,8.981,1.054,19.953,4,1,3.275
1777493332464,-0.172,0.928,-0.493,19.427,1.832,6.679,117.229,9.061,1.065,20.625,4,1,4.407
1777493332478,-0.198,0.943,-0.487,20.069,3.282,7.832,117.252,9.476,1.079,21.791,4,1,3.275
1777493332491,-0.205,0.930,-0.506,20.069,4.901,8.153,117.606,9.878,1.078,22.209,4,1,3.593
1777493332505,-0.075,0.917,-0.507,19.611,3.595,7.046,117.966,8.312,1.050,21.146,4,1,3.263
1777493332519,-0.086,0.936,-0.511,19.191,0.435,7.198,118.151,7.307,1.070,20.501,4,1,3.253
1777493332532,-0.094,0.932,-0.507,19.115,-0.405,6.870,118.255,6.694,1.065,20.316,4,1,3.942
1777493332546,-0.110,0.931,-0.521,19.092,-2.878,8.618,118.510,6.478,1.073,21.143,4,1,3.265
1777493332560,-0.169,0.920,-0.526,19.893,-3.122,9.435,118.851,7.177,1.073,22.237,4,1,3.907
1777493332574,-0.127,0.946,-0.519,20.282,-1.870,10.969,118.826,7.058,1.086,23.134,4,1,3.277
1777493332587,-0.151,0.920,-0.532,19.824,-2.130,13.183,119.155,7.341,1.074,23.903,4,1,3.275
1777493332601,-0.125,0.976,-0.545,19.595,-2.473,12.351,119.165,7.078,1.125,23.295,4,4,3.944
1777493332615,-0.382,0.459,-0.473,19.069,1.771,13.107,123.686,13.297,0.762,23.207,4,4,3.257
1777493332628,-0.040,0.803,-0.541,22.702,-7.336,8.908,123.756,10.348,0.969,25.467,4,4,3.279
1777493332641,-0.071,0.999,-0.541,24.466,-7.198,12.565,122.320,8.513,1.138,28.430,4,4,3.261
1777493332655,-0.089,0.984,-0.566,24.542,-9.412,13.756,121.662,7.419,1.139,29.667,4,4,3.295
1777493332668,-0.092,0.951,-0.552,25.687,-10.664,13.756,121.249,6.710,1.104,31.028,4,4,3.935
1777493332682,-0.108,0.952,-0.560,27.557,-12.489,14.580,121.041,6.405,1.110,33.585,4,4,3.334
1777493332696,-0.112,0.940,-0.553,29.443,-13.664,14.794,120.884,6.263,1.096,35.671,4,4,3.724
1777493332709,-0.087,0.949,-0.565,30.878,-14.954,15.267,120.852,5.790,1.108,37.552,4,4,3.254
1777493332723,-0.086,0.968,-0.575,32.412,-15.214,16.885,120.819,5.402,1.129,39.587,4,4,3.277
1777493332736,-0.128,0.995,-0.604,33.137,-16.321,20.015,120.935,5.639,1.171,42.013,4,4,3.934
1777493332750,-0.252,0.953,-0.598,34.870,-13.962,17.832,121.251,7.534,1.153,41.579,4,4,3.304
1777493332764,-0.102,0.976,-0.588,36.695,-11.588,18.893,121.203,6.875,1.144,42.869,4,4,3.264
1777493332777,-0.113,0.998,-0.585,39.374,-9.427,20.290,120.988,6.522,1.162,45.287,4,4,3.281
1777493332790,-0.120,1.002,-0.607,41.840,-6.359,20.015,121.050,6.335,1.178,46.815,4,4,3.273
1777493332804,-0.084,0.973,-0.595,44.595,-4.725,21.092,121.158,5.768,1.144,49.557,4,4,3.960
1777493332818,-0.069,0.980,-0.612,46.855,-6.496,20.771,121.381,5.138,1.157,51.663,4,4,3.274
1777493332831,-0.010,0.948,-0.605,49.244,-9.840,21.550,121.697,3.884,1.124,54.646,4,4,3.262
1777493332845,-0.003,0.929,-0.613,52.168,-13.160,21.954,122.157,2.872,1.113,58.109,4,4,3.278
1777493332858,-0.044,0.937,-0.602,55.298,-15.313,22.786,122.314,2.710,1.115,61.738,4,4,3.261
1777493332871,-0.105,0.908,-0.640,57.427,-15.763,20.679,123.086,3.434,1.115,63.040,4,4,3.961
1777493332885,-0.110,0.897,-0.637,58.802,-13.366,20.389,123.704,4.043,1.106,63.655,4,4,3.267
1777493332899,-0.115,0.869,-0.642,60.015,-11.855,19.847,124.450,4.584,1.087,64.314,4,4,3.335
1777493332913,-0.133,0.861,-0.653,60.786,-8.672,19.916,125.182,5.236,1.089,64.551,4,4,3.262
1777493332926,-0.147,0.809,-0.679,61.336,-6.229,17.924,126.487,5.957,1.067,64.204,4,4,3.252
1777493332939,-0.157,0.831,-0.691,62.031,-5.275,15.641,127.370,6.584,1.092,64.189,4,4,3.933
1777493332953,-0.183,0.863,-0.666,63.534,-1.221,13.718,127.445,7.376,1.105,65.010,4,4,3.264
1777493332967,-0.178,0.851,-0.718,64.046,5.191,12.412,128.176,7.836,1.128,65.444,4,4,3.288
1777493332980,-0.149,0.848,-0.712,65.252,7.809,9.183,128.679,7.795,1.117,66.356,4,4,3.267
1777493332993,-0.109,0.878,-0.713,67.237,11.443,7.580,128.782,7.175,1.137,68.623,4,4,3.271
1777493333007,-0.069,0.903,-0.683,71.008,12.817,5.763,128.332,6.176,1.135,72.385,4,4,3.932
1777493333021,-0.052,0.877,-0.671,74.267,18.771,10.122,128.088,5.243,1.106,77.269,4,4,3.274
1777493333034,-0.029,0.824,-0.710,74.947,17.664,9.282,128.814,4.236,1.088,77.558,4,4,3.280
1777493333048,-0.057,0.759,-0.719,75.260,16.122,4.916,130.072,3.936,1.047,77.124,4,4,3.264
1777493333061,-0.051,0.802,-0.728,76.389,15.832,0.924,130.655,3.598,1.085,78.018,4,4,3.277
1777493333074,-0.086,0.817,-0.745,79.160,18.198,0.931,131.118,3.827,1.109,81.231,4,4,3.934
1777493333088,-0.167,0.876,-0.753,85.382,19.626,-5.756,131.000,5.009,1.167,87.797,4,4,3.288
1777493333102,-0.230,0.915,-0.802,94.160,30.298,-18.221,131.068,6.549,1.239,100.579,4,4,3.628
1777493333116,-0.275,0.929,-0.894,105.573,40.527,-28.153,131.832,8.038,1.318,116.536,4,4,3.304
1777493333129,-0.176,0.915,-1.071,120.969,44.550,-29.893,133.899,7.788,1.419,132.332,4,4,3.267
1777493333142,-0.214,0.874,-1.200,134.504,66.405,-24.420,136.614,7.901,1.500,151.978,4,4,3.911
1777493333156,0.073,0.864,-1.365,156.740,11.672,-20.809,139.602,5.072,1.616,158.546,4,4,3.277
1777493333170,-0.599,0.437,-0.966,118.664,28.672,-9.611,143.935,11.666,1.218,122.457,4,4,3.262
1777493333183,-0.597,0.624,-0.701,96.916,64.672,-10.824,142.416,17.279,1.112,117.014,4,4,3.280
1777493333196,-0.538,0.428,-0.612,73.115,78.893,-24.954,143.127,22.277,0.921,110.420,4,4,3.264
1777493333210,-0.674,0.411,-0.433,44.183,126.679,-51.260,141.339,29.352,0.900,143.622,4,4,3.942
1777493333224,0.052,0.766,-0.497,29.695,134.061,-25.794,136.378,20.542,0.915,139.712,4,4,3.270
1777493333237,0.289,0.723,-0.483,20.550,106.763,-10.611,132.960,10.022,0.917,109.240,4,4,3.267
1777493333251,0.288,0.673,-0.479,12.687,79.718,-14.496,130.920,2.127,0.874,82.012,4,4,3.270
1777493333264,0.278,0.587,-0.497,6.015,47.710,-16.771,130.735,-3.809,0.818,50.928,4,4,3.259
1777493333277,0.205,0.495,-0.473,-6.328,24.153,-19.458,131.540,-7.272,0.715,31.655,4,4,3.955
1777493333291,0.081,0.417,-0.423,-21.069,1.626,-25.748,132.579,-7.408,0.599,33.309,4,4,3.265
1777493333305,-0.060,0.418,-0.332,-36.450,-2.611,-30.435,131.458,-3.667,0.538,47.558,4,4,3.870
1777493333319,-0.118,0.400,-0.266,-50.229,6.229,-33.473,129.351,1.052,0.494,60.681,4,4,3.262
1777493333332,-0.082,0.361,-0.237,-69.916,11.779,-37.458,127.722,3.667,0.439,80.188,4,4,3.260
1777493333345,0.058,0.411,-0.204,-89.130,16.450,-34.221,124.660,0.720,0.463,96.881,4,4,3.935
1777493333359,0.191,0.539,-0.231,-100.664,-2.366,-22.122,121.565,-4.344,0.617,103.093,4,4,3.263
1777493333373,0.282,0.546,-0.283,-110.908,-23.046,-20.305,120.454,-9.826,0.676,115.083,4,4,3.274
1777493333386,0.242,0.571,-0.309,-121.527,-51.947,-22.939,119.908,-12.689,0.693,134.139,4,4,3.264
1777493333400,0.154,0.581,-0.367,-133.115,-69.260,-23.412,120.549,-12.662,0.704,151.870,4,4,3.272
1777493333413,-0.003,0.653,-0.369,-142.397,-76.916,-24.153,120.262,-9.186,0.750,163.635,5,4,3.935
1777493333427,-0.152,0.711,-0.412,-150.626,-61.832,-22.344,120.209,-3.881,0.836,164.349,5,4,3.272
1777493333440,-0.123,0.753,-0.442,-161.290,-48.611,-23.458,120.259,-0.666,0.882,170.082,5,4,3.257
1777493333454,-0.096,0.816,-0.454,-174.237,-37.908,-18.977,119.949,1.106,0.939,179.320,5,4,3.259
1777493333467,-0.055,0.893,-0.436,-184.985,-33.672,-17.389,118.890,1.666,0.996,188.827,5,4,3.258
1777493333480,-0.073,0.954,-0.436,-195.153,-33.695,-20.145,117.721,2.284,1.052,199.062,5,4,3.885
1777493333494,-0.049,1.035,-0.438,-202.435,-38.260,-21.183,116.427,2.339,1.125,207.105,5,4,3.287
1777493333508,-0.038,1.120,-0.453,-206.282,-51.298,-21.939,115.237,2.198,1.208,213.694,5,4,3.405
1777493333521,-0.070,1.199,-0.460,-208.252,-66.885,-25.626,114.088,2.451,1.286,220.225,5,4,3.260
1777493333535,-0.147,1.306,-0.512,-207.763,-80.534,-28.061,113.362,3.407,1.411,224.586,5,4,3.255
1777493333548,-0.200,1.372,-0.593,-206.435,-87.779,-30.008,113.369,4.550,1.508,226.321,5,4,3.929
1777493333562,-0.202,1.430,-0.698,-202.901,-90.802,-32.252,114.082,5.277,1.604,224.619,5,4,3.267
1777493333575,-0.169,1.408,-0.797,-201.160,-95.847,-34.267,115.545,5.462,1.627,225.447,5,4,3.257
1777493333589,-0.244,1.440,-0.841,-199.473,-96.107,-28.855,116.828,6.237,1.685,223.291,5,4,3.272
1777493333602,-0.310,1.457,-0.890,-192.366,-89.237,-24.076,118.064,7.330,1.735,213.419,5,4,3.264
1777493333616,-0.372,1.451,-0.905,-182.962,-76.275,-25.313,119.118,8.664,1.750,199.834,5,4,3.943
1777493333630,-0.382,1.354,-0.909,-175.023,-56.466,-32.557,120.408,9.881,1.675,186.766,5,4,3.271
1777493333643,-0.326,1.333,-0.903,-167.244,-41.939,-34.489,121.407,10.305,1.643,175.838,5,4,3.314
1777493333656,-0.268,1.334,-0.879,-153.534,-30.824,-31.901,121.937,10.094,1.620,159.814,5,4,3.263
1777493333670,-0.222,1.298,-0.890,-137.328,-21.405,-33.389,122.611,9.533,1.589,142.941,5,4,3.254
1777493333683,-0.162,1.084,-0.920,-124.420,-15.901,-41.290,124.688,8.709,1.431,132.053,5,5,3.927
1777493333697,-0.045,0.987,-0.906,-120.481,-17.656,-46.458,126.814,6.878,1.340,130.329,5,5,3.259
1777493333711,0.000,1.135,-0.852,-103.023,-13.947,-26.130,126.830,5.017,1.419,107.196,5,5,3.285
1777493333724,0.052,1.099,-0.811,-82.595,-16.817,-22.351,126.721,3.076,1.367,87.203,5,5,3.261
1777493333737,-0.028,0.991,-0.764,-66.069,-17.580,-26.313,126.967,2.595,1.252,73.256,5,5,3.268
1777493333751,0.015,0.896,-0.690,-56.489,-22.046,-26.466,127.138,1.694,1.131,66.162,1,5,3.940
1777493333765,-0.049,1.017,-0.557,-42.779,-22.641,-14.748,124.866,1.884,1.161,50.598,1,5,3.276
1777493333778,0.035,0.984,-0.467,-30.046,-27.885,-11.931,122.298,0.872,1.090,42.693,1,5,3.266
1777493333791,0.067,0.862,-0.452,-26.252,-41.160,-13.664,121.048,-0.422,0.975,50.696,1,5,3.261
1777493333805,0.027,0.862,-0.396,-26.550,-55.649,-8.832,119.320,-0.754,0.949,62.287,1,5,3.271
1777493333818,-0.071,0.984,-0.362,-17.214,-53.137,5.023,116.851,0.494,1.050,56.081,1,5,3.934
1777493333834,-0.196,0.940,-0.381,-7.565,-40.435,-2.702,115.556,3.313,1.033,41.225,1,5,4.773
1777493333847,-0.169,0.859,-0.407,-3.382,-29.969,-9.496,115.498,5.139,0.966,31.619,1,5,3.279
1777493333861,-0.167,0.957,-0.370,1.649,-13.924,0.580,114.321,6.253,1.039,14.033,1,5,4.100
1777493333875,-0.188,0.957,-0.337,7.878,-4.679,3.931,112.992,7.408,1.032,9.971,1,5,3.263
1777493333888,-0.266,0.888,-0.313,10.160,5.344,-3.053,112.029,9.673,0.979,11.879,1,5,3.949
1777493333902,-0.272,0.865,-0.342,10.321,14.809,-6.649,111.896,11.458,0.969,19.236,1,5,3.267
1777493333916,-0.228,0.947,-0.428,16.580,25.206,0.687,112.553,11.711,1.064,30.178,1,5,3.303
1777493333929,-0.092,0.982,-0.505,28.313,24.145,6.931,113.810,9.835,1.108,37.850,1,5,3.274
1777493333942,0.058,0.912,-0.401,50.397,1.595,10.740,113.789,6.280,0.998,51.553,1,5,3.263
1777493333960,0.013,1.625,0.259,88.687,23.756,11.603,104.915,4.459,1.646,92.544,1,5,7.664
1777493333974,-1.480,2.846,2.220,47.115,-5.130,62.626,90.632,9.278,3.902,78.537,1,5,3.268
1777493333987,0.470,0.548,0.044,6.672,-29.901,38.260,89.221,-4.183,0.723,49.014,1,5,3.282
1777493334000,-0.086,0.954,-0.779,82.634,-12.870,15.527,100.031,-1.969,1.235,85.059,1,5,3.283
1777493334014,-0.169,1.011,-0.355,98.496,-7.137,6.687,102.543,0.987,1.085,98.981,1,5,3.268
1777493334027,-0.139,1.043,0.082,94.328,-1.313,-2.252,97.940,2.763,1.056,94.364,1,1,3.937
1777493334041,-0.238,0.964,-0.086,89.122,-3.290,3.145,97.180,5.747,0.996,89.238,1,1,3.261
1777493334055,-0.209,0.977,-0.194,89.450,1.695,5.954,98.275,7.402,1.018,89.664,1,1,3.270
1777493334068,-0.258,0.945,-0.154,92.679,-6.603,11.092,98.532,9.480,0.992,93.574,1,1,3.264
1777493334081,-0.222,0.886,-0.196,89.427,-27.962,15.275,99.595,10.633,0.934,94.934,1,1,3.292
1777493334095,-0.317,0.894,-0.238,74.595,-21.618,25.389,101.033,12.874,0.978,81.710,1,1,3.947
1777493334109,-0.264,0.931,-0.290,63.130,-1.527,26.748,102.723,13.483,1.010,68.580,1,1,3.285
1777493334122,-0.248,0.923,-0.251,56.664,21.000,28.718,103.390,13.767,0.988,66.907,1,1,3.282
1777493334136,-0.204,0.966,-0.222,51.435,31.527,25.679,103.269,13.188,1.012,65.566,1,1,3.258
1777493334149,-0.152,0.995,-0.225,50.290,38.740,22.397,103.128,11.913,1.031,67.317,1,1,3.270
1777493334162,-0.086,0.967,-0.290,50.397,33.511,16.618,104.098,10.017,1.013,62.762,5,1,3.933
1777493334176,-0.078,0.937,-0.345,45.168,27.313,14.794,105.754,8.512,1.001,54.818,5,1,3.297
1777493334190,-0.120,0.951,-0.322,39.534,21.672,14.748,106.556,8.048,1.011,47.436,5,1,3.268
1777493334203,-0.094,0.968,-0.287,37.649,19.435,14.489,106.542,7.310,1.014,44.778,5,1,3.283
1777493334217,-0.115,0.992,-0.282,34.939,17.992,12.260,106.361,7.057,1.038,41.167,5,1,3.271
1777493334230,-0.081,0.985,-0.329,29.313,19.916,9.748,106.931,6.359,1.042,36.755,1,1,3.947
1777493334244,-0.098,0.971,-0.329,22.344,18.962,4.427,107.409,6.111,1.030,29.638,1,1,3.264
1777493334257,-0.107,0.961,-0.327,15.656,17.901,1.840,107.776,6.080,1.021,23.853,1,1,3.264
1777493334271,-0.097,0.932,-0.361,12.130,14.282,-1.855,108.692,5.938,1.004,18.830,1,1,3.279
1777493334284,-0.132,0.958,-0.325,9.031,10.908,-4.786,108.706,6.339,1.020,14.948,1,1,3.262
1777493334297,-0.105,0.952,-0.351,8.237,11.496,-7.962,109.118,6.223,1.020,16.229,1,1,3.966
1777493334312,-0.097,0.947,-0.361,-4.015,9.748,-11.305,109.588,6.018,1.018,15.458,1,1,3.270
1777493334325,-0.096,0.989,-0.216,-0.420,10.412,-10.573,107.621,5.859,1.017,14.845,1,1,3.286
1777493334338,-0.141,0.980,-0.324,0.191,10.802,-14.878,107.801,6.379,1.042,18.386,1,1,3.295
1777493334352,-0.157,0.986,-0.299,6.061,11.244,-12.794,107.543,6.999,1.042,18.079,1,1,3.250
1777493334365,-0.178,0.950,-0.346,10.275,15.779,-9.046,108.208,7.812,1.027,20.889,1,1,3.900
1777493334379,-0.170,0.924,-0.352,12.656,11.794,-5.031,108.921,8.344,1.003,18.016,1,1,3.257
1777493334392,-0.141,0.963,-0.332,13.527,7.763,-3.748,108.943,8.218,1.028,16.040,1,1,3.290
1777493334406,-0.132,0.966,-0.338,15.573,7.779,-4.389,109.028,7.988,1.032,17.952,1,1,3.256
1777493334419,-0.103,0.977,-0.333,17.076,5.168,-7.221,108.968,7.367,1.037,19.247,1,1,3.273
1777493334433,-0.134,0.966,-0.354,17.634,2.481,-9.450,109.280,7.382,1.038,20.160,1,1,3.892
1777493334447,-0.157,0.962,-0.355,17.374,0.725,-9.366,109.544,7.739,1.037,19.751,1,1,3.277
1777493334460,-0.166,0.955,-0.361,17.817,0.557,-7.420,109.859,8.140,1.034,19.308,1,1,3.266
1777493334473,-0.184,0.940,-0.365,18.328,1.023,-5.435,110.233,8.727,1.025,19.144,1,1,3.265
1777493334487,-0.168,0.964,-0.364,18.008,1.626,-4.382,110.349,8.872,1.044,18.604,1,1,3.273
1777493334500,-0.163,0.956,-0.366,18.053,2.511,-3.786,110.517,8.914,1.036,18.616,1,1,3.924
1777493334514,-0.157,0.959,-0.369,17.504,1.939,-4.153,110.652,8.859,1.040,18.094,1,1,3.302
1777493334528,-0.142,0.954,-0.381,16.618,1.504,-3.985,110.961,8.597,1.037,17.155,1,1,3.317
1777493334541,-0.138,0.958,-0.390,15.565,0.305,-4.221,111.280,8.323,1.044,16.130,1,1,3.262
1777493334554,-0.161,0.954,-0.381,15.153,-0.076,-3.855,111.411,8.476,1.040,15.636,1,1,3.260
1777493334568,-0.171,0.943,-0.392,14.237,-0.405,-3.313,111.723,8.753,1.035,14.623,1,1,3.931
