timestamp,ax,ay,az,gx,gy,gz,roll_k,pitch_k,delay_ms,classe_prevista
1774300362234,-0.0490072,-0.270109,0.197494,55.9319,-74.4035,27.5401,0,0,3.2749,-1
1774300362247,-0.0937513,-0.24884,0.235956,70.5327,-78.7996,31.0514,0,0,3.28125,-1
1774300362261,-0.127821,-0.2402,0.249873,82.941,-75.7553,30.7236,0,0,3.33477,-1
1774300362274,-0.14816,-0.244095,0.26162,95.2459,-70.2371,27.3097,0,0,3.3778,-1
1774300362288,-0.159249,-0.269017,0.269117,106.808,-63.7895,21.8306,0,0,3.24547,-1
1774300362302,-0.163422,-0.308553,0.269527,117.237,-56.9635,15.8383,0,0,4.53399,-1
1774300362316,-0.162269,-0.350673,0.267013,126.675,-50.1385,10.7271,0,0,3.24677,-1
1774300362329,-0.157353,-0.393987,0.263081,135.337,-43.7361,6.41011,0,0,3.2564,-1
1774300362342,-0.152075,-0.439123,0.258558,143.423,-37.7811,2.77167,0,0,3.2561,-1
1774300362356,-0.148892,-0.491249,0.252406,150.983,-32.2019,-0.283301,0,0,3.33416,0
1774300362369,-0.151338,-0.555427,0.242386,157.496,-26.7408,-3.05559,0,0,3.32349,0
1774300362383,-0.155789,-0.628186,0.227383,162.623,-21.2008,-5.5725,0,0,3.29701,0
1774300362397,-0.159566,-0.713953,0.205664,165.655,-15.4524,-8.63526,0,0,3.87029,0
1774300362410,-0.156191,-0.791456,0.175574,167.187,-9.77435,-11.8349,0,0,3.28273,0
1774300362423,-0.140518,-0.850793,0.144684,168.735,-4.40911,-13.9252,0,0,3.26984,5
1774300362437,-0.106997,-0.92269,0.113854,169.646,-0.107695,-15.0989,0,0,3.29171,5
1774300362450,-0.0610797,-1.00094,0.0793682,168.833,2.49602,-16.2514,0,0,3.30829,5
1774300362464,-0.0153954,-1.06723,0.0402588,166.248,3.40209,-17.3976,0,0,3.33451,5
1774300362477,0.0190097,-1.11623,-0.000694112,162.532,3.14885,-18.2348,0,0,3.28386,5
1774300362492,0.0331922,-1.13633,-0.0428522,159.043,2.4572,-18.9686,0,0,3.34088,5
1774300362505,0.0285218,-1.13832,-0.0819714,157.026,2.08398,-20.3918,0,0,3.26523,5
1774300362519,0.00843657,-1.13492,-0.11743,156.698,2.62897,-23.1431,0,0,3.86114,5
1774300362532,-0.0173899,-1.14352,-0.150095,156.886,4.33592,-25.784,0,0,3.26843,5
1774300362546,-0.0376061,-1.15748,-0.184038,156.482,6.94686,-26.9286,0,0,3.31399,5
1774300362559,-0.0449643,-1.17056,-0.22036,155.052,9.81393,-26.7221,0,0,3.30003,5
1774300362573,-0.0389241,-1.17976,-0.258286,152.491,12.1698,-26.1891,0,0,3.30358,5
1774300362586,-0.0275229,-1.18536,-0.298783,148.663,13.522,-26.1509,0,0,3.30475,5
1774300362599,-0.0208106,-1.18795,-0.340118,143.552,13.9321,-26.4858,0,0,3.27114,5
1774300362613,-0.0226861,-1.18595,-0.380874,137.289,13.8076,-26.4722,0,0,3.4289,5
1774300362626,-0.0296192,-1.18291,-0.419684,129.969,13.5899,-25.6384,0,0,3.28508,5
1774300362640,-0.0362031,-1.18374,-0.45366,121.056,13.4105,-23.8797,0,0,3.27151,5
1774300362653,-0.0375488,-1.1863,-0.483232,111.361,13.0543,-21.3629,0,0,3.3098,5
1774300362667,-0.0398809,-1.19385,-0.508182,100.675,12.6296,-17.8751,0,0,3.30701,5
1774300362680,-0.0572738,-1.19652,-0.526041,88.9407,12.8418,-11.7624,0,0,3.36988,5
1774300362693,-0.0718504,-1.33007,-0.444231,69.6314,11.2219,-5.27607,0,0,3.27232,5
1774300362707,-0.0872016,-1.34845,-0.404256,59.3988,10.5394,-3.96051,0,0,4.02084,5
1774300362721,-0.0720275,-1.27544,-0.371677,46.4033,10.3493,-1.9399,0,0,3.26412,5
1774300362734,-0.0739649,-1.24213,-0.358839,34.0293,8.82996,0.926661,0,0,3.26723,5
1774300362748,-0.0795193,-1.23402,-0.356075,25.1549,8.19625,1.73672,0,0,3.2729,5
1774300362761,-0.0819019,-1.22806,-0.349845,19.2994,8.29157,1.99195,0,0,3.2609,5
1774300362774,-0.0795059,-1.20683,-0.345356,15.0486,8.83006,2.48131,0,0,3.30443,5
1774300362788,-0.0765704,-1.18389,-0.340209,12.9335,9.18333,3.46897,0,0,3.25812,5
1774300362801,-0.072333,-1.17104,-0.334136,11.8323,9.18506,3.87083,0,0,3.29675,5
1774300362814,-0.0710431,-1.16262,-0.319863,10.8582,9.17325,3.7221,0,0,3.27408,5
1774300362828,-0.0685665,-1.1651,-0.314079,9.90555,8.77551,3.6188,0,0,3.33423,5
1774300362841,-0.0656249,-1.15266,-0.301981,9.24845,8.30393,3.40171,0,0,3.30203,5
1774300362855,-0.062362,-1.14617,-0.295298,8.37179,7.85003,3.23211,0,0,3.27555,5
1774300362868,-0.0591332,-1.13917,-0.288252,7.86227,7.39849,3.05457,0,0,3.35355,5
1774300362882,-0.0555751,-1.12969,-0.279524,7.28409,6.97844,2.95879,0,0,3.26186,5
1774300362897,-0.0529696,-1.12431,-0.272832,6.65798,6.65652,2.88787,0,0,4.97709,5
1774300362910,-0.0522617,-1.11911,-0.267585,6.06846,6.41068,2.87181,0,0,3.28299,5
1774300362923,-0.0509447,-1.10981,-0.257587,5.6399,6.0803,2.72284,0,0,3.38284,5
1774300362937,-0.0483743,-1.1039,-0.248094,5.13852,5.72699,2.53632,0,0,3.27121,5
1774300362950,-0.0470713,-1.10016,-0.240273,4.69442,5.35979,2.33805,0,0,3.27766,5
1774300362964,-0.0445391,-1.09785,-0.232311,4.37303,4.99708,2.1291,0,0,3.2799,5
1774300362977,-0.0430308,-1.09301,-0.226301,4.0909,4.68456,1.91009,0,0,3.29027,5
1774300362990,-0.0404996,-1.09041,-0.220921,3.79124,4.39745,1.74383,0,0,3.29456,5
1774300363004,-0.0392487,-1.08593,-0.215557,3.52311,4.1167,1.58353,0,0,3.27242,5
1774300363017,-0.0372562,-1.08368,-0.208732,3.21349,3.8428,1.45031,0,0,3.2939,5
1774300363031,-0.0355796,-1.08202,-0.206362,2.9179,3.60709,1.37481,0,0,3.27643,5
1774300363045,-0.0343013,-1.08098,-0.20005,2.69647,3.38725,1.34259,0,0,3.77221,5
1774300363058,-0.0314556,-1.07735,-0.196904,2.5021,3.15321,1.37953,0,0,3.30327,5
1774300363072,-0.0291672,-1.07187,-0.194199,2.25651,2.94351,1.40795,0,0,3.29532,5
1774300363085,-0.0275396,-1.07203,-0.192766,1.95015,2.73704,1.47807,0,0,3.29214,5
1774300363099,-0.0268007,-1.06656,-0.185661,1.76991,2.52676,1.47737,0,0,3.26788,5
1774300363112,-0.0267602,-1.06467,-0.183788,1.34437,2.35318,1.529,0,0,3.28225,5
1774300363125,-0.0273652,-1.06759,-0.181526,1.06147,2.16921,1.51902,0,0,3.30523,5
1774300363139,-0.02745,-1.06386,-0.181735,0.91618,1.99602,1.53273,0,0,3.89075,5
1774300363153,-0.0275204,-1.05774,-0.182396,0.737494,1.85527,1.54354,0,0,3.27621,5
1774300363166,-0.0275984,-1.05394,-0.181559,0.47802,1.70744,1.54945,0,0,3.27568,5
1774300363179,-0.0271158,-1.05178,-0.180834,0.258403,1.58077,1.56616,0,0,3.30686,5
1774300363193,-0.0264082,-1.05011,-0.177785,0.0558357,1.46464,1.61279,0,0,3.27093,5
1774300363206,-0.0264278,-1.04807,-0.176241,-0.101512,1.38844,1.68121,0,0,3.38082,5
1774300363220,-0.0256758,-1.04699,-0.174422,-0.214469,1.29425,1.73851,0,0,3.29594,5
1774300363234,-0.0256312,-1.04222,-0.170094,-0.306092,1.1925,1.72577,0,0,3.9766,5
1774300363247,-0.0242083,-1.04373,-0.165453,-0.503504,1.13973,1.77628,0,0,3.30179,5
1774300363261,-0.0242601,-1.04115,-0.163295,-0.633726,1.04451,1.77127,0,0,3.27551,5
1774300363274,-0.023379,-1.04527,-0.163339,-0.820025,0.979486,1.80637,0,0,3.35838,5
1774300363288,-0.0237345,-1.03786,-0.155575,-0.59671,0.866286,1.69903,0,0,3.31268,5
1774300363302,-0.0242989,-1.0271,-0.152589,-0.754669,0.76672,1.61956,0,0,3.31038,5
1774300363315,-0.0233952,-1.03261,-0.148515,-0.996267,0.63891,1.5364,0,0,3.27781,5
1774300363329,-0.0226059,-1.03428,-0.148704,-1.12667,0.521271,1.49646,0,0,3.29969,5
1774300363342,-0.0208465,-1.03295,-0.141552,-1.1217,0.407663,1.4382,0,0,3.27843,5
1774300363356,-0.0206393,-1.03159,-0.146268,-1.30801,0.342826,1.46073,0,0,3.70416,5
1774300363369,-0.0194579,-1.03363,-0.142472,-1.28388,0.265782,1.39377,0,0,3.29577,5
1774300363383,-0.0226671,-1.02497,-0.150556,-1.33947,0.210619,1.32158,0,0,3.30956,5
1774300363396,-0.0210125,-1.02689,-0.145452,-1.37609,0.171398,1.29026,0,0,3.31045,5
1774300363410,-0.0204134,-1.01628,-0.141811,-1.45349,0.125384,1.22902,0,0,3.27953,5
1774300363423,-0.0183021,-1.02176,-0.14209,-1.94619,0.0969399,1.30781,0,0,3.29419,5
1774300363436,-0.0182811,-1.02383,-0.141994,-2.0781,0.0392601,1.33379,0,0,3.27429,5
1774300363450,-0.01934,-1.01905,-0.141496,-2.33707,0.0803069,1.38401,0,0,3.79803,5
1774300363464,-0.0201816,-1.02146,-0.141928,-2.66244,0.102351,1.48836,0,0,3.27916,5
1774300363477,-0.0194588,-1.02251,-0.141892,-2.96613,0.110312,1.60356,0,0,3.61977,5
1774300363491,-0.0212351,-1.02563,-0.144197,-3.45061,0.170496,1.78038,0,0,3.29851,5
1774300363504,-0.0257428,-1.01841,-0.141926,-3.62188,0.143804,1.88134,0,0,3.27801,5
1774300363517,-0.0260585,-1.01371,-0.139349,-4.24129,0.0740765,2.07126,0,0,3.29201,5
1774300363531,-0.0208386,-1.02324,-0.139661,-4.76386,-0.0272797,2.41453,0,0,3.2801,5
1774300363545,-0.0146616,-1.01523,-0.140664,-5.30849,-0.212015,2.96378,0,0,3.92697,5
1774300363558,-0.00728127,-1.01749,-0.13591,-6.22166,-0.495149,3.59826,0,0,3.27645,5
1774300363572,-0.00642878,-1.02499,-0.129901,-7.1945,-0.797513,4.20399,0,0,3.28843,5
1774300363585,-0.0141037,-1.05818,-0.122584,-9.18882,-0.78532,3.85085,0,0,3.3094,5
1774300363598,-0.0196914,-1.05667,-0.122092,-11.5007,-0.611098,3.12101,0,0,3.27688,5
1774300363612,-0.0236676,-1.06911,-0.117136,-14.2109,-0.325471,2.30451,0,0,3.29779,5
1774300363625,-0.029595,-1.07781,-0.113497,-17.5197,-0.0335999,1.32529,0,0,3.27306,5
1774300363639,-0.0324118,-1.09705,-0.113626,-21.1696,0.23205,0.244269,0,0,3.29279,5
1774300363652,-0.0346568,-1.10597,-0.111689,-25.1149,0.584709,-0.986778,0,0,3.28162,5
1774300363666,-0.0359494,-1.11527,-0.112741,-29.3132,0.852928,-2.28065,0,0,3.71171,5
1774300363680,-0.0369078,-1.12567,-0.112316,-33.9668,1.09326,-3.59187,0,0,3.45927,5
1774300363693,-0.038497,-1.13952,-0.110372,-39.1181,1.30041,-5.06547,0,0,3.26893,5
1774300363706,-0.0398458,-1.1534,-0.108086,-44.7498,1.43085,-6.58957,0,0,3.29434,5
1774300363720,-0.0437837,-1.16769,-0.109349,-50.8193,1.62463,-8.23543,0,0,3.2781,5
1774300363733,-0.0409398,-1.18506,-0.107866,-57.4312,1.78399,-9.69305,0,0,3.28936,5
1774300363747,-0.0283968,-1.20331,-0.108114,-64.5796,1.73702,-10.7375,0,0,3.27658,5
1774300363761,-0.0215063,-1.22188,-0.10771,-72.3145,1.60448,-11.5272,0,0,3.91962,5
1774300363774,-0.0164015,-1.24131,-0.109064,-80.366,1.4571,-12.1952,0,0,3.28075,5
1774300363787,-0.0105269,-1.25927,-0.117267,-88.717,1.13472,-12.9768,0,0,3.30834,5
1774300363801,-0.000670308,-1.26808,-0.129959,-96.5648,0.702406,-14.2177,0,0,3.30314,5
1774300363814,0.0177028,-1.2757,-0.14247,-104.296,-0.383056,-15.7054,0,0,3.28149,5
1774300363827,0.0365537,-1.27592,-0.156238,-110.52,-1.93473,-16.8845,0,0,3.29243,5
1774300363841,0.0563204,-1.26683,-0.167855,-116.071,-4.03993,-17.6039,0,0,3.2763,5
1774300363854,0.0718805,-1.25442,-0.171693,-120.854,-6.70958,-17.8034,0,0,3.34364,5
1774300363868,0.0829697,-1.22304,-0.147774,-124.784,-10.073,-17.2462,0,0,3.27886,5
1774300363881,0.0976419,-1.11392,-0.117276,-124.847,-13.4931,-15.1163,0,0,3.34284,5
1774300363895,0.104604,-0.980046,-0.108474,-117.456,-17.32,-11.9399,0,0,3.2944,3
1774300363908,0.109479,-0.952443,-0.0908431,-107.342,-21.1536,-9.02904,0,0,3.28186,3
1774300363921,0.109389,-0.932805,-0.070075,-96.7613,-25.0389,-6.45401,0,0,3.28992,3
1774300363935,0.106569,-0.909606,-0.0513791,-86.2781,-28.5915,-3.9866,0,0,3.27697,3
1774300363948,0.0991006,-0.884593,-0.0364263,-75.8683,-31.4054,-1.5895,0,0,3.34169,3
1774300363961,0.0906452,-0.853914,-0.0216684,-65.0652,-33.4375,0.659857,0,0,3.27884,3
1774300363975,0.0806805,-0.824802,-0.00693667,-53.5849,-34.7044,2.27093,0,0,3.32205,3
1774300363988,0.071899,-0.800454,0.00709739,-41.52,-35.3033,2.84449,0,0,3.31756,3
1774300364002,0.0633841,-0.783844,0.0204323,-29.1647,-35.288,2.43145,0,0,3.27916,3
1774300364015,0.0562345,-0.771313,0.0320949,-16.732,-34.7657,1.38645,0,0,3.30725,3
1774300364028,0.0504973,-0.764818,0.0418488,-4.31124,-33.8647,0.139736,0,0,3.28236,3
1774300364042,0.0448616,-0.762729,0.0510907,7.96006,-32.6579,-0.961262,0,0,3.30038,2
1774300364056,0.0393229,-0.765482,0.0589567,20.1155,-31.2311,-1.98894,0,0,3.27516,2
1774300364069,0.0330014,-0.774831,0.0658062,32.0139,-29.5739,-3.07544,0,0,3.27953,2
1774300364082,0.0244793,-0.793316,0.0703808,43.3455,-27.5879,-4.30011,0,0,3.33273,2
1774300364096,0.0134578,-0.819288,0.0719794,53.8878,-25.0334,-5.65047,0,0,3.28814,2
1774300364109,0.00149831,-0.855347,0.0692906,63.2594,-21.7653,-7.33487,0,0,3.28518,2
1774300364123,-0.0086783,-0.903612,0.061082,70.8712,-17.8374,-9.57605,0,0,3.3097,2
1774300364136,-0.013082,-0.941705,0.0468903,77.3796,-13.4071,-11.7164,0,0,3.30475,5
1774300364149,-0.00802561,-0.973007,0.0331164,84.0432,-8.88702,-12.8614,0,0,3.27136,5
1774300364163,0.00810589,-1.02034,0.0166243,89.7502,-4.86584,-13.7696,0,0,3.27664,5
1774300364176,0.0318279,-1.06762,-0.00392982,93.8495,-1.81354,-14.9048,0,0,3.27619,5
1774300364189,0.0525265,-1.10483,-0.0299164,96.7191,0.368312,-15.6886,0,0,3.29968,5
1774300364203,0.0587816,-1.16953,-0.058653,97.5142,2.16445,-15.6046,0,0,3.29682,5
1774300364216,0.0622114,-1.18183,-0.0884924,99.5599,3.78233,-16.3226,0,0,3.27507,5
1774300364230,0.0589035,-1.18773,-0.115062,101.809,5.51928,-18.5957,0,0,3.28719,5
1774300364243,0.049601,-1.19527,-0.14078,103.508,7.46837,-21.3738,0,0,3.31336,5
1774300364256,0.0426166,-1.20408,-0.166334,105.181,9.42117,-23.8162,0,0,3.31931,5
1774300364270,0.0420661,-1.21064,-0.192521,106.029,11.0572,-25.4532,0,0,3.28527,5
1774300364283,0.0472945,-1.21881,-0.220104,105.903,12.0166,-26.4567,0,0,3.28234,5
1774300364297,0.0543336,-1.21764,-0.247666,104.879,12.1184,-27.0237,0,0,3.30892,5
1774300364310,0.0578191,-1.22173,-0.276307,102.687,11.4519,-27.3546,0,0,3.27182,5
1774300364323,0.054447,-1.21897,-0.305746,99.4615,10.3874,-27.2448,0,0,3.28394,5
1774300364337,0.0443252,-1.21275,-0.334773,95.528,9.37695,-26.4535,0,0,3.27249,5
1774300364350,0.0319767,-1.20626,-0.363171,90.8894,8.69468,-25.0827,0,0,3.29597,5
1774300364364,0.0209477,-1.20769,-0.390733,85.3763,8.29989,-23.3884,0,0,3.27443,5
1774300364377,0.0122162,-1.20535,-0.416684,79.0412,8.11822,-21.2784,0,0,3.27462,5
1774300364390,0.000204239,-1.20686,-0.442375,71.6595,8.30727,-18.5626,0,0,3.32632,5
1774300364404,-0.0169091,-1.20648,-0.465812,63.1992,9.07961,-14.5442,0,0,3.28286,5
1774300364417,-0.0163404,-1.16345,-0.459182,54.9069,10.2137,-10.2344,0,0,3.30562,5
1774300364431,-0.00636896,-1.2875,-0.459013,37.7962,8.9574,-6.13506,0,0,3.28056,5
1774300364444,-0.00948568,-1.23121,-0.384102,32.058,6.74906,-4.64296,0,0,3.3191,5
1774300364457,0.00536432,-1.17816,-0.33963,20.6791,6.18637,-1.50597,0,0,3.27992,5
1774300364471,0.000752194,-1.17912,-0.322919,9.96247,4.51883,1.66915,0,0,3.3291,5
1774300364484,-0.00828132,-1.15851,-0.322848,2.41565,4.26964,2.95043,0,0,3.29005,5
1774300364498,-0.01645,-1.15012,-0.320634,-1.73581,4.8193,3.30689,0,0,3.29531,5
1774300364511,-0.0213466,-1.1407,-0.313189,-3.80164,5.46229,3.42027,0,0,3.28047,5
1774300364524,-0.0199006,-1.12206,-0.312272,-5.17269,5.44749,3.65575,0,0,3.26903,5
1774300364538,-0.0186032,-1.12337,-0.306506,-5.58562,5.1642,3.6802,0,0,3.28171,5
1774300364551,-0.0214198,-1.1187,-0.296529,-5.40419,4.9683,3.26953,0,0,3.27329,5
1774300364565,-0.0220632,-1.11295,-0.286497,-5.21967,4.88658,2.77912,0,0,3.31277,5
1774300364578,-0.0227533,-1.10811,-0.278207,-5.12727,4.69769,2.34577,0,0,3.3102,5
1774300364592,-0.0208507,-1.10327,-0.270535,-4.93259,4.44617,1.99624,0,0,3.73649,5
1774300364605,-0.0179956,-1.09721,-0.262441,-4.72142,4.07774,1.68559,0,0,3.28527,5
1774300364619,-0.0154576,-1.09257,-0.256494,-4.52852,3.60366,1.49898,0,0,3.28029,5
1774300364632,-0.0141837,-1.08679,-0.249366,-4.3717,3.23538,1.34382,0,0,3.34442,5
1774300364645,-0.0131364,-1.08261,-0.243362,-4.33244,2.97854,1.28557,0,0,3.29508,5
1774300364659,-0.012658,-1.07766,-0.233915,-4.31593,2.81147,1.23572,0,0,3.29505,5
1774300364672,-0.011389,-1.07381,-0.224646,-4.29564,2.66404,1.21651,0,0,3.27632,5
1774300364686,-0.0103358,-1.07,-0.219124,-4.33258,2.53045,1.2125,0,0,3.27519,5
1774300364699,-0.00937128,-1.06628,-0.207043,-4.24371,2.38637,1.20914,0,0,3.29805,5
1774300364712,-0.00948462,-1.06253,-0.195608,-4.25915,2.28763,1.23381,0,0,3.30647,5
1774300364726,-0.00877088,-1.06462,-0.189957,-4.22449,2.25951,1.24895,0,0,3.28814,5
1774300364739,-0.00855813,-1.05979,-0.185793,-4.06803,2.27663,1.25126,0,0,3.27581,5
1774300364753,-0.00813048,-1.0561,-0.182504,-4.00598,2.26283,1.3091,0,0,3.29618,5
1774300364766,-0.0074119,-1.05586,-0.177619,-4.00693,2.25408,1.37226,0,0,3.27151,5
1774300364779,-0.00708776,-1.05533,-0.173428,-3.97999,2.18845,1.43145,0,0,3.26701,5
1774300364793,-0.00674576,-1.05367,-0.171919,-3.94301,2.13377,1.51001,0,0,3.67371,5
1774300364806,-0.00665361,-1.05095,-0.170091,-3.87983,2.07831,1.56876,0,0,3.26301,5
1774300364820,-0.00495328,-1.05017,-0.166507,-3.84547,1.9643,1.64904,0,0,3.34684,5
1774300364833,-0.00367965,-1.04799,-0.163549,-3.82459,1.84385,1.71154,0,0,3.27468,5
1774300364847,-0.00335858,-1.05142,-0.163807,-3.86869,1.75198,1.78938,0,0,3.31434,5
1774300364860,-0.00420465,-1.04964,-0.160892,-3.75145,1.63658,1.79563,0,0,3.27697,5
1774300364873,-0.00367911,-1.04883,-0.158436,-3.74826,1.51352,1.86618,0,0,3.25968,5
1774300364887,-0.00442575,-1.04654,-0.157412,-3.77437,1.38966,1.89381,0,0,3.26984,5
1774300364900,-0.00363429,-1.05073,-0.158162,-3.79088,1.30315,1.98241,0,0,3.29599,5
1774300364913,-0.00381702,-1.04106,-0.153861,-3.57781,1.20607,1.97826,0,0,3.28095,5
1774300364927,-0.00426935,-1.04055,-0.153987,-3.79932,1.12643,2.05355,0,0,3.29553,5
1774300364940,-0.00321781,-1.04592,-0.150146,-3.79302,1.03499,2.07795,0,0,3.34632,5
1774300364954,-0.00361093,-1.04264,-0.154417,-3.66847,0.984212,2.12967,0,0,3.28036,5
1774300364967,-0.00415769,-1.03739,-0.150824,-3.52821,0.895606,2.12668,0,0,3.26582,5
1774300364980,-0.00495814,-1.03865,-0.15057,-3.56409,0.853505,2.1624,0,0,3.27551,5
1774300364994,-0.00418611,-1.03459,-0.141284,-3.35903,0.763668,2.1323,0,0,3.26581,5
1774300365007,-0.00441944,-1.03437,-0.146925,-3.45279,0.708843,2.16214,0,0,3.3074,5
1774300365021,-0.00344675,-1.03328,-0.139474,-3.26126,0.59629,2.09395,0,0,3.26397,5
1774300365034,-0.00490823,-1.03557,-0.143892,-3.38876,0.551282,2.09896,0,0,3.30762,5
1774300365047,-0.00538758,-1.04151,-0.141934,-3.16057,0.4587,1.99278,0,0,3.30557,5
1774300365061,-0.00690297,-1.03152,-0.141118,-2.84541,0.375166,1.92211,0,0,3.2837,5
1774300365074,-0.00719899,-1.03077,-0.139944,-2.90375,0.313444,1.86825,0,0,3.28436,5
1774300365087,-0.00726853,-1.03327,-0.140454,-2.82651,0.23506,1.80498,0,0,3.27796,5
1774300365101,-0.00681186,-1.0293,-0.140002,-2.68894,0.170492,1.7517,0,0,3.30125,5
1774300365114,-0.00632178,-1.02774,-0.137915,-2.70768,0.107406,1.69155,0,0,3.26229,5
1774300365128,-0.00682472,-1.02883,-0.139828,-2.75362,0.0568496,1.66603,0,0,3.28358,5
1774300365141,-0.00731635,-1.03107,-0.139916,-2.75331,-0.000290729,1.62139,0,0,3.27188,5
1774300365154,-0.00762632,-1.02966,-0.140524,-2.70249,-0.0606487,1.58311,0,0,3.2789,5
1774300365168,-0.00750634,-1.02709,-0.139289,-2.71875,-0.112055,1.56967,0,0,3.27244,5
1774300365181,-0.0067937,-1.02569,-0.13891,-2.7675,-0.161862,1.5587,0,0,3.32638,5
1774300365194,-0.00731872,-1.02475,-0.135697,-2.81907,-0.170766,1.55819,0,0,3.28803,5
1774300365208,-0.00776739,-1.02162,-0.132901,-2.86048,-0.19373,1.54358,0,0,3.29479,5
1774300365221,-0.00786545,-1.02175,-0.130367,-3.01389,-0.188001,1.56404,0,0,3.2876,5
1774300365235,-0.00787381,-1.02111,-0.129684,-3.12786,-0.167179,1.62404,0,0,3.26549,5
1774300365248,-0.006686,-1.02297,-0.130162,-3.27056,-0.147097,1.73419,0,0,3.31497,5
1774300365261,-0.00710895,-1.01897,-0.126894,-3.35344,-0.155974,1.81975,0,0,3.2984,5
1774300365275,-0.00744935,-1.01586,-0.127537,-3.81661,-0.159642,2.01826,0,0,3.27177,5
1774300365288,-0.0118428,-1.01607,-0.128002,-4.04484,-0.127565,2.18337,0,0,3.2854,5
1774300365302,-0.0142823,-1.01472,-0.125351,-4.40457,-0.111418,2.23603,0,0,3.30482,5
1774300365315,-0.010444,-1.0232,-0.12492,-4.85716,-0.112019,2.48655,0,0,3.28777,5
1774300365328,-0.00344232,-1.01426,-0.126663,-5.23342,0.0312839,2.89644,0,0,3.27853,5
1774300365342,-0.00193581,-1.01688,-0.122715,-5.86389,0.0826242,3.26407,0,0,3.27703,5
1774300365355,-0.000196238,-1.01937,-0.119484,-6.53564,0.0377401,3.76436,0,0,3.27255,5
1774300365368,0.00364535,-1.0201,-0.117152,-7.34013,-0.103966,4.37961,0,0,3.26927,5
1774300365382,0.00505543,-1.0217,-0.114879,-8.32643,-0.358899,4.82718,0,0,3.27025,5
1774300365395,-0.000995239,-1.06295,-0.103641,-10.6122,-0.237716,4.15006,0,0,3.31155,5
1774300365409,-0.00196602,-1.07009,-0.10654,-13.3705,-0.110912,3.23389,0,0,3.32075,5
1774300365422,-0.00659922,-1.07185,-0.105351,-16.5448,0.120535,2.37425,0,0,3.27877,5
1774300365435,-0.0135068,-1.08919,-0.105537,-20.579,0.277341,1.52172,0,0,3.2844,5
1774300365449,-0.0174965,-1.09745,-0.104766,-24.6019,0.458322,0.358187,0,0,3.27368,5
1774300365462,-0.0213972,-1.10446,-0.104807,-29.0226,0.690382,-0.950318,0,0,3.2622,5
1774300365475,-0.0263764,-1.11338,-0.105327,-33.6731,0.924411,-2.42778,0,0,3.26488,5
1774300365489,-0.0339139,-1.12477,-0.106529,-38.8734,1.22025,-4.14436,0,0,3.25842,5
1774300365502,-0.0381429,-1.13556,-0.10675,-44.2602,1.58898,-6.14703,0,0,3.55266,5
1774300365516,-0.034222,-1.1568,-0.108808,-50.3811,1.89378,-8.0335,0,0,3.2759,5
1774300365529,-0.0264474,-1.16905,-0.107348,-56.8086,1.97938,-9.70583,0,0,3.28631,5
1774300365543,-0.0211161,-1.19325,-0.112327,-64.1962,1.93943,-11.0707,0,0,3.28181,5
1774300365556,-0.015324,-1.20531,-0.107543,-71.7915,1.80281,-12.3055,0,0,3.27547,5
1774300365569,-0.0108849,-1.2281,-0.111851,-80.256,1.61006,-13.4718,0,0,3.28205,5
1774300365583,-0.00538003,-1.24403,-0.117145,-88.3767,1.33134,-14.7779,0,0,3.2719,5
1774300365596,0.0114898,-1.24853,-0.129116,-96.0351,0.568568,-16.7724,0,0,3.28151,5
1774300365609,0.0324479,-1.25173,-0.140787,-103.084,-0.827098,-18.4607,0,0,3.30058,5
1774300365623,0.0523186,-1.24882,-0.15371,-109.276,-2.72724,-19.415,0,0,3.3014,5
1774300365636,0.0714484,-1.24066,-0.162832,-114.519,-5.19647,-20.132,0,0,3.28016,5
1774300365650,0.0864211,-1.22632,-0.163687,-118.965,-8.10868,-20.5387,0,0,3.31499,5
1774300365663,0.0939912,-1.16794,-0.136829,-121.439,-11.4497,-20.0978,0,0,3.29088,5
1774300365676,0.103718,-1.05641,-0.118172,-119.35,-14.8761,-17.5416,0,0,3.28903,5
1774300365690,0.110916,-0.969564,-0.104367,-110.548,-18.6019,-14.5152,0,0,3.27612,3
1774300365703,0.113091,-0.928283,-0.0886343,-100.513,-22.0475,-11.5036,0,0,3.65472,3
1774300365717,0.114135,-0.896763,-0.067216,-89.9603,-25.5432,-8.37184,0,0,3.29986,3
1774300365730,0.112154,-0.87008,-0.0499801,-79.2959,-28.7883,-5.28688,0,0,3.26379,3
1774300365744,0.106705,-0.846229,-0.0342454,-68.7267,-31.5329,-2.5912,0,0,3.29323,3
1774300365757,0.0997109,-0.82071,-0.0198928,-57.9774,-33.7,-0.434234,0,0,3.27288,3
1774300365770,0.0903749,-0.798858,-0.00638136,-46.8904,-35.2159,1.15258,0,0,3.30244,3
1774300365784,0.0794826,-0.779948,0.0061014,-35.4567,-35.966,1.97598,0,0,3.28855,3
1774300365797,0.0682018,-0.76668,0.0181664,-23.7013,-35.9649,2.02186,0,0,3.27186,3
1774300365811,0.0564214,-0.759587,0.0290631,-11.9018,-35.209,1.46742,0,0,3.35605,3
1774300365824,0.0460744,-0.757043,0.0388427,-0.183597,-33.7804,0.709858,0,0,3.26082,2
1774300365837,0.0362867,-0.759031,0.0476287,11.4438,-31.8218,-0.102836,0,0,3.28068,2
1774300365851,0.0279413,-0.766078,0.0556781,22.9911,-29.4699,-1.0014,0,0,3.27819,2
1774300365864,0.0206442,-0.778806,0.0620516,34.3454,-26.7832,-1.96602,0,0,3.26368,2
1774300365877,0.0146058,-0.800438,0.0664915,45.2619,-23.7989,-3.00971,0,0,3.26688,2
1774300365891,0.00926922,-0.831277,0.0674166,55.4162,-20.5384,-4.24662,0,0,3.35362,2
1774300365904,0.00607719,-0.872074,0.0638598,64.3492,-17.0557,-5.90742,0,0,3.34592,5
1774300365918,0.0040177,-0.918454,0.050924,71.8636,-13.4113,-8.35114,0,0,3.30066,5
1774300365931,0.00734402,-0.954542,0.0361623,78.4143,-9.75638,-10.2193,0,0,3.26307,5
1774300365944,0.0185005,-0.995725,0.0195798,84.3789,-6.34969,-11.0415,0,0,3.28381,5
1774300365958,0.0393014,-1.04281,0.000850376,89.119,-3.79093,-11.6798,0,0,3.26962,5
1774300365971,0.0612961,-1.08555,-0.02684,92.6513,-2.30186,-12.9712,0,0,3.27366,5
1774300365985,0.0709579,-1.11449,-0.0527534,93.7456,-1.4033,-13.9919,0,0,3.25949,5
1774300365998,0.0746132,-1.14037,-0.0809503,94.6154,-0.743104,-14.9823,0,0,3.2809,5
1774300366011,0.0699729,-1.14999,-0.107231,95.1846,0.0633194,-16.6125,0,0,3.30881,5
1774300366025,0.058809,-1.15884,-0.133077,95.0017,1.10497,-18.9336,0,0,3.27714,5
1774300366038,0.0471618,-1.16444,-0.158679,94.8676,2.13615,-21.6769,0,0,3.34044,5
1774300366052,0.0398676,-1.16734,-0.184806,94.9196,3.05725,-24.3382,0,0,3.28201,5
1774300366065,0.0386366,-1.17132,-0.211029,94.6462,3.62652,-26.4028,0,0,3.30033,5
1774300366078,0.0400859,-1.16765,-0.237899,94.1115,3.60851,-27.5414,0,0,3.2744,5
1774300366092,0.0416107,-1.16413,-0.266658,92.9689,2.97149,-27.6764,0,0,3.30209,5
1774300366105,0.040912,-1.16071,-0.295237,91.093,1.74034,-27.0085,0,0,3.26146,5
1774300366118,0.0368486,-1.15516,-0.323816,88.4326,0.15991,-26.1012,0,0,3.29868,5
1774300366132,0.0293649,-1.15592,-0.352298,84.6814,-1.47917,-25.1509,0,0,3.27177,5
1774300366145,0.0201691,-1.15442,-0.379802,79.886,-2.93852,-23.7735,0,0,3.28042,5
1774300366159,0.00884505,-1.15406,-0.406412,73.9912,-3.93451,-21.3897,0,0,3.31994,5
1774300366172,-0.00489855,-1.15495,-0.431293,67.3295,-4.35652,-18.0044,0,0,3.26827,5
1774300366185,-0.0227923,-1.16135,-0.454701,59.766,-3.94216,-13.5656,0,0,3.30377,5
1774300366199,0.01252,-1.28549,-0.440507,49.8272,-3.26202,-7.5551,0,0,3.27171,5
1774300366213,0.0134458,-1.18773,-0.414986,42.3625,-2.50271,-3.52599,0,0,3.68161,5
1774300366226,0.0276026,-1.1521,-0.374128,31.196,-2.09556,0.493355,0,0,3.27105,1
1774300366239,0.0225411,-1.16477,-0.356026,20.9304,-2.63272,3.49981,0,0,3.2621,1
1774300366253,0.0100456,-1.15444,-0.352521,13.2633,-2.32747,4.45061,0,0,3.30929,1
1774300366266,0.00076586,-1.13984,-0.349948,8.6357,-1.36538,4.67411,0,0,3.26986,2
1774300366279,-0.00127489,-1.12827,-0.340922,5.60616,0.181603,4.71423,0,0,3.28714,2
1774300366293,-0.00261781,-1.10819,-0.332963,4.02127,0.790146,5.01072,0,0,3.27677,2
1774300366306,-0.0033468,-1.09942,-0.324616,3.08235,1.06097,5.0084,0,0,3.28303,2
1774300366320,-0.00462046,-1.09951,-0.313537,2.53779,1.09651,4.69835,0,0,3.30351,5
1774300366333,-0.00465329,-1.09659,-0.300242,2.11583,1.13735,4.41426,0,0,3.31388,5
1774300366346,-0.00372376,-1.09344,-0.291457,1.67772,1.16133,4.21718,0,0,3.29547,5
1774300366360,-0.00252525,-1.0866,-0.286793,1.39221,1.1587,4.10951,0,0,3.27831,5
1774300366373,0.000179669,-1.08215,-0.27912,1.11416,1.11683,4.03015,0,0,3.28436,5
1774300366386,0.00166658,-1.07941,-0.272593,0.836284,1.09015,4.01133,0,0,3.26638,5
1774300366400,0.00269341,-1.0756,-0.265487,0.591981,1.08295,3.98971,0,0,3.27386,5
1774300366414,0.00288525,-1.07147,-0.257817,0.312568,1.10528,3.95133,0,0,3.80957,5
1774300366427,0.00196898,-1.0672,-0.249553,0.0719506,1.14347,3.93008,0,0,3.26347,5
1774300366440,0.00175475,-1.06254,-0.241671,-0.0947961,1.16069,3.85436,0,0,3.31984,5
1774300366454,0.00318345,-1.05665,-0.230601,-0.223501,1.12898,3.75248,0,0,3.28586,5
1774300366467,0.00374891,-1.05421,-0.223847,-0.440044,1.10291,3.64348,0,0,3.29931,5
1774300366481,0.00386256,-1.05146,-0.213001,-0.512131,1.07872,3.53031,0,0,3.26947,5
1774300366494,0.00436628,-1.04877,-0.205308,-0.626847,1.07816,3.47444,0,0,3.28179,5
1774300366507,0.00513625,-1.04255,-0.198572,-0.714147,1.06949,3.39945,0,0,3.27414,5
1774300366521,0.00575511,-1.046,-0.197394,-0.979814,1.08315,3.37447,0,0,3.29436,5
1774300366534,0.00660314,-1.04158,-0.191516,-0.862766,1.04466,3.30294,0,0,3.27438,5
1774300366547,0.00533209,-1.03723,-0.188287,-1.01391,1.00019,3.23799,0,0,3.27864,5
1774300366561,0.00506688,-1.04303,-0.18553,-1.10733,0.910263,3.13215,0,0,3.26894,5
1774300366574,0.00478123,-1.04287,-0.186171,-0.977561,0.817242,3.03225,0,0,3.25801,5
1774300366588,0.0042625,-1.03549,-0.184852,-0.84908,0.764978,2.91954,0,0,3.31631,5
1774300366601,0.00379849,-1.03674,-0.182448,-0.91064,0.679678,2.80202,0,0,3.27721,5
1774300366615,0.00161444,-1.03648,-0.182434,-0.873262,0.577754,2.68381,0,0,3.71688,5
1774300366628,0.000871197,-1.03944,-0.181364,-0.909916,0.486256,2.62619,0,0,3.29807,5
1774300366642,-0.00179342,-1.03464,-0.186543,-0.900411,0.378054,2.48231,0,0,3.28062,5
1774300366655,-0.00129859,-1.03577,-0.182507,-0.879449,0.29733,2.42528,0,0,3.27066,5
1774300366668,-0.00216001,-1.02328,-0.177782,-0.821127,0.182169,2.27126,0,0,3.25886,5
1774300366682,-0.00230044,-1.02766,-0.177812,-1.1827,0.1013,2.25433,0,0,3.27784,5
1774300366695,-0.00171937,-1.0329,-0.173313,-1.24011,0.019829,2.18911,0,0,3.25773,5
1774300366708,-0.00212464,-1.02778,-0.172599,-1.23392,-0.0309529,2.18621,0,0,3.29179,5
1774300366722,-0.00278979,-1.02635,-0.171382,-1.35097,-0.0763171,2.15692,0,0,3.30742,5
1774300366735,-0.00298809,-1.02613,-0.169909,-1.39122,-0.118709,2.16268,0,0,3.26751,5
1774300366749,-0.00270793,-1.02231,-0.166045,-1.40097,-0.168999,2.14713,0,0,3.30544,5
1774300366762,-0.00363584,-1.02006,-0.162114,-1.50393,-0.222463,2.07593,0,0,3.30753,5
1774300366775,-0.00386121,-1.02196,-0.161367,-1.57201,-0.240385,2.07039,0,0,3.30342,5
1774300366789,-0.00520847,-1.0198,-0.157993,-1.55705,-0.300978,1.98509,0,0,3.27673,5
1774300366802,-0.00594161,-1.01948,-0.157266,-1.59474,-0.323488,1.95295,0,0,3.27866,5
1774300366815,-0.00646118,-1.01787,-0.154979,-1.56695,-0.369571,1.85582,0,0,3.27451,5
1774300366829,-0.00728901,-1.01797,-0.153059,-1.6362,-0.397226,1.76843,0,0,3.29903,5
1774300366842,-0.0071304,-1.01762,-0.151886,-1.63691,-0.448593,1.6885,0,0,3.29072,5
1774300366856,-0.00691466,-1.01658,-0.150176,-1.64486,-0.488514,1.59893,0,0,3.2676,5
1774300366869,-0.00684715,-1.01446,-0.148787,-1.67977,-0.518489,1.52551,0,0,3.29023,5
1774300366882,-0.00583236,-1.01635,-0.147351,-1.77095,-0.551493,1.47762,0,0,3.26618,5
1774300366896,-0.00740304,-1.01208,-0.142306,-1.71529,-0.575366,1.39688,0,0,3.27521,5
1774300366909,-0.00824307,-1.00947,-0.143332,-1.86228,-0.548659,1.37676,0,0,3.2722,5
1774300366923,-0.00703911,-1.01232,-0.142808,-2.02672,-0.539721,1.38602,0,0,3.31962,5
1774300366936,-0.00672059,-1.0125,-0.141923,-2.09587,-0.521436,1.34553,0,0,3.28399,5
1774300366950,-0.0067897,-1.01222,-0.141642,-2.20568,-0.509315,1.31159,0,0,3.27692,5
1774300366963,-0.00654615,-1.01216,-0.142046,-2.32303,-0.470898,1.30268,0,0,3.28999,5
1774300366976,-0.0058328,-1.01038,-0.140457,-2.38969,-0.402522,1.31482,0,0,3.25809,5
1774300366990,-0.00635713,-1.00854,-0.138147,-2.56137,-0.319141,1.41619,0,0,3.26692,5
1774300367003,-0.00636739,-1.00724,-0.136996,-2.714,-0.249429,1.52559,0,0,3.26466,5
1774300367017,-0.00648397,-1.00597,-0.139813,-3.00451,-0.181915,1.67637,0,0,3.26112,5
1774300367030,-0.00484445,-1.00779,-0.137062,-3.15755,-0.123326,1.77417,0,0,3.30816,5
1774300367043,-0.00309511,-1.00193,-0.14357,-3.45272,-0.00550763,2.16706,0,0,3.29125,5
1774300367057,-0.00380323,-1.00505,-0.141723,-3.86322,-0.015047,2.22706,0,0,3.28025,5
1774300367070,-0.00268666,-1.00146,-0.136432,-4.04046,-0.0681544,2.16208,0,0,3.31044,5
1774300367083,0.00113571,-1.01361,-0.136306,-4.91383,-0.0523423,2.41633,0,0,3.28092,5
1774300367097,0.00357376,-1.02202,-0.135267,-5.36526,-0.111921,2.72139,0,0,3.28359,5
1774300367110,0.00532863,-1.02346,-0.133772,-5.95023,-0.143752,3.05645,0,0,3.2672,5
1774300367124,0.00424145,-1.0272,-0.129491,-6.69721,-0.158811,3.59922,0,0,3.65414,5
1774300367137,0.00836942,-1.0313,-0.128483,-7.60782,-0.33702,4.20018,0,0,3.26247,5
1774300367151,-0.00989106,-1.03935,-0.119255,-8.3329,-0.309552,3.89265,0,0,3.28657,5
1774300367164,-0.00950121,-1.06441,-0.119026,-11.127,-0.231386,3.35102,0,0,3.26273,5
1774300367177,-0.0179155,-1.06847,-0.112326,-13.6325,0.0128135,2.67449,0,0,3.2732,5
1774300367191,-0.019278,-1.09045,-0.111653,-16.9458,0.188079,1.90489,0,0,3.25781,5
1774300367204,-0.0220224,-1.09512,-0.112888,-20.2459,0.452853,1.08211,0,0,3.26107,5
1774300367217,-0.0269209,-1.10416,-0.11204,-24.0678,0.743453,0.00874976,0,0,3.27349,5
1774300367231,-0.0286157,-1.11202,-0.111624,-28.2174,0.977075,-1.28572,0,0,3.32116,5
1774300367244,-0.0318485,-1.11991,-0.113042,-32.6237,1.225,-2.5915,0,0,3.49451,5
1774300367258,-0.0372142,-1.1277,-0.114686,-37.3677,1.52495,-4.11949,0,0,3.33984,5
1774300367271,-0.0401885,-1.13576,-0.116568,-42.3076,1.81408,-5.8311,0,0,3.37466,5
1774300367285,-0.0376515,-1.14808,-0.120385,-47.6272,2.04588,-7.54904,0,0,3.28518,5
1774300367298,-0.0270363,-1.15984,-0.118761,-53.337,2.11781,-9.00619,0,0,3.26868,5
1774300367312,-0.0186898,-1.17304,-0.120785,-59.3868,2.00458,-10.0994,0,0,3.27457,5
1774300367325,-0.014317,-1.18458,-0.12145,-65.8898,1.84718,-10.9472,0,0,3.26036,5
1774300367338,-0.0110964,-1.20151,-0.124093,-72.9671,1.68234,-11.6494,0,0,3.29057,5
1774300367352,-0.00798462,-1.21899,-0.127998,-80.5003,1.54558,-12.555,0,0,3.27168,5
1774300367365,-0.00215818,-1.23559,-0.134358,-88.1779,1.2889,-13.5588,0,0,3.28222,5
1774300367378,0.0102146,-1.24636,-0.143473,-95.689,0.702774,-15.0775,0,0,3.25153,5
1774300367392,0.0252921,-1.25512,-0.155627,-102.707,-0.336461,-16.3423,0,0,3.26164,5
1774300367405,0.0402441,-1.25358,-0.171979,-108.945,-1.70363,-16.8746,0,0,3.26775,5
1774300367418,0.0565387,-1.24378,-0.185705,-114.274,-3.38418,-17.0105,0,0,3.25336,5
1774300367432,0.0708609,-1.23789,-0.194325,-118.891,-5.52455,-17.0733,0,0,3.32027,5
1774300367445,0.0819836,-1.21532,-0.193332,-122.789,-8.09336,-16.751,0,0,3.28855,5
1774300367459,0.0919579,-1.13698,-0.156423,-124.548,-10.9942,-15.5845,0,0,3.29588,5
1774300367472,0.107272,-1.01339,-0.141201,-120.179,-14.3901,-12.8306,0,0,3.27842,3
1774300367485,0.113279,-0.976863,-0.125705,-110.42,-17.8442,-10.0111,0,0,3.28253,3
1774300367499,0.114518,-0.93947,-0.105591,-99.0354,-21.3217,-7.17456,0,0,3.31653,3
1774300367512,0.116706,-0.904641,-0.0828761,-87.1803,-24.7565,-4.17346,0,0,3.27618,3
1774300367526,0.115606,-0.881863,-0.0641012,-75.393,-27.9987,-1.39507,0,0,3.28177,3
1774300367539,0.114543,-0.855768,-0.0476102,-63.738,-31.0226,0.846376,0,0,3.29227,3
1774300367552,0.111552,-0.833515,-0.0317869,-52.0002,-33.7648,2.36863,0,0,3.33088,3
1774300367566,0.106278,-0.81547,-0.0182571,-40.145,-36.0645,2.9958,0,0,3.26846,3
1774300367579,0.0986517,-0.802901,-0.00589564,-28.2264,-37.8151,2.81962,0,0,3.29233,3
1774300367593,0.0881235,-0.796018,0.00463336,-16.4241,-38.8257,2.15578,0,0,3.27721,3
1774300367606,0.0755893,-0.792276,0.0136662,-4.75489,-38.9897,1.32064,0,0,3.27283,3
1774300367619,0.0620872,-0.791751,0.0219304,6.87246,-38.3167,0.272436,0,0,3.27516,3
1774300367633,0.0488125,-0.795979,0.0299292,18.474,-36.9078,-1.07707,0,0,3.51816,3
1774300367646,0.0355311,-0.806055,0.0372259,29.8792,-34.7789,-2.54571,0,0,3.2887,5
1774300367660,0.0215066,-0.821722,0.0434134,40.9272,-31.9066,-3.88787,0,0,3.31396,2
1774300367673,0.00681427,-0.84232,0.0480598,51.5379,-28.226,-5.01943,0,0,3.27266,2
1774300367686,-0.00681917,-0.870121,0.051542,61.5183,-23.7653,-6.14404,0,0,3.28468,2
1774300367700,-0.0174114,-0.907116,0.0523415,70.4109,-18.7113,-7.58794,0,0,3.26777,2
1774300367713,-0.0223407,-0.951857,0.0482695,77.682,-13.3144,-9.5426,0,0,3.27751,2
1774300367727,-0.0204989,-0.996275,0.0374782,83.3797,-7.84336,-11.654,0,0,3.2691,2
1774300367740,-0.0132497,-1.03786,0.0235928,87.7983,-2.56576,-12.9631,0,0,3.33614,2
1774300367753,0.00146599,-1.08959,0.00736782,90.2224,2.08439,-13.708,0,0,3.26494,2
1774300367767,0.0210687,-1.14569,-0.0175753,90.204,5.85541,-14.6497,0,0,3.28823,2
1774300367780,0.0315075,-1.18781,-0.0459012,87.2085,8.74136,-15.2915,0,0,3.2726,5
1774300367793,0.0406997,-1.18874,-0.0804088,84.2701,10.97,-15.5295,0,0,3.26959,5
1774300367807,0.0454221,-1.1861,-0.114443,82.4082,12.8322,-15.7559,0,0,3.26514,5
1774300367820,0.0451012,-1.18271,-0.149498,81.3337,14.2927,-16.6435,0,0,3.25803,5
1774300367834,0.0447624,-1.17235,-0.188187,81.6066,15.202,-18.4486,0,0,4.114,5
1774300367848,0.039463,-1.1605,-0.230833,82.6683,15.9687,-20.8911,0,0,3.29023,5
1774300367861,0.0333917,-1.14486,-0.277122,84.3178,16.6783,-22.7118,0,0,3.29049,5
1774300367874,0.0244255,-1.14005,-0.329171,85.6557,17.5488,-23.0012,0,0,3.26699,5
1774300367888,0.0182431,-1.13114,-0.385638,86.2761,18.4181,-21.9808,0,0,3.26071,5
1774300367901,0.0152992,-1.1339,-0.446982,85.5743,19.1148,-20.2687,0,0,3.26781,5
1774300367914,0.0118114,-1.13273,-0.509432,83.0727,19.5469,-18.4231,0,0,3.25957,5
1774300367928,0.000799519,-1.14872,-0.569088,79.0377,19.6087,-16.2383,0,0,3.26727,5
1774300367941,0.0298164,-0.981783,-0.552283,66.4272,19.6503,-12.0137,0,0,3.3239,5
1774300367955,0.058034,-1.11378,-0.510417,51.9896,17.3196,-6.48806,0,0,3.3356,5
1774300367968,0.0677958,-1.12474,-0.47019,43.3828,15.2425,-3.69675,0,0,3.28555,5
1774300367981,0.0513994,-1.05734,-0.458393,35.63,13.7967,-2.642,0,0,3.27768,5
1774300367995,0.0378341,-1.04559,-0.451009,28.7146,12.5959,-1.99197,0,0,3.28788,5
1774300368008,0.0323038,-1.05071,-0.436165,24.5493,12.9979,-1.81045,0,0,3.26686,5
1774300368022,0.0304533,-1.03367,-0.425685,21.8702,13.4189,-1.41173,0,0,3.28368,5
1774300368035,0.0269434,-1.02854,-0.417319,19.7036,13.1668,-1.03752,0,0,3.26557,5
1774300368048,0.0235337,-1.03221,-0.404631,18.1689,12.4492,-1.0534,0,0,3.37818,5
1774300368062,0.0219172,-1.03324,-0.390523,16.8958,11.9303,-1.19642,0,0,3.28322,5
1774300368075,0.0242793,-1.03181,-0.380096,15.7272,11.554,-1.24706,0,0,3.27679,5
1774300368089,0.028353,-1.0266,-0.367136,14.6236,10.9517,-1.08847,0,0,3.27825,5
1774300368102,0.0303695,-1.02503,-0.356504,13.5293,10.4282,-0.757662,0,0,3.30777,5
1774300368115,0.0308672,-1.02292,-0.342792,12.6638,9.92674,-0.429563,0,0,3.28927,5
1774300368129,0.0304675,-1.02102,-0.335584,11.8173,9.28643,-0.160117,0,0,3.28894,5
1774300368142,0.0279927,-1.01631,-0.326097,11.0161,8.73127,0.0394074,0,0,3.33475,5
1774300368156,0.0265976,-1.01822,-0.322812,10.024,8.3126,0.263279,0,0,3.2656,5
1774300368169,0.0229361,-1.01623,-0.314716,9.4527,7.99233,0.332008,0,0,3.26661,5
1774300368182,0.0202994,-1.00935,-0.303441,8.78674,7.6789,0.372474,0,0,3.34733,5
1774300368196,0.0201911,-1.00793,-0.291793,8.11403,7.25331,0.372991,0,0,3.28755,5
1774300368209,0.0183151,-1.00694,-0.284328,7.51674,6.86016,0.42015,0,0,3.28718,5
1774300368222,0.019073,-1.00787,-0.2731,7.05957,6.50276,0.463808,0,0,3.26599,5
1774300368236,0.0171605,-1.00609,-0.267403,6.49359,6.2078,0.597506,0,0,3.27203,5
1774300368249,0.0164207,-1.01042,-0.258848,6.0998,5.94052,0.723276,0,0,3.2975,5
1774300368263,0.0127238,-1.00497,-0.259144,5.59879,5.70835,0.811589,0,0,3.27246,5
1774300368276,0.0129361,-1.01177,-0.251516,5.27275,5.44767,0.876537,0,0,3.26627,5
1774300368289,0.0113133,-1.00114,-0.243816,5.03694,5.18963,0.896736,0,0,3.29116,5
1774300368303,0.0111175,-1.00842,-0.240189,4.44483,4.86299,0.956908,0,0,3.30936,5
1774300368316,0.0114321,-1.0134,-0.235557,4.26102,4.54483,0.933206,0,0,3.27881,5
1774300368329,0.0101741,-1.00958,-0.232986,4.03442,4.28005,0.964785,0,0,3.27862,5
1774300368343,0.00949424,-1.01094,-0.229331,3.69208,4.00914,0.985172,0,0,3.33357,5
1774300368357,0.00889752,-1.01372,-0.225484,3.48756,3.76328,1.02839,0,0,3.32755,5
1774300368370,0.00749411,-1.01035,-0.22063,3.30007,3.51793,1.09317,0,0,3.27059,5
1774300368383,0.00581041,-1.00703,-0.215701,3.05201,3.28121,1.12177,0,0,3.26357,5
1774300368397,0.00461674,-1.01003,-0.212663,2.6693,3.08046,1.20143,0,0,3.31242,5
1774300368410,0.00384896,-1.01123,-0.207644,2.42708,2.90553,1.23038,0,0,3.26603,5
1774300368423,0.00266633,-1.00831,-0.203336,2.21515,2.77381,1.28811,0,0,3.28173,5
1774300368437,0.00204791,-1.0077,-0.195938,1.9907,2.65804,1.34945,0,0,3.26716,5
1774300368450,0.00134977,-1.00611,-0.191395,1.74416,2.54662,1.44332,0,0,3.34405,5
1774300368464,0.000607418,-1.00669,-0.187808,1.53243,2.42561,1.52464,0,0,3.27281,5
1774300368477,-0.000348036,-1.00547,-0.187666,1.33857,2.32509,1.59627,0,0,3.2644,5
1774300368490,-0.000546353,-1.00464,-0.183057,1.20525,2.20067,1.64717,0,0,3.27092,5
1774300368504,-0.000928181,-1.00466,-0.180475,0.988208,2.07295,1.65241,0,0,3.26157,5
1774300368517,-0.00178445,-1.00977,-0.181434,0.823589,1.94982,1.69203,0,0,3.27385,5
1774300368530,-0.00272071,-1.00698,-0.18155,0.833485,1.8109,1.67205,0,0,3.26618,5
1774300368544,-0.00379754,-1.0048,-0.180176,0.700239,1.68492,1.61894,0,0,3.40718,5
1774300368557,-0.00485931,-1.00618,-0.177806,0.576608,1.54545,1.55425,0,0,3.27607,5
1774300368571,-0.00559704,-1.00624,-0.1765,0.516005,1.39625,1.47606,0,0,3.27535,5
1774300368584,-0.00512805,-1.00434,-0.170842,0.460513,1.25156,1.37185,0,0,3.35314,5
1774300368597,-0.0055444,-1.00463,-0.168528,0.304513,1.11327,1.30861,0,0,3.28303,5
1774300368611,-0.00698888,-1.00653,-0.163944,0.110163,0.987884,1.24676,0,0,3.29346,5
1774300368624,-0.00856237,-1.00938,-0.162508,-0.0600116,0.864389,1.23121,0,0,3.27522,5
1774300368637,-0.00886056,-1.00622,-0.156341,-0.132863,0.758955,1.20796,0,0,3.29207,5
1774300368651,-0.00736267,-1.00728,-0.155856,-0.455113,0.68641,1.26609,0,0,3.29844,5
1774300368664,-0.0069873,-1.00644,-0.149777,-0.671939,0.623501,1.31111,0,0,3.2682,5
1774300368678,-0.00852883,-1.00831,-0.149505,-1.1622,0.618501,1.40071,0,0,3.27514,5
1774300368691,-0.0152987,-1.01643,-0.148391,-1.76413,0.606929,1.6831,0,0,3.26614,5
1774300368704,-0.0203311,-1.01809,-0.146941,-2.17728,0.627693,1.91711,0,0,3.27196,5
1774300368718,-0.011509,-1.02512,-0.144732,-2.59552,0.637444,2.19494,0,0,3.26333,5
1774300368731,-0.00240014,-1.0197,-0.143004,-3.27077,0.695461,2.72909,0,0,3.27336,5
1774300368744,-1.03195e-05,-1.02695,-0.138352,-4.13251,0.749367,3.29793,0,0,3.28414,5
1774300368758,0.00163437,-1.02486,-0.121176,-4.88639,0.730884,3.76678,0,0,3.31485,5
1774300368771,0.00649562,-1.03142,-0.122112,-6.33147,0.749405,4.61269,0,0,3.34718,5
1774300368785,0.00670269,-1.03314,-0.109704,-7.68136,0.705228,5.58841,0,0,3.28744,5
1774300368798,0.0182396,-1.04865,-0.101874,-9.6128,0.240909,7.18765,0,0,3.29851,5
1774300368811,-0.000399189,-1.12592,-0.0890371,-12.565,0.211125,6.84742,0,0,3.27781,5
1774300368825,-0.00454572,-1.1229,-0.0836379,-17.4806,0.427506,6.14177,0,0,3.28931,5
1774300368838,-0.0177678,-1.14685,-0.0804393,-22.6081,0.746075,5.29585,0,0,3.27575,5
1774300368852,-0.0324082,-1.1639,-0.0779037,-28.7682,1.14098,4.24733,0,0,3.31286,5
1774300368865,-0.0346317,-1.18575,-0.075383,-35.5821,1.57153,2.89623,0,0,3.28018,5
1774300368878,-0.038178,-1.2055,-0.0689259,-43.0131,1.78183,1.31391,0,0,3.26629,5
1774300368892,-0.0436406,-1.22813,-0.0651642,-51.0837,1.94907,-0.39418,0,0,3.27051,5
1774300368905,-0.0446575,-1.249,-0.0617059,-59.948,1.99303,-2.07582,0,0,3.26859,5
1774300368918,-0.0402168,-1.27264,-0.0606622,-69.3415,1.93176,-3.61218,0,0,3.2809,5
1774300368932,-0.0328099,-1.29122,-0.0596642,-79.1779,1.75618,-5.03454,0,0,3.26959,5
1774300368945,-0.0219474,-1.30223,-0.0625429,-88.7674,1.31812,-6.43705,0,0,3.3101,5
1774300368959,-0.000188998,-1.30948,-0.0738585,-97.8191,0.294894,-8.08631,0,0,3.3054,5
1774300368972,0.0250488,-1.30796,-0.0861527,-105.793,-1.43268,-8.30798,0,0,3.27936,5
1774300368985,0.0475599,-1.30524,-0.0994146,-112.62,-3.64954,-7.02499,0,0,3.2946,5
1774300368999,0.0631823,-1.28646,-0.102274,-118.075,-6.20406,-4.86767,0,0,3.2692,5
1774300369012,0.0706156,-1.22478,-0.0647349,-122.303,-9.08715,-2.44642,0,0,3.28935,5
1774300369025,0.0809055,-1.11285,-0.0445966,-121.114,-12.1631,-0.54635,0,0,3.27596,5
1774300369039,0.0890585,-1.05305,-0.0323751,-113.239,-15.5756,-0.351281,0,0,3.29175,5
1774300369052,0.0912923,-1.01315,-0.0168551,-103.766,-18.8737,-0.780316,0,0,3.54761,5
1774300369066,0.0909407,-0.981093,0.00264131,-94.2097,-21.989,-0.61751,0,0,3.27242,3
1774300369079,0.0870704,-0.954395,0.0168542,-85.0356,-24.7022,-0.00182374,0,0,3.27548,3
1774300369093,0.0815649,-0.921102,0.0300398,-75.9466,-26.9086,0.602449,0,0,3.27231,3
1774300369106,0.0759693,-0.886191,0.0435776,-66.4191,-28.4364,0.790885,0,0,3.28483,3
1774300369119,0.0686538,-0.851439,0.0573135,-56.2094,-29.4952,0.480191,0,0,3.26522,3
1774300369133,0.0600033,-0.820279,0.0713882,-45.2096,-29.9406,-0.401832,0,0,3.28946,3
1774300369146,0.0514322,-0.794848,0.084762,-33.4933,-29.7756,-1.58635,0,0,3.31196,3
1774300369159,0.0435242,-0.777821,0.0983197,-21.3347,-29.1477,-2.91424,0,0,3.30159,3
1774300369173,0.0365492,-0.768533,0.110676,-9.0848,-28.2055,-4.54872,0,0,3.28892,3
1774300369186,0.0303491,-0.76469,0.121499,3.25515,-27.0434,-6.36428,0,0,3.27311,3
1774300369200,0.0240037,-0.768222,0.131635,15.6321,-25.6832,-8.0399,0,0,3.29018,2
1774300369213,0.017765,-0.782192,0.139651,27.8124,-24.1047,-9.41385,0,0,3.27777,2
1774300369226,0.0129095,-0.806003,0.144488,39.5252,-22.3214,-10.5669,0,0,3.28935,2
1774300369240,0.0094195,-0.8412,0.144522,50.4582,-20.3607,-11.8612,0,0,3.27979,2
1774300369253,0.0053881,-0.887767,0.137422,60.1207,-18.1126,-13.6947,0,0,3.64905,2
1774300369267,0.00248324,-0.936899,0.122529,68.5586,-15.4122,-15.7055,0,0,3.28083,2
1774300369280,0.00448867,-0.984555,0.103504,76.3982,-12.2778,-17.3054,0,0,3.27674,2
1774300369294,0.0151508,-1.04175,0.0797592,82.9305,-8.92755,-18.578,0,0,3.28764,2
1774300369307,0.0328951,-1.09716,0.0494934,87.5498,-5.74248,-19.628,0,0,3.26992,2
1774300369320,0.0481445,-1.13802,0.0151061,90.7428,-2.80115,-20.7622,0,0,3.30614,2
1774300369334,0.0507582,-1.16536,-0.0188771,93.2822,0.229528,-22.4986,0,0,3.28277,5
1774300369347,0.033452,-1.16591,-0.0514275,95.5191,4.05192,-24.9768,0,0,3.28916,5
1774300369360,0.00697311,-1.1704,-0.0797784,98.182,8.97443,-27.3536,0,0,3.30979,5
1774300369374,-0.0130307,-1.18562,-0.106665,100.54,14.6917,-28.4368,0,0,3.28098,5
1774300369387,-0.015066,-1.19307,-0.133636,102.288,20.2823,-27.9439,0,0,3.28024,5
1774300369401,-0.00203261,-1.20289,-0.162855,103.031,24.6725,-27.0555,0,0,3.27416,5
1774300369414,0.0167835,-1.21041,-0.195675,102.517,27.212,-26.9882,0,0,3.36111,5
1774300369427,0.0325454,-1.21253,-0.230508,100.811,27.8236,-27.8615,0,0,3.2942,5
1774300369441,0.0388521,-1.2153,-0.264182,97.7712,27.046,-28.8216,0,0,3.29179,5
1774300369455,0.0366405,-1.21823,-0.295197,93.2457,25.5063,-28.7031,0,0,3.80155,5
1774300369468,0.0318458,-1.21805,-0.320543,87.379,23.5994,-27.1997,0,0,3.26596,5
1774300369481,0.0294815,-1.21325,-0.340936,80.7162,21.4201,-24.9671,0,0,3.26901,5
1774300369495,0.0319077,-1.20567,-0.35621,73.6764,18.899,-22.7197,0,0,3.2672,5
1774300369508,0.0371,-1.19557,-0.367217,66.5619,15.9647,-20.7961,0,0,3.29588,5
1774300369522,0.0453536,-1.1833,-0.375864,59.6597,12.6153,-19.1638,0,0,3.26703,5
1774300369535,0.0542179,-1.17061,-0.381752,53.0843,8.8868,-17.7176,0,0,3.27388,5
1774300369548,0.0626305,-1.15931,-0.385589,46.8199,4.90374,-16.4476,0,0,3.28499,5
1774300369562,0.0689882,-1.14831,-0.388489,40.8619,0.846076,-15.4192,0,0,3.29283,5
1774300369575,0.0721317,-1.13664,-0.39155,35.2583,-3.03922,-14.5804,0,0,3.26883,5
1774300369588,0.0585566,-1.1563,-0.392236,29.2727,-6.14479,-12.8724,0,0,3.26753,5
1774300369602,0.0339159,-1.1439,-0.389571,23.9539,-7.75607,-9.23354,0,0,3.35611,1
1774300369615,0.0135667,-1.1327,-0.382634,19.127,-7.74663,-5.8823,0,0,3.27664,1
1774300369629,0.00497636,-1.21507,-0.190976,17.5566,-6.68096,-2.16154,0,0,3.28346,1
1774300369642,-0.00172214,-0.98701,-0.0854325,14.4994,-6.5978,1.68407,0,0,3.28794,1
1774300369655,-0.010925,-1.04357,-0.0221406,5.66655,-5.51093,4.62245,0,0,3.27044,1
1774300369669,-0.0230887,-1.0842,-0.0222401,-1.04755,-4.71325,6.15341,0,0,3.30809,1
1774300369682,-0.0275028,-1.06632,-0.0369945,-5.51087,-4.01469,6.37389,0,0,3.27044,2
1774300369695,-0.0364324,-1.04508,-0.047196,-7.23778,-2.80553,6.00137,0,0,3.28481,2
1774300369709,-0.0342306,-1.03738,-0.045527,-7.49205,-1.52759,6.1289,0,0,3.30722,2
1774300369722,-0.0326802,-1.02984,-0.0525473,-7.58263,-1.28904,6.12766,0,0,3.27064,2
1774300369736,-0.0346356,-1.02753,-0.0525555,-7.12134,-1.57213,5.38959,0,0,3.29025,2
1774300369749,-0.0322988,-1.03432,-0.0583715,-6.78312,-1.68991,4.73059,0,0,3.29151,2
1774300369762,-0.0324878,-1.03237,-0.0616057,-6.3337,-1.45253,4.10257,0,0,3.31807,2
1774300369776,-0.030405,-1.02701,-0.0602034,-6.14285,-1.32481,3.6014,0,0,3.26874,5
1774300369789,-0.0268439,-1.02438,-0.0575705,-5.9991,-1.27448,3.30005,0,0,3.28414,5
1774300369802,-0.0245595,-1.02614,-0.0607863,-5.97603,-1.191,3.12693,0,0,3.26666,5
1774300369816,-0.0213394,-1.02229,-0.0583949,-5.76542,-1.14132,2.97851,0,0,3.31809,5
1774300369829,-0.0190396,-1.02202,-0.0605817,-5.69337,-1.02078,2.92577,0,0,3.2937,5
1774300369843,-0.0172567,-1.01877,-0.0571102,-5.54229,-0.896297,2.91323,0,0,3.27579,5
1774300369856,-0.01647,-1.01912,-0.0619049,-5.51487,-0.772373,2.91167,0,0,3.2764,5
1774300369869,-0.0155255,-1.01491,-0.0594112,-5.23036,-0.678095,2.82543,0,0,3.296,5
1774300369883,-0.0138002,-1.01745,-0.0597705,-5.22472,-0.613511,2.74401,0,0,3.34588,5
1774300369896,-0.0128763,-1.01782,-0.0592706,-4.8473,-0.58338,2.55798,0,0,3.26772,5
1774300369910,-0.0133062,-1.01181,-0.05954,-4.55785,-0.52625,2.38624,0,0,3.28366,5
1774300369923,-0.0122972,-1.01085,-0.0591142,-4.40966,-0.492021,2.18473,0,0,3.27529,5
1774300369936,-0.0122185,-1.01212,-0.0594972,-4.2274,-0.430596,2.02836,0,0,3.28163,5
1774300369950,-0.0113532,-1.01131,-0.0596392,-4.02025,-0.382892,1.85378,0,0,3.30307,5
1774300369963,-0.0103762,-1.0114,-0.0616541,-3.80245,-0.338293,1.70484,0,0,3.62314,5
1774300369977,-0.00937792,-1.01205,-0.0631645,-3.58488,-0.308184,1.58652,0,0,3.30531,5
1774300369990,-0.00878629,-1.01099,-0.0642458,-3.39022,-0.308881,1.4804,0,0,3.2677,5
1774300370004,-0.00799632,-1.01251,-0.0688032,-3.21161,-0.311252,1.42262,0,0,3.26122,5
1774300370017,-0.00715549,-1.01157,-0.0723819,-2.99978,-0.338325,1.36038,0,0,3.27083,5
1774300370030,-0.00615924,-1.01167,-0.0757401,-2.86748,-0.362166,1.33503,0,0,3.30711,5
1774300370044,-0.00667997,-1.01153,-0.0780438,-2.74261,-0.361548,1.29911,0,0,3.30814,5
1774300370057,-0.00644122,-1.01256,-0.081464,-2.6911,-0.357539,1.27548,0,0,3.27607,5
1774300370070,-0.00595667,-1.01246,-0.08135,-2.63221,-0.407706,1.25789,0,0,3.3065,5
1774300370084,-0.00547195,-1.01184,-0.082992,-2.59418,-0.4572,1.24556,0,0,3.26699,5
1774300370097,-0.00588394,-1.01141,-0.086815,-2.60838,-0.486363,1.25148,0,0,3.26249,5
1774300370111,-0.00625656,-1.01009,-0.0883141,-2.5901,-0.508751,1.23395,0,0,3.34827,5
1774300370124,-0.00459495,-1.01038,-0.0903669,-2.57755,-0.515753,1.25251,0,0,3.30187,5
1774300370137,-0.00461821,-1.00502,-0.0872477,-2.48521,-0.538634,1.19425,0,0,3.29864,5
1774300370151,-0.00450166,-1.004,-0.0893792,-2.61257,-0.54867,1.21504,0,0,3.28287,5
1774300370165,-0.00343997,-1.00809,-0.0892073,-2.66727,-0.561997,1.22909,0,0,4.02529,5
1774300370178,-0.00389811,-1.00768,-0.0922781,-2.59473,-0.559162,1.2368,0,0,3.25885,5
1774300370192,-0.00445366,-1.00623,-0.0941682,-2.54253,-0.550063,1.23893,0,0,3.35831,5
1774300370205,-0.00456852,-1.00542,-0.0948652,-2.48683,-0.556033,1.19684,0,0,3.29892,5
1774300370219,-0.00424061,-1.00455,-0.0944962,-2.42185,-0.575798,1.16396,0,0,3.2739,5
1774300370232,-0.00415125,-1.00393,-0.0942073,-2.39133,-0.61415,1.11066,0,0,3.27333,5
1774300370245,-0.00391632,-1.00426,-0.0937816,-2.36596,-0.63665,1.03723,0,0,3.30566,5
1774300370259,-0.00485544,-1.00697,-0.0943461,-2.39638,-0.653178,0.979047,0,0,3.29955,5
1774300370272,-0.00449363,-1.00551,-0.0920779,-2.2594,-0.684621,0.902292,0,0,3.29692,5
1774300370285,-0.00344296,-1.00336,-0.094297,-2.25769,-0.710447,0.857675,0,0,3.26959,5
1774300370299,-0.00385826,-0.999248,-0.091038,-2.21412,-0.731399,0.765463,0,0,3.27113,5
1774300370312,-0.00423405,-1.00405,-0.099869,-2.41963,-0.73105,0.815014,0,0,3.2665,5
1774300370326,-0.0037179,-1.00675,-0.098491,-2.27877,-0.736716,0.748745,0,0,3.27127,5
1774300370339,-0.00526361,-0.998008,-0.0969597,-2.17021,-0.736498,0.704177,0,0,3.31214,5
1774300370352,-0.0046277,-0.997369,-0.0950043,-2.28912,-0.707175,0.711779,0,0,3.30888,5
1774300370366,-0.00568519,-0.997057,-0.0986863,-2.47201,-0.668793,0.699257,0,0,3.64613,5
1774300370379,-0.00399518,-1.00075,-0.097296,-2.62537,-0.640699,0.684869,0,0,3.28751,5
1774300370393,-0.0060199,-0.997569,-0.101465,-2.75172,-0.594484,0.678995,0,0,3.27344,5
1774300370406,-0.00577799,-1.00423,-0.10243,-3.01485,-0.520032,0.815609,0,0,3.26972,5
1774300370420,-0.0084828,-1.00142,-0.106877,-3.15147,-0.477588,0.859778,0,0,3.27081,5
1774300370433,-0.00660639,-1.00793,-0.109666,-3.40331,-0.383574,1.01451,0,0,3.26424,5
1774300370446,-0.00769479,-0.99801,-0.105265,-3.40209,-0.341934,1.04581,0,0,3.29187,5
1774300370460,-0.00786009,-0.996378,-0.106256,-3.78204,-0.282076,1.20039,0,0,3.26672,5
1774300370473,-0.00827441,-1.00142,-0.106894,-4.0546,-0.196031,1.30518,0,0,3.32561,5
1774300370486,-0.00590529,-0.996966,-0.116398,-4.35341,-0.171761,1.59764,0,0,3.27289,5
1774300370500,-0.00604209,-1.00212,-0.116796,-4.87438,-0.261894,1.61764,0,0,3.33018,5
1774300370513,-0.00696299,-0.999333,-0.113428,-5.02744,-0.369665,1.52348,0,0,3.3157,5
1774300370527,-4.94816e-05,-1.00736,-0.114447,-5.76838,-0.434995,1.63456,0,0,3.28785,5
1774300370540,0.00252581,-1.01238,-0.116489,-6.33887,-0.468401,1.95565,0,0,3.28305,5
1774300370553,0.00466818,-1.0116,-0.113935,-6.81827,-0.518772,2.32809,0,0,3.2842,5
1774300370567,0.00880952,-1.0163,-0.110202,-7.56152,-0.607424,2.75843,0,0,3.29062,5
1774300370580,0.0029043,-1.03463,-0.108351,-9.24619,-0.566073,2.35621,0,0,3.29126,5
1774300370594,0.00230751,-1.04241,-0.105449,-10.8518,-0.478228,1.82026,0,0,3.26981,5
1774300370607,0.00307142,-1.05526,-0.100442,-12.9162,-0.380325,1.23474,0,0,3.27403,5
1774300370620,0.0020616,-1.06792,-0.0970104,-15.5196,-0.217262,0.543322,0,0,3.27063,5
1774300370634,0.00317793,-1.08145,-0.0968785,-18.6471,-0.0946027,0.0645351,0,0,3.29933,5
1774300370647,0.00243037,-1.09404,-0.0936774,-22.1245,0.0464389,-0.477315,0,0,3.30207,5
1774300370661,-0.00216021,-1.10772,-0.0932749,-26.1287,0.18642,-1.20158,0,0,3.31098,5
1774300370674,-0.00557844,-1.12155,-0.0914699,-30.4372,0.323259,-2.30356,0,0,3.30238,5
1774300370687,-0.00977607,-1.13049,-0.0908543,-35.1514,0.493529,-3.53983,0,0,3.26392,5
1774300370701,-0.0174096,-1.14292,-0.0902976,-40.3788,0.726183,-4.94269,0,0,3.27094,5
1774300370714,-0.0229156,-1.15567,-0.0909077,-45.9865,0.985608,-6.66893,0,0,3.26783,5
1774300370727,-0.0201944,-1.17057,-0.0925588,-52.0773,1.22021,-8.30604,0,0,3.27648,5
1774300370741,-0.0101612,-1.18852,-0.0913724,-58.7887,1.17959,-9.81579,0,0,3.26309,5
1774300370754,-0.00587312,-1.20837,-0.0905902,-66.0334,1.14939,-11.2066,0,0,3.29961,5
1774300370768,-0.00383323,-1.22717,-0.0919028,-73.7685,1.04767,-12.5776,0,0,3.30788,5
1774300370781,-0.00120991,-1.24551,-0.0947916,-82.084,0.934524,-13.8919,0,0,3.30125,5
1774300370794,0.00667984,-1.26475,-0.10222,-90.7244,0.626905,-15.3717,0,0,3.30048,5
1774300370808,0.0193281,-1.27482,-0.11259,-99.0286,0.0967573,-17.4747,0,0,3.2695,5
1774300370821,0.0412139,-1.28585,-0.123906,-106.736,-1.21849,-19.8489,0,0,3.27668,5
1774300370834,0.0612671,-1.28826,-0.134802,-113.8,-3.12365,-21.5611,0,0,3.26422,5
1774300370848,0.0810199,-1.28703,-0.146192,-119.411,-5.61176,-22.9405,0,0,3.28179,5
1774300370861,0.095542,-1.27488,-0.145917,-124.719,-8.63983,-24.103,0,0,3.26924,5
1774300370875,0.104443,-1.24515,-0.121182,-128.952,-12.4118,-24.5673,0,0,3.38276,5
1774300370888,0.120717,-1.16252,-0.0889018,-130.033,-16.1204,-23.5605,0,0,3.28577,3
1774300370901,0.123755,-1.01799,-0.0803268,-123.938,-19.7296,-20.784,0,0,3.27916,3
1774300370915,0.125592,-0.982154,-0.0660516,-113.903,-22.9973,-17.4511,0,0,3.28887,3
1774300370928,0.126068,-0.952697,-0.0476068,-102.517,-26.2114,-13.8064,0,0,3.2772,3
1774300370942,0.128349,-0.924027,-0.0285699,-90.9668,-29.3514,-9.97468,0,0,3.29672,3
1774300370955,0.126761,-0.898212,-0.0126504,-79.483,-32.1877,-6.46797,0,0,3.27948,3
1774300370968,0.122189,-0.868412,0.00239136,-67.8366,-34.6303,-3.60413,0,0,3.28831,3
1774300370982,0.115917,-0.841367,0.0165831,-55.8737,-36.5522,-1.38735,0,0,3.31013,3
1774300370995,0.106673,-0.817865,0.0299728,-43.5084,-37.7355,0.0443991,0,0,3.28322,3
1774300371008,0.0951957,-0.800505,0.0428622,-30.8475,-38.3661,0.552307,0,0,3.28748,3
1774300371022,0.0832384,-0.789968,0.0538427,-18.2031,-38.1777,0.305949,0,0,3.28046,3
1774300371035,0.0720389,-0.784302,0.0641615,-5.67029,-37.2399,-0.2974,0,0,3.28259,3
1774300371049,0.0625891,-0.782321,0.0732603,6.70422,-35.6914,-1.11825,0,0,3.2915,3
1774300371062,0.0553463,-0.784997,0.0815448,18.9091,-33.7227,-2.11443,0,0,3.27594,3
1774300371075,0.0500111,-0.792307,0.0886555,30.9912,-31.4912,-3.19732,0,0,3.29065,2
1774300371089,0.0456352,-0.806333,0.0951884,42.8795,-29.0358,-4.28283,0,0,3.28705,2
1774300371102,0.040746,-0.82912,0.0997058,54.3393,-26.3208,-5.31731,0,0,3.27533,2
1774300371115,0.0365618,-0.860606,0.101442,65.0001,-23.2974,-6.49801,0,0,3.27211,5
1774300371129,0.0345998,-0.903121,0.0984363,74.4271,-20.0329,-8.1096,0,0,3.27092,5
1774300371142,0.0341544,-0.953791,0.0886863,82.1456,-16.5991,-10.4306,0,0,3.30214,5
1774300371155,0.0354688,-0.995317,0.0719848,88.7225,-12.9135,-12.7225,0,0,3.27055,5
1774300371169,0.0428328,-1.03628,0.0538998,94.7622,-9.18717,-14.0501,0,0,3.27057,5
1774300371182,0.0598364,-1.08745,0.0329328,99.4976,-5.91132,-14.8694,0,0,3.29968,5
1774300371196,0.0823743,-1.13119,0.00209908,102.96,-3.44866,-15.0955,0,0,3.28848,5
1774300371209,0.0953104,-1.18095,-0.0326392,104.061,-1.60284,-14.8037,0,0,3.26626,5
1774300371222,0.100399,-1.19614,-0.0677908,105.129,-0.108912,-15.3958,0,0,3.27485,5
1774300371236,0.0916736,-1.20792,-0.104203,105.969,1.48919,-17.9769,0,0,3.28142,5
1774300371249,0.0755889,-1.20642,-0.141285,106.726,3.44469,-21.1704,0,0,3.2817,5
1774300371262,0.0577626,-1.19892,-0.180804,107.527,5.8133,-23.5621,0,0,3.28122,5
1774300371276,0.0464174,-1.20453,-0.224103,108.275,8.18351,-24.3402,0,0,3.27533,5
1774300371289,0.0455299,-1.20547,-0.27026,108.273,9.9746,-23.2259,0,0,3.32513,5
1774300371303,0.0517493,-1.20669,-0.319801,106.967,10.5956,-21.3069,0,0,3.29492,5
1774300371316,0.0566076,-1.20992,-0.371596,103.846,9.98971,-19.8283,0,0,3.30955,5
1774300371329,0.0524451,-1.20665,-0.421584,99.0933,8.59612,-18.5362,0,0,3.28898,5
1774300371343,0.0336451,-1.21713,-0.467678,92.2294,7.24215,-16.3892,0,0,3.29311,5
1774300371356,0.00590853,-1.21906,-0.504859,84.257,6.69719,-13.1406,0,0,3.28385,5
1774300371370,-0.0241384,-1.22069,-0.534628,75.0139,7.33462,-8.8234,0,0,3.28094,5
1774300371383,-0.0192604,-1.1775,-0.525319,65.6812,8.7233,-4.5279,0,0,3.31175,5
1774300371396,-0.0345829,-1.30094,-0.489501,47.9662,10.1501,-1.42947,0,0,3.27366,5
1774300371410,-0.0262694,-1.40194,-0.447861,38.9928,9.40693,-1.64902,0,0,3.32209,5
1774300371423,-0.0162267,-1.3339,-0.419104,28.7091,9.17215,0.341198,0,0,3.28296,5
1774300371437,-0.0259911,-1.30522,-0.411121,19.0788,8.06377,1.91877,0,0,3.2785,5
1774300371450,-0.0354993,-1.27291,-0.407641,12.98,8.02465,2.0445,0,0,3.28439,5
1774300371463,-0.0388582,-1.26323,-0.397747,9.30341,8.62873,1.69689,0,0,3.28696,5
1774300371477,-0.037714,-1.24875,-0.385616,6.94807,8.51467,1.22747,0,0,3.28287,5
1774300371490,-0.0390435,-1.22633,-0.381255,5.17829,8.21819,0.830197,0,0,3.28903,5
1774300371504,-0.0382329,-1.2183,-0.370208,4.23955,7.88267,0.518582,0,0,3.29413,5
1774300371517,-0.0353651,-1.20679,-0.358268,3.73841,7.71455,0.164072,0,0,3.28303,5
1774300371530,-0.0315657,-1.2006,-0.347244,3.23113,7.56357,-0.0339612,0,0,3.27948,5
1774300371544,-0.0289787,-1.19127,-0.336777,2.85292,7.30288,-0.115124,0,0,3.29076,5
1774300371557,-0.0243695,-1.18181,-0.327484,2.41885,6.91765,-0.0508617,0,0,3.27151,5
1774300371570,-0.0201968,-1.17418,-0.320348,1.92521,6.44227,0.148529,0,0,3.2792,5
1774300371584,-0.0179256,-1.16557,-0.310481,1.47553,6.00298,0.403532,0,0,3.48616,5
1774300371597,-0.0163409,-1.15743,-0.300362,1.02409,5.71079,0.711457,0,0,3.33498,5
1774300371611,-0.0163523,-1.14902,-0.291913,0.573573,5.54546,1.04493,0,0,3.28555,5
1774300371624,-0.0164272,-1.14269,-0.282511,0.245951,5.39197,1.30018,0,0,3.29603,5
1774300371638,-0.0168406,-1.13466,-0.275152,-0.0397429,5.18758,1.41094,0,0,3.2877,5
1774300371651,-0.0171611,-1.12844,-0.266813,-0.225487,4.93684,1.40801,0,0,3.28737,5
1774300371664,-0.01782,-1.12103,-0.257643,-0.348146,4.67662,1.36885,0,0,3.28951,5
1774300371678,-0.0178307,-1.11621,-0.247999,-0.481052,4.45327,1.32504,0,0,3.28496,5
1774300371691,-0.0175528,-1.11163,-0.239673,-0.591517,4.33493,1.30724,0,0,3.32407,5
1774300371705,-0.0163581,-1.10757,-0.231572,-0.664955,4.14872,1.32597,0,0,3.2717,5
1774300371718,-0.0152583,-1.10303,-0.227168,-0.747977,3.97809,1.35693,0,0,3.29531,5
1774300371731,-0.0149754,-1.09965,-0.217319,-0.740276,3.78407,1.31764,0,0,3.27844,5
1774300371745,-0.0166053,-1.09494,-0.213185,-0.801089,3.62148,1.3375,0,0,3.27572,5
1774300371758,-0.0166265,-1.09292,-0.210738,-0.751015,3.44874,1.34169,0,0,3.27926,5
1774300371771,-0.0156645,-1.08622,-0.209188,-0.686195,3.23774,1.36106,0,0,3.27083,5
1774300371785,-0.0130363,-1.08317,-0.204129,-0.771451,3.04756,1.40504,0,0,3.55902,5
1774300371798,-0.0128505,-1.08225,-0.200818,-0.836938,2.88518,1.43499,0,0,3.30001,5
1774300371812,-0.0126409,-1.07952,-0.196595,-0.839233,2.73277,1.50136,0,0,3.30444,5
1774300371825,-0.012024,-1.07626,-0.194008,-0.915048,2.5662,1.55631,0,0,3.2775,5
1774300371839,-0.0121495,-1.07427,-0.190958,-0.999884,2.394,1.64285,0,0,3.27366,5
1774300371852,-0.0126324,-1.07099,-0.190754,-1.0684,2.26571,1.73611,0,0,3.29148,5
1774300371865,-0.0134039,-1.06701,-0.18838,-1.1395,2.14119,1.81599,0,0,3.27579,5
1774300371879,-0.0134797,-1.06153,-0.186943,-1.25242,2.03008,1.89097,0,0,3.29638,5
1774300371892,-0.0135308,-1.0605,-0.181191,-1.39541,1.94532,1.97587,0,0,3.30061,5
1774300371906,-0.0156083,-1.05801,-0.181189,-1.54193,1.86575,2.03974,0,0,3.28714,5
1774300371919,-0.0154489,-1.05779,-0.176372,-1.54579,1.7688,2.11673,0,0,3.28761,5
1774300371932,-0.0145704,-1.0462,-0.169385,-1.53744,1.68329,2.12988,0,0,3.28492,5
1774300371946,-0.0136022,-1.04843,-0.16738,-1.81816,1.57088,2.19024,0,0,3.29224,5
1774300371959,-0.0141071,-1.05034,-0.163188,-1.80052,1.43524,2.15474,0,0,3.28185,5
1774300371973,-0.0153799,-1.048,-0.163878,-1.79544,1.35388,2.14563,0,0,3.2884,5
1774300371986,-0.0158498,-1.04359,-0.156263,-1.69302,1.22784,2.05182,0,0,3.28564,5
1774300371999,-0.0156584,-1.0436,-0.159124,-1.79459,1.13756,2.04892,0,0,3.31514,5
1774300372013,-0.0140768,-1.0408,-0.149826,-1.63527,1.00138,1.93399,0,0,3.27165,5
1774300372026,-0.0154791,-1.03673,-0.156172,-1.74008,0.90368,1.89359,0,0,3.28346,5
1774300372040,-0.0140548,-1.03412,-0.143352,-1.63948,0.77292,1.75312,0,0,3.28233,5
1774300372053,-0.0152232,-1.03139,-0.141525,-1.82712,0.677754,1.66934,0,0,3.27731,5
1774300372066,-0.0153795,-1.03915,-0.140343,-1.9794,0.572512,1.66134,0,0,3.27896,5
1774300372080,-0.0148671,-1.03618,-0.139907,-1.94288,0.495867,1.60583,0,0,3.27479,5
1774300372093,-0.0143984,-1.03474,-0.137493,-2.09038,0.427375,1.62366,0,0,3.3144,5
1774300372106,-0.0140143,-1.03479,-0.140097,-2.29041,0.37814,1.69315,0,0,3.2752,5
1774300372120,-0.0137858,-1.03515,-0.136297,-2.52804,0.3732,1.73777,0,0,3.30424,5
1774300372133,-0.0146457,-1.03606,-0.135995,-2.78487,0.390375,1.82313,0,0,3.28815,5
1774300372147,-0.0146458,-1.03249,-0.13245,-3.02731,0.410012,1.92554,0,0,3.28866,5
1774300372160,-0.0118913,-1.03494,-0.129199,-3.75412,0.398146,2.43027,0,0,3.293,5
1774300372173,-0.0154605,-1.03498,-0.131407,-4.14215,0.431906,2.60053,0,0,3.29261,5
1774300372187,-0.00729985,-1.02654,-0.128447,-4.70709,0.583235,2.81048,0,0,3.28907,5
1774300372200,-0.00166352,-1.04056,-0.125061,-5.75759,0.67812,3.39146,0,0,3.30937,5
1774300372214,0.00280811,-1.03747,-0.121898,-6.59245,0.818636,4.09442,0,0,3.31144,5
1774300372227,0.00677455,-1.04399,-0.113535,-7.89558,0.902457,4.96348,0,0,3.31316,5
1774300372242,0.00826133,-1.05358,-0.103797,-9.38682,0.870677,6.13062,0,0,4.8203,5
1774300372259,0.0142528,-1.08684,-0.0992152,-10.657,0.71993,5.94388,0,0,5.55742,5
1774300372273,0.00172474,-1.09677,-0.0880217,-15.6607,1.19937,5.45333,0,0,3.27066,5
1774300372286,-0.00471411,-1.11791,-0.0840121,-20.183,1.35346,4.80232,0,0,3.29342,5
1774300372300,-0.0148005,-1.13985,-0.0803914,-26.0205,1.59183,3.7164,0,0,3.29935,5
1774300372313,-0.0308198,-1.15675,-0.0772494,-32.0996,2.09387,2.33428,0,0,3.29285,5
1774300372326,-0.0418785,-1.16798,-0.0748213,-38.5647,2.49495,0.50901,0,0,3.27096,5
1774300372341,-0.0520479,-1.18458,-0.0756278,-45.5836,2.94633,-1.65833,0,0,4.13072,5
1774300372354,-0.0515548,-1.20412,-0.071605,-53.1413,3.31201,-3.87367,0,0,3.26666,5
1774300372367,-0.0399792,-1.22116,-0.0675553,-61.2582,3.3673,-5.49159,0,0,3.25735,5
1774300372381,-0.0295292,-1.23585,-0.0661491,-69.9389,3.29061,-6.48781,0,0,3.28183,5
1774300372394,-0.0139094,-1.24744,-0.0696304,-78.7583,2.86111,-7.23589,0,0,3.57842,5
1774300372408,-0.00321144,-1.25694,-0.0763546,-87.5355,2.13841,-7.98612,0,0,3.29016,5
1774300372421,0.0141081,-1.2612,-0.0888172,-95.7896,0.979255,-9.19695,0,0,3.26351,5
1774300372435,0.0413151,-1.26367,-0.100713,-102.795,-0.99823,-9.30365,0,0,4.14056,5
1774300372449,0.0655813,-1.26282,-0.115143,-108.889,-3.52848,-8.08342,0,0,3.26739,5
1774300372462,0.0851987,-1.24617,-0.124916,-113.582,-6.48587,-6.18273,0,0,3.26681,5
1774300372475,0.101193,-1.22606,-0.098057,-117.894,-10.0648,-4.16471,0,0,3.28218,5
1774300372489,0.131318,-1.11498,-0.0771021,-117.191,-15.2683,-2.77586,0,0,3.26594,5
1774300372502,0.150676,-1.00827,-0.0648684,-110.671,-21.3378,-2.4994,0,0,3.30172,5
1774300372516,0.154807,-0.975341,-0.0466995,-102.05,-27.8603,-2.77027,0,0,3.26479,3
1774300372529,0.149029,-0.948937,-0.0257271,-93.0536,-34.1565,-2.28046,0,0,3.29044,3
1774300372542,0.136576,-0.928247,-0.00914186,-84.3122,-39.494,-0.967753,0,0,3.26604,3
1774300372556,0.121004,-0.904309,0.00472149,-75.8821,-43.5927,0.489269,0,0,3.28231,3
1774300372569,0.105879,-0.874573,0.0179145,-67.1117,-46.4343,1.49247,0,0,3.2775,3
1774300372583,0.0908815,-0.844942,0.0305946,-57.7749,-48.0932,1.62542,0,0,3.2825,3
1774300372596,0.07402,-0.816468,0.0430725,-47.6999,-48.5619,0.696281,0,0,3.31863,3
1774300372609,0.0568069,-0.79304,0.0551542,-36.875,-47.8556,-1.02341,0,0,3.27553,3
1774300372623,0.0397593,-0.775986,0.0672307,-25.5736,-46.0593,-2.91767,0,0,3.3,2
1774300372636,0.0244609,-0.763799,0.0790994,-13.9766,-43.3875,-4.79261,0,0,3.28063,2
1774300372650,0.0114224,-0.75664,0.0897017,-2.21602,-40.109,-6.81244,0,0,3.3119,2
1774300372663,3.23948e-05,-0.754972,0.100107,9.64016,-36.4162,-9.00457,0,0,3.28013,2
1774300372677,-0.011436,-0.761278,0.109342,21.3729,-32.3705,-11.2489,0,0,3.27594,2
1774300372690,-0.0226911,-0.776309,0.116156,32.7092,-28.0105,-13.336,0,0,3.284,2
1774300372703,-0.0324824,-0.801424,0.119137,43.294,-23.427,-15.3416,0,0,3.30579,2
1774300372717,-0.0407138,-0.840687,0.116809,52.5152,-18.693,-17.4129,0,0,3.29916,2
1774300372730,-0.0439728,-0.880421,0.108808,60.4459,-13.9098,-18.8909,0,0,3.28496,2
1774300372744,-0.0372558,-0.91545,0.0994261,68.192,-9.45018,-19.416,0,0,3.30535,2
1774300372757,-0.020145,-0.959976,0.0858745,75.4258,-5.79776,-19.62,0,0,3.29265,2
1774300372771,0.00726802,-1.00876,0.0663599,81.5836,-3.29993,-19.7878,0,0,3.27639,2
1774300372784,0.0347528,-1.05403,0.0409402,86.6086,-1.84398,-19.7278,0,0,3.28905,2
1774300372798,0.0453512,-1.10256,0.0102154,90.6803,-0.862332,-20.3177,0,0,3.31252,2
1774300372811,0.0484608,-1.12289,-0.022924,92.9993,0.368689,-20.8916,0,0,3.31016,2
1774300372825,0.037138,-1.14176,-0.0543151,94.9708,2.44484,-21.9634,0,0,3.27298,5
1774300372838,0.0194024,-1.15058,-0.0821661,96.9348,5.44888,-24.1617,0,0,3.28461,5
1774300372851,0.00662783,-1.15919,-0.109504,98.7899,9.06028,-27.0394,0,0,3.27089,5
1774300372865,0.00724551,-1.16944,-0.137493,100.21,12.5637,-29.1713,0,0,3.27241,5
1774300372878,0.0179899,-1.18549,-0.169223,100.187,15.4083,-30.4171,0,0,3.27659,5
1774300372892,0.0350656,-1.19107,-0.203366,98.928,17.0429,-31.5503,0,0,3.26939,5
1774300372905,0.0518536,-1.19292,-0.237927,96.6455,17.3042,-32.759,0,0,3.31027,5
1774300372918,0.0633057,-1.19262,-0.269087,93.3466,16.3421,-33.8845,0,0,3.28146,5
1774300372932,0.0671249,-1.1924,-0.296856,88.9566,14.5858,-34.5504,0,0,3.29783,5
1774300372945,0.0669867,-1.19,-0.319641,83.5832,12.4099,-34.1941,0,0,3.27742,5
1774300372959,0.0668332,-1.18205,-0.338622,77.6757,9.97448,-32.9119,0,0,3.29857,5
1774300372972,0.0679996,-1.17072,-0.353751,71.7738,7.34128,-31.2135,0,0,3.28526,5
1774300372985,0.0681862,-1.15954,-0.364888,65.9623,4.56205,-29.8202,0,0,3.28505,5
1774300372999,0.0650227,-1.14937,-0.374469,60.1668,1.81111,-29.018,0,0,3.28866,5
1774300373012,0.055741,-1.13798,-0.383675,54.487,-0.492213,-28.4394,0,0,3.30089,5
1774300373026,0.0371278,-1.12601,-0.393022,48.9703,-1.84422,-27.6213,0,0,3.29552,5
1774300373039,0.0105735,-1.11311,-0.40211,43.7207,-1.76989,-26.2022,0,0,3.28633,5
1774300373053,-0.0466365,-1.12372,-0.409391,36.9864,1.0184,-21.3592,0,0,3.30096,5
1774300373066,-0.0825106,-1.1105,-0.404983,31.5582,5.81905,-15.0164,0,0,3.27668,5
1774300373079,-0.0967967,-1.09654,-0.396785,27.627,11.346,-11.8396,0,0,3.28416,5
1774300373093,-0.0935138,-1.05898,-0.302335,13.5366,19.0035,-5.90327,0,0,3.2945,5
1774300373106,-0.0739534,-1.18759,-0.251295,4.28336,19.0731,-0.529815,0,0,3.30242,5
1774300373120,-0.0798906,-1.13347,-0.239174,-1.87315,19.6689,1.80954,0,0,3.34389,5
1774300373133,-0.0807103,-1.08929,-0.24537,-8.21486,18.4055,2.27667,0,0,3.32242,2
1774300373147,-0.090452,-1.08662,-0.247078,-10.888,17.624,1.43304,0,0,3.32544,2
1774300373160,-0.0898702,-1.07776,-0.24127,-11.0878,17.4335,1.08761,0,0,3.28092,2
1774300373174,-0.088481,-1.06737,-0.23879,-11.1539,16.4077,0.803517,0,0,3.2835,2
1774300373187,-0.0897365,-1.06735,-0.235607,-10.5754,14.8339,0.0442314,0,0,3.28696,5
1774300373200,-0.0891859,-1.0688,-0.226777,-9.79422,13.5673,-0.835603,0,0,3.35168,5
1774300373214,-0.0838976,-1.06545,-0.217831,-9.20715,12.7784,-1.61813,0,0,3.317,5
1774300373227,-0.0787872,-1.05987,-0.213889,-8.79861,12.0432,-2.24115,0,0,3.28357,5
1774300373241,-0.0711563,-1.05816,-0.207343,-8.51745,11.5664,-2.51322,0,0,3.29837,5
1774300373254,-0.0632612,-1.05519,-0.203496,-8.34927,10.9476,-2.49514,0,0,3.27357,5
1774300373267,-0.0547291,-1.05081,-0.199295,-8.17082,10.1823,-2.29053,0,0,3.27083,5
1774300373281,-0.0502537,-1.04411,-0.194177,-8.01137,9.59405,-1.99462,0,0,3.27641,5
1774300373294,-0.04607,-1.0404,-0.187351,-7.83603,9.20063,-1.67892,0,0,3.26852,5
1774300373307,-0.0421868,-1.03782,-0.182969,-7.59431,8.88193,-1.38265,0,0,3.3037,5
1774300373321,-0.0385482,-1.0366,-0.1769,-7.31862,8.57983,-1.10299,0,0,3.277,5
1774300373334,-0.0349832,-1.03693,-0.17336,-7.0387,8.15252,-0.871127,0,0,3.29253,5
1774300373348,-0.0326526,-1.03501,-0.167348,-6.7171,7.71535,-0.68139,0,0,3.27831,5
1774300373361,-0.0299861,-1.03528,-0.164065,-6.48291,7.35965,-0.449629,0,0,3.3005,5
1774300373374,-0.0281408,-1.03122,-0.155406,-6.2413,7.07186,-0.195328,0,0,3.27498,5
1774300373388,-0.0256076,-1.03114,-0.151087,-6.18366,6.82163,0.116643,0,0,3.27326,5
1774300373401,-0.0219893,-1.03422,-0.149167,-6.01921,6.56401,0.364443,0,0,3.2777,5
1774300373414,-0.0208889,-1.03329,-0.148579,-5.82717,6.30672,0.579075,0,0,3.29785,5
1774300373428,-0.0203384,-1.03147,-0.146715,-5.65659,5.96881,0.724719,0,0,3.29874,5
1774300373441,-0.0200148,-1.03069,-0.14599,-5.54654,5.59718,0.840355,0,0,3.28216,5
1774300373455,-0.0181572,-1.03176,-0.147624,-5.4401,5.19929,0.957213,0,0,3.30485,5
1774300373468,-0.0176941,-1.02863,-0.147734,-5.28867,4.82501,1.0217,0,0,3.35965,5
1774300373482,-0.0169524,-1.02635,-0.148235,-5.21381,4.51626,1.14808,0,0,3.28698,5
1774300373495,-0.0157305,-1.02262,-0.145147,-5.08064,4.17001,1.20358,0,0,3.29379,5
1774300373508,-0.0148397,-1.02203,-0.146006,-5.10781,3.87659,1.27266,0,0,3.40574,5
1774300373522,-0.0130377,-1.02007,-0.140422,-4.94761,3.56665,1.27577,0,0,3.2939,5
1774300373535,-0.0124141,-1.01756,-0.141968,-4.86705,3.37687,1.35922,0,0,3.27366,5
1774300373549,-0.0116897,-1.01168,-0.139806,-4.6647,3.11766,1.408,0,0,3.28907,5
1774300373562,-0.0112425,-1.01433,-0.1447,-4.68907,2.89525,1.52,0,0,3.27004,5
1774300373575,-0.00991807,-1.01507,-0.141799,-4.33057,2.66991,1.50624,0,0,3.26887,5
1774300373589,-0.0103812,-1.0066,-0.139121,-4.11891,2.47133,1.51467,0,0,3.27276,5
1774300373602,-0.00833633,-1.00601,-0.134511,-4.04416,2.22566,1.50464,0,0,3.26663,5
1774300373615,-0.0083241,-1.00841,-0.133112,-3.98559,2.02161,1.51016,0,0,3.30116,5
1774300373629,-0.00783195,-1.01069,-0.128775,-3.82754,1.84741,1.45885,0,0,3.2878,5
1774300373642,-0.00886675,-1.00911,-0.132849,-3.76442,1.72323,1.45838,0,0,3.34072,5
1774300373656,-0.00766754,-1.01035,-0.131096,-3.55712,1.62999,1.43652,0,0,3.29511,5
1774300373669,-0.00904053,-1.00443,-0.138218,-3.51474,1.53171,1.42916,0,0,3.28094,5
1774300373682,-0.00679806,-1.00622,-0.13465,-3.38439,1.40512,1.42093,0,0,3.2859,5
1774300373696,-0.00694919,-0.998026,-0.130961,-3.40522,1.28263,1.38662,0,0,3.27774,5
1774300373709,-0.00542812,-1.00537,-0.130412,-3.67793,1.17471,1.46298,0,0,3.30383,5
1774300373722,-0.00435794,-1.00752,-0.130934,-3.58938,1.06814,1.43273,0,0,3.29261,5
1774300373736,-0.00489338,-1.00538,-0.130333,-3.60085,0.990244,1.47868,0,0,3.31081,5
1774300373749,-0.00552286,-1.00581,-0.131103,-3.62538,0.908151,1.51007,0,0,3.27552,5
1774300373763,-0.00499305,-1.00569,-0.131861,-3.613,0.831091,1.49644,0,0,3.26791,5
1774300373776,-0.00405934,-1.00742,-0.132565,-3.65312,0.750646,1.47673,0,0,3.27613,5
1774300373789,-0.00338,-1.00502,-0.13075,-3.62034,0.662725,1.4046,0,0,3.26752,5
1774300373803,-0.00232465,-1.00376,-0.130744,-3.72513,0.634971,1.45042,0,0,3.27609,5
1774300373816,-0.00218028,-1.00522,-0.128944,-3.82961,0.610487,1.4988,0,0,3.2945,5
1774300373830,-0.00162582,-1.0067,-0.12969,-3.97576,0.609214,1.58986,0,0,3.302,5
1774300373843,-0.00143728,-1.0068,-0.128108,-4.0589,0.607584,1.61714,0,0,3.28481,5
1774300373856,-0.00154525,-1.00653,-0.126968,-4.2136,0.59534,1.64761,0,0,3.27766,5
1774300373870,-0.00097586,-1.00594,-0.1248,-4.32922,0.568797,1.66095,0,0,3.28737,5
1774300373883,0.000305336,-1.00671,-0.126496,-4.52699,0.561299,1.69582,0,0,3.27479,5
1774300373896,0.000313336,-1.00605,-0.126537,-4.58949,0.519537,1.66021,0,0,3.28468,5
1774300373910,0.000726709,-1.00642,-0.130346,-4.74311,0.505382,1.68484,0,0,3.27437,5
1774300373923,0.00044936,-1.01021,-0.131735,-4.77807,0.453055,1.67083,0,0,3.31596,5
1774300373937,0.00215936,-1.00187,-0.135199,-4.79694,0.419079,1.76337,0,0,3.27859,5
1774300373950,0.00418963,-1.00148,-0.136568,-5.01044,0.404135,1.84344,0,0,3.28409,5
1774300373963,0.00388896,-1.00461,-0.138464,-5.23807,0.387889,1.98753,0,0,3.27774,5
1774300373977,0.00398581,-1.0026,-0.141377,-5.50433,0.405953,2.35732,0,0,3.26676,5
1774300373990,0.00417451,-1.00712,-0.138045,-6.11874,0.358775,2.75947,0,0,3.27998,5
1774300374003,0.0046646,-1.01512,-0.134229,-6.48332,0.227322,2.96779,0,0,3.26974,5
1774300374017,0.00466346,-1.03347,-0.131637,-7.4419,0.156766,2.77777,0,0,3.32537,5
1774300374030,0.00584751,-1.0354,-0.131699,-8.64943,0.276,2.26142,0,0,3.27828,5
1774300374044,0.00571991,-1.04035,-0.123622,-10.1994,0.299912,1.78218,0,0,3.29459,5
1774300374057,0.00204248,-1.05599,-0.119294,-12.1215,0.355025,1.10716,0,0,3.3565,5
1774300374071,-0.00450636,-1.06209,-0.118732,-14.611,0.559052,0.371517,0,0,3.28472,5
1774300374084,-0.00434132,-1.07018,-0.119049,-16.728,0.822714,-0.586622,0,0,3.30004,5
1774300374097,-0.00541133,-1.0702,-0.118103,-19.2845,1.06388,-1.55867,0,0,3.28446,5
1774300374111,-0.005164,-1.08261,-0.117422,-22.2337,1.25812,-2.50146,0,0,3.29344,5
1774300374124,-0.00518374,-1.09147,-0.113739,-25.3215,1.37252,-3.44531,0,0,3.3052,5
1774300374138,-0.0064518,-1.10353,-0.114669,-28.7221,1.46938,-4.39146,0,0,3.31528,5
1774300374151,-0.00703448,-1.10956,-0.114886,-32.3101,1.56808,-5.42755,0,0,3.28215,5
1774300374164,-0.00616097,-1.12074,-0.116578,-36.0959,1.6651,-6.61534,0,0,3.27335,5
1774300374178,-0.00818706,-1.12192,-0.115686,-40.1403,1.8299,-7.75234,0,0,3.27674,5
1774300374191,-0.00995372,-1.13359,-0.119425,-44.434,1.93278,-8.99684,0,0,3.26657,5
1774300374204,-0.00996685,-1.13965,-0.121398,-49.1184,2.02519,-10.2713,0,0,3.27581,5
1774300374218,-0.00635994,-1.15872,-0.125762,-53.7901,2.16379,-11.5475,0,0,3.30748,5
1774300374231,0.00465915,-1.16357,-0.126508,-59.0566,2.12549,-12.4755,0,0,3.33092,5
1774300374245,0.0132531,-1.17901,-0.128813,-64.9718,1.8504,-13.2268,0,0,3.28813,5
1774300374258,0.0191865,-1.19889,-0.131657,-71.4578,1.44816,-13.8307,0,0,3.27594,5
1774300374271,0.0273053,-1.21622,-0.140495,-78.3748,0.837695,-14.7608,0,0,3.32798,5
1774300374285,0.0362862,-1.23287,-0.149629,-85.4672,-0.0815087,-16.6548,0,0,3.28548,5
1774300374298,0.0550388,-1.24405,-0.16004,-92.0976,-1.61327,-20.047,0,0,3.29105,5
1774300374312,0.0748718,-1.24633,-0.171395,-98.3089,-3.75748,-23.1085,0,0,3.27933,5
1774300374325,0.0966348,-1.24621,-0.185093,-103.542,-6.50934,-25.4882,0,0,3.31485,5
1774300374338,0.115118,-1.23409,-0.195726,-107.773,-9.79407,-27.5354,0,0,3.28889,5
1774300374352,0.133584,-1.22102,-0.193903,-111.002,-13.7287,-29.2305,0,0,3.28387,5
1774300374365,0.142391,-1.15754,-0.162105,-111.602,-18.2929,-29.1538,0,0,3.29122,3
1774300374379,0.149841,-1.08564,-0.13836,-109.602,-23.2109,-26.0254,0,0,3.28018,3
1774300374396,0.154402,-0.989747,-0.125817,-101.005,-28.7236,-21.0699,0,0,7.17598,3
1774300374409,0.1516,-0.967496,-0.102111,-90.3681,-33.894,-16.2253,0,0,3.28342,3
1774300374423,0.146241,-0.944724,-0.0793238,-79.9172,-38.8845,-12.3723,0,0,3.33729,3
1774300374436,0.136504,-0.91731,-0.0590174,-69.5863,-43.3659,-9.41017,0,0,3.27216,3
1774300374450,0.120284,-0.888031,-0.0418731,-59.1215,-46.8989,-7.21455,0,0,4.01348,3
1774300374464,0.100268,-0.856765,-0.0246992,-48.1086,-49.1607,-5.1789,0,0,3.28211,3
1774300374477,0.0785655,-0.832632,-0.00850056,-36.7012,-50.05,-3.2386,0,0,3.2725,3
1774300374490,0.0582174,-0.814209,0.00754487,-25.1372,-49.6576,-1.77495,0,0,3.281,3
1774300374504,0.040585,-0.80097,0.0225469,-13.5385,-48.1533,-0.964602,0,0,3.2762,3
1774300374517,0.0251971,-0.789399,0.0365512,-1.77003,-45.6946,-0.606483,0,0,3.28168,3
1774300374531,0.0109839,-0.784996,0.0501673,10.1399,-42.3787,-0.625987,0,0,3.30239,2
1774300374544,-0.00194568,-0.788067,0.0617572,22.0416,-38.2807,-1.0045,0,0,3.30885,2
1774300374557,-0.0137546,-0.800987,0.070737,33.5006,-33.4984,-1.81823,0,0,3.28428,2
1774300374571,-0.0240863,-0.823826,0.0748077,44.1724,-28.1263,-3.17807,0,0,3.28478,2
1774300374584,-0.0330371,-0.858522,0.0737569,53.5525,-22.235,-5.16343,0,0,3.29202,2
1774300374598,-0.0354254,-0.908324,0.0684814,60.9081,-16.1185,-7.44549,0,0,3.27976,2
1774300374611,-0.032723,-0.945165,0.056646,67.0398,-10.1776,-9.17906,0,0,3.28748,2
1774300374625,-0.0137391,-0.968095,0.046727,73.8478,-5.07822,-9.12534,0,0,3.3267,5
1774300374638,0.0180596,-1.01287,0.0319887,80.0026,-1.46508,-8.62718,0,0,3.32518,5
1774300374651,0.0510728,-1.04454,0.00998333,85.2477,0.7165,-8.78169,0,0,3.28363,5
1774300374665,0.0738445,-1.07695,-0.0133872,89.4463,2.13172,-9.05898,0,0,3.28824,5
1774300374678,0.0813774,-1.15404,-0.0377643,91.9938,3.53606,-8.4104,0,0,3.28054,5
1774300374692,0.0837977,-1.14812,-0.0695101,93.1391,5.42298,-7.88768,0,0,3.27135,5
1774300374705,0.0812434,-1.15432,-0.0943263,93.1789,7.86304,-8.51271,0,0,3.27811,5
1774300374718,0.0790143,-1.17489,-0.120214,92.7321,10.5383,-10.1145,0,0,3.27029,5
1774300374732,0.0758044,-1.16517,-0.144222,92.0569,13.4536,-11.939,0,0,3.32013,5
1774300374745,0.0758205,-1.16913,-0.166038,91.8995,16.2204,-14.0688,0,0,3.30054,5
1774300374759,0.0809394,-1.17433,-0.186408,91.331,18.5665,-16.5351,0,0,3.32768,5
1774300374772,0.0882047,-1.18094,-0.20624,90.4449,20.295,-19.0541,0,0,3.29031,5
1774300374786,0.0937109,-1.1842,-0.225803,88.4691,21.4983,-20.846,0,0,3.28131,5
1774300374799,0.0996917,-1.18282,-0.24309,85.8934,22.0184,-21.8425,0,0,3.29033,5
1774300374813,0.107706,-1.18052,-0.258436,83.0074,21.7622,-22.533,0,0,3.27972,5
1774300374826,0.11552,-1.17812,-0.273303,79.4381,20.7051,-22.826,0,0,3.33341,5
1774300374839,0.124135,-1.16989,-0.286431,75.6005,18.7867,-22.6246,0,0,3.29104,5
1774300374853,0.132639,-1.16089,-0.298771,71.6682,16.1443,-22.0976,0,0,3.31466,5
1774300374866,0.139928,-1.15009,-0.309803,67.7427,12.876,-21.4922,0,0,3.2847,5
1774300374880,0.144443,-1.1381,-0.320064,63.9733,9.20054,-21.0262,0,0,3.28913,5
1774300374893,0.144895,-1.12659,-0.32931,60.3382,5.42939,-20.7258,0,0,3.28324,5
1774300374906,0.139893,-1.11638,-0.338568,56.6916,1.89889,-20.4115,0,0,3.27583,5
1774300374920,0.127775,-1.10684,-0.348554,52.9426,-0.953585,-19.947,0,0,3.28359,5
1774300374933,0.109962,-1.09563,-0.358903,49.2043,-2.71561,-19.3034,0,0,3.30542,5
1774300374947,0.0886788,-1.10344,-0.365789,45.6278,-3.05912,-17.3021,0,0,3.30557,1
1774300374960,0.0535387,-1.08969,-0.379815,40.8341,-1.19576,-13.3917,0,0,3.28863,1
1774300374973,0.0137962,-1.08398,-0.396186,35.2864,2.95193,-8.16897,0,0,3.27581,1
1774300374987,-0.0256817,-1.07499,-0.409876,30.1086,8.90513,-2.60335,0,0,3.28913,1
1774300375000,-0.0914386,-1.20291,-0.352276,14.3889,15.5208,2.23903,0,0,3.28383,1
1774300375014,-0.0664063,-1.27663,-0.309964,8.1781,20.2881,5.53722,0,0,3.2867,1
1774300375028,-0.0413156,-1.18354,-0.296814,1.00584,22.1299,7.50671,0,0,3.91082,2
1774300375042,-0.0319495,-1.14567,-0.302753,-5.39759,20.2809,7.55237,0,0,3.35644,2
1774300375055,-0.0417417,-1.12964,-0.312885,-8.53402,18.9185,7.4426,0,0,3.26157,2
1774300375069,-0.0352504,-1.11795,-0.30816,-8.28697,20.4534,8.29298,0,0,4.17158,2
1774300375083,-0.0356413,-1.111,-0.302328,-8.24219,19.5027,7.78799,0,0,3.27889,2
1774300375096,-0.0414177,-1.11032,-0.291487,-7.67881,18.1578,6.66476,0,0,3.27104,2
1774300375111,-0.0419553,-1.10838,-0.281473,-7.1282,17.0301,5.65078,0,0,4.84951,2
1774300375124,-0.0419356,-1.1042,-0.274726,-6.74463,15.8689,4.51897,0,0,3.28263,2
1774300375138,-0.0370053,-1.09902,-0.270314,-6.58511,14.7745,3.67802,0,0,3.31574,5
1774300375151,-0.0297709,-1.09214,-0.261994,-6.33734,13.8589,3.15357,0,0,3.26996,5
1774300375165,-0.0205894,-1.08725,-0.25974,-6.37451,13.1003,3.11627,0,0,4.13223,5
1774300375179,-0.0145961,-1.08295,-0.250409,-6.15483,12.4452,3.21465,0,0,3.26261,5
1774300375192,-0.0119826,-1.07054,-0.24059,-6.00955,11.8507,3.33149,0,0,3.27205,5
1774300375205,-0.0104015,-1.0655,-0.230325,-6.01672,11.3196,3.45977,0,0,3.30135,5
1774300375219,-0.0106193,-1.06374,-0.223605,-5.92586,10.8075,3.55045,0,0,3.26126,5
1774300375232,-0.0107741,-1.06129,-0.211573,-5.62473,10.2685,3.51315,0,0,3.45678,5
1774300375246,-0.0102923,-1.05943,-0.206367,-5.50148,9.71308,3.42356,0,0,3.27018,5
1774300375259,-0.00993827,-1.05708,-0.195388,-5.24384,9.15455,3.27049,0,0,3.2988,5
1774300375273,-0.00985598,-1.05658,-0.191712,-5.13553,8.67573,3.15041,0,0,3.27042,5
1774300375287,-0.00952105,-1.05331,-0.185527,-4.92754,8.21007,3.05505,0,0,4.06222,5
1774300375300,-0.00817578,-1.05812,-0.183329,-4.82798,7.76753,2.97618,0,0,3.26067,5
1774300375313,-0.00745521,-1.05192,-0.1786,-4.42786,7.31256,2.82551,0,0,3.25629,5
1774300375329,-0.00786588,-1.04582,-0.178679,-4.2891,6.89382,2.68757,0,0,5.18103,5
1774300375342,-0.00755392,-1.05098,-0.174666,-4.23906,6.46045,2.59291,0,0,3.32413,5
1774300375356,-0.00722357,-1.05183,-0.177267,-4.09206,6.05226,2.52368,0,0,3.29282,5
1774300375369,-0.0060108,-1.04735,-0.175269,-3.90534,5.6631,2.49645,0,0,3.26922,5
1774300375382,-0.00599351,-1.04389,-0.177171,-3.88453,5.2855,2.50928,0,0,3.28911,5
1774300375396,-0.00589155,-1.04387,-0.174622,-3.84348,4.95391,2.54023,0,0,3.25561,5
1774300375409,-0.00639195,-1.04167,-0.176168,-3.77733,4.63321,2.57116,0,0,3.48278,5
1774300375423,-0.00553587,-1.03775,-0.175307,-3.74143,4.33864,2.62819,0,0,3.31898,5
1774300375436,-0.00536851,-1.03569,-0.174784,-3.76022,4.08329,2.67259,0,0,3.30755,5
1774300375450,-0.00576366,-1.03324,-0.173012,-3.71501,3.86923,2.7342,0,0,3.3068,5
1774300375463,-0.00628034,-1.02998,-0.172621,-3.66334,3.65563,2.80435,0,0,3.25661,5
1774300375477,-0.00587756,-1.02793,-0.170378,-3.57689,3.44886,2.83588,0,0,3.29283,5
1774300375490,-0.006464,-1.0255,-0.167123,-3.49315,3.2477,2.78899,0,0,3.28037,5
1774300375504,-0.00624537,-1.02432,-0.163541,-3.42352,3.06253,2.75287,0,0,4.04265,5
1774300375517,-0.00665557,-1.02423,-0.163062,-3.35738,2.87576,2.71492,0,0,3.25991,5
1774300375531,-0.00727204,-1.0229,-0.162497,-3.28252,2.6849,2.64613,0,0,3.25283,5
1774300375544,-0.00703943,-1.02386,-0.163782,-3.21144,2.51589,2.60646,0,0,3.30541,5
1774300375558,-0.007874,-1.01828,-0.156716,-3.00047,2.33537,2.49623,0,0,3.26237,5
1774300375571,-0.00752965,-1.0155,-0.157582,-3.10963,2.17783,2.426,0,0,3.2775,5
1774300375584,-0.00830008,-1.02056,-0.154224,-3.21867,2.02955,2.37727,0,0,3.26405,5
1774300375598,-0.00912223,-1.02095,-0.153608,-3.20554,1.90843,2.34369,0,0,3.99847,5
1774300375612,-0.00944932,-1.02011,-0.154108,-3.24411,1.8168,2.34411,0,0,3.26413,5
1774300375625,-0.0088866,-1.01972,-0.151351,-3.32719,1.72045,2.37319,0,0,3.26194,5
1774300375638,-0.00814563,-1.01851,-0.149312,-3.42059,1.6111,2.41606,0,0,3.31554,5
1774300375652,-0.00860085,-1.01854,-0.148537,-3.59311,1.52373,2.46466,0,0,3.29507,5
1774300375665,-0.00953797,-1.01642,-0.145917,-3.76109,1.44083,2.50239,0,0,3.27919,5
1774300375679,-0.010338,-1.01738,-0.146689,-3.99672,1.34374,2.55,0,0,3.25493,5
1774300375692,-0.0103557,-1.01521,-0.142399,-4.04871,1.25081,2.51144,0,0,3.29191,5
1774300375705,-0.0100203,-1.014,-0.146133,-4.24295,1.2316,2.63091,0,0,3.25396,5
1774300375719,-0.00931512,-1.00502,-0.144099,-4.23489,1.17537,2.70299,0,0,3.88393,5
1774300375733,-0.0109897,-1.00105,-0.15267,-4.71969,1.20963,3.01853,0,0,3.26902,5
1774300375746,-0.0134773,-1.01017,-0.147926,-5.27108,1.09125,2.97167,0,0,3.2835,5
1774300375759,-0.00652448,-1.00924,-0.146987,-5.14625,0.866904,3.00538,0,0,3.281,5
1774300375773,-0.00078326,-0.998942,-0.14878,-5.8193,0.682971,3.29752,0,0,3.25583,5
1774300375786,0.00190954,-1.00353,-0.148455,-6.49098,0.42072,3.6251,0,0,3.27526,5
1774300375799,0.00765561,-1.0055,-0.141568,-7.02008,0.0562843,3.89704,0,0,3.25685,5
1774300375814,0.000423542,-1.01304,-0.141249,-8.11297,-0.124142,3.69815,0,0,4.10611,5
1774300375827,-0.000780115,-1.04466,-0.138243,-10.6415,-0.0482406,3.11476,0,0,3.25598,5
1774300375840,-0.00029757,-1.05865,-0.137141,-13.2102,0.0152678,2.35215,0,0,3.29952,5
1774300375854,-0.000241849,-1.07474,-0.135852,-16.1285,0.192965,1.41094,0,0,3.29815,5
1774300375867,-0.00574055,-1.07856,-0.130733,-19.861,0.439481,0.502825,0,0,3.26091,5
1774300375881,-0.0108279,-1.09299,-0.125656,-24.0955,0.626782,-0.385606,0,0,3.27911,5
1774300375894,-0.0131518,-1.10381,-0.125275,-28.5878,0.759045,-1.45243,0,0,3.26602,5
1774300375908,-0.0181606,-1.11403,-0.125615,-33.4327,1.00592,-2.64138,0,0,4.07661,5
1774300375922,-0.0232067,-1.12272,-0.125546,-38.5056,1.2595,-4.08137,0,0,3.26478,5
1774300375935,-0.0271779,-1.13172,-0.127166,-43.8265,1.507,-5.67137,0,0,3.26061,5
1774300375948,-0.0317015,-1.14078,-0.129367,-49.4078,1.75346,-7.47363,0,0,3.32126,5
1774300375962,-0.0309023,-1.15414,-0.129058,-55.4969,1.92229,-9.53019,0,0,3.26744,5
1774300375975,-0.0174967,-1.17418,-0.127408,-62.0511,1.90952,-11.3395,0,0,3.28457,5
1774300375988,-0.00965271,-1.18915,-0.127761,-69.0915,1.67096,-13.1437,0,0,3.30768,5
1774300376002,-0.00621969,-1.20972,-0.129723,-76.5346,1.25052,-15.2466,0,0,3.33874,5
1774300376015,-0.000833453,-1.22064,-0.134363,-84.0202,0.493139,-18.2412,0,0,3.25896,5
1774300376029,0.0119405,-1.22686,-0.144012,-91.2451,-0.610983,-22.3198,0,0,3.26426,5
1774300376042,0.0339679,-1.23756,-0.153718,-97.9727,-2.56778,-27.116,0,0,3.5877,5
1774300376056,0.0572528,-1.23704,-0.164976,-103.681,-5.32599,-31.6226,0,0,3.26767,5
1774300376069,0.0822206,-1.23983,-0.176424,-108.804,-8.82312,-35.8044,0,0,3.28754,5
1774300376083,0.103523,-1.22967,-0.180656,-113.077,-13.0742,-39.7573,0,0,3.25352,5
1774300376096,0.118396,-1.2083,-0.170417,-116.571,-18.1715,-42.6633,0,0,3.29163,5
1774300376109,0.121984,-1.14661,-0.135899,-117.766,-23.274,-42.8933,0,0,3.27178,3
1774300376123,0.130038,-1.02817,-0.121499,-113.253,-28.2774,-39.4519,0,0,4.0578,3
1774300376137,0.128334,-0.985791,-0.105274,-103.554,-32.5993,-34.3894,0,0,3.26224,3
1774300376150,0.12538,-0.953517,-0.0844305,-92.289,-36.6057,-29.4066,0,0,3.28631,3
1774300376164,0.122961,-0.923413,-0.0622244,-81.0873,-40.3496,-24.9658,0,0,3.28467,3
1774300376177,0.116484,-0.899226,-0.0440217,-70.1285,-43.6767,-21.2943,0,0,3.26033,3
1774300376190,0.10635,-0.873322,-0.0282806,-59.31,-46.4164,-18.4419,0,0,3.28198,3
1774300376204,0.0906914,-0.846724,-0.0150964,-48.2163,-48.1554,-16.3108,0,0,3.26378,3
1774300376217,0.0724609,-0.823575,-0.00397286,-36.6684,-48.7183,-14.6196,0,0,3.32661,3
1774300376230,0.0531485,-0.805954,0.005383,-24.7642,-48.2092,-13.1967,0,0,3.26363,3
1774300376244,0.0343071,-0.79709,0.0135183,-12.7946,-46.6585,-12.1931,0,0,3.46493,3
1774300376257,0.0175495,-0.795618,0.0199632,-1.12734,-44.2465,-11.6364,0,0,3.29276,3
1774300376271,0.00212261,-0.797146,0.0253361,10.1081,-41.1103,-11.3493,0,0,3.25733,3
1774300376284,-0.0119463,-0.801533,0.0305274,21.0512,-37.4097,-11.0762,0,0,3.28991,1
1774300376298,-0.0242681,-0.808686,0.035086,31.7873,-33.2774,-10.5517,0,0,3.26241,1
1774300376311,-0.0348019,-0.821644,0.0394666,42.2748,-28.8053,-9.72049,0,0,3.3247,1
1774300376324,-0.0421204,-0.842107,0.0426414,52.2639,-24.1126,-8.70424,0,0,3.25878,1
1774300376338,-0.0445598,-0.870483,0.0437234,61.4406,-19.3872,-7.78267,0,0,3.27519,1
1774300376351,-0.0409882,-0.907409,0.0411279,69.4024,-14.8366,-7.0815,0,0,3.30704,1
1774300376364,-0.0314336,-0.951902,0.0340015,75.7941,-10.6268,-6.77035,0,0,3.271,1
1774300376378,-0.0174068,-0.988663,0.0208447,80.9922,-6.78681,-6.73313,0,0,3.29711,5
1774300376391,0.00179343,-1.02114,0.00566879,85.7216,-3.40625,-6.2574,0,0,3.26659,5
1774300376405,0.0249586,-1.06335,-0.0117903,89.1875,-0.628941,-5.54545,0,0,4.11212,5
1774300376419,0.0505807,-1.10482,-0.0324469,90.9929,1.35244,-5.22882,0,0,3.26935,5
1774300376432,0.0715055,-1.1379,-0.0562788,91.3706,2.71229,-5.42922,0,0,3.26396,5
1774300376446,0.0840093,-1.1564,-0.0823569,91.1746,3.73296,-6.11294,0,0,3.409,5
1774300376459,0.0857272,-1.17249,-0.110369,90.6065,4.68138,-7.70631,0,0,3.28,5
1774300376472,0.0779743,-1.17018,-0.137979,90.6611,5.79027,-10.3142,0,0,3.298,5
1774300376486,0.0644212,-1.17361,-0.165695,90.8737,7.27157,-13.7049,0,0,3.26091,5
1774300376499,0.0459943,-1.17635,-0.196778,90.9582,9.31591,-16.8977,0,0,3.30304,5
1774300376513,0.028053,-1.16776,-0.230432,91.0972,12.0394,-18.3884,0,0,3.25726,5
1774300376527,0.0153271,-1.16243,-0.26445,91.0399,15.2199,-18.1791,0,0,4.04723,5
1774300376540,0.0124467,-1.16001,-0.298443,90.1595,18.2267,-17.3444,0,0,3.25922,5
1774300376554,0.0157567,-1.15675,-0.332979,88.2434,20.5917,-16.759,0,0,3.2803,5
1774300376567,0.0216233,-1.15105,-0.367167,85.3472,22.1296,-16.4938,0,0,3.28883,5
1774300376580,0.0251833,-1.14441,-0.396775,81.7917,22.8297,-16.2961,0,0,3.26787,5
1774300376594,0.0245517,-1.13482,-0.429306,76.8039,22.9493,-15.6505,0,0,3.2817,5
1774300376607,0.0209156,-1.14404,-0.461374,70.5227,22.5616,-14.0588,0,0,3.25822,5
1774300376620,0.0144809,-1.15827,-0.489136,62.843,21.8557,-11.3678,0,0,3.33381,5
1774300376634,0.01909,-1.16638,-0.411884,56.6037,19.6805,-8.51983,0,0,3.26815,5
1774300376647,0.0159703,-0.986138,-0.386419,47.3292,18.3012,-6.86442,0,0,3.28778,5
1774300376661,0.0225855,-1.03728,-0.342379,34.1983,16.1674,-4.03872,0,0,3.29954,5
1774300376674,0.022185,-1.05944,-0.321694,24.0572,13.8955,-1.51538,0,0,3.27631,5
1774300376687,0.00719607,-1.03265,-0.327239,16.9302,12.8591,-0.775257,0,0,3.28168,5
1774300376701,-0.000389593,-1.00764,-0.327181,13.0745,12.4774,-0.770308,0,0,3.26093,5
1774300376715,-0.00276418,-1.00287,-0.317731,10.3864,12.9237,-0.495451,0,0,4.05878,5
1774300376728,-0.00304902,-1.00603,-0.311651,8.83613,12.8235,0.0765652,0,0,3.25852,5
1774300376742,-0.00366306,-1.00221,-0.303702,8.11526,12.1372,0.165615,0,0,3.28495,5
1774300376755,-0.00609735,-1.00306,-0.294958,7.48322,11.5052,-0.0222284,0,0,3.30557,5
1774300376769,-0.00763509,-1.00361,-0.285667,6.99453,10.8911,-0.279178,0,0,3.27756,5
1774300376782,-0.00624417,-1.00397,-0.277509,6.45789,10.3624,-0.460484,0,0,3.29376,5
1774300376795,-0.00458311,-1.00264,-0.271758,5.84173,9.9032,-0.484324,0,0,3.29517,5
1774300376809,-0.000891331,-1.00468,-0.266034,5.37618,9.42692,-0.351395,0,0,3.29296,5
1774300376822,-4.09077e-05,-0.998593,-0.257293,4.92261,8.8429,-0.16041,0,0,3.26885,5
1774300376837,0.00293973,-1.00105,-0.250418,4.29666,8.32162,0.166302,0,0,4.0975,5
1774300376850,0.00211717,-1.00299,-0.243546,3.76791,7.95589,0.476829,0,0,3.32328,5
1774300376863,-0.000644638,-1.0033,-0.238842,3.27139,7.66121,0.74339,0,0,3.29468,5
1774300376877,-0.00213256,-1.00067,-0.230446,2.89991,7.38562,0.887953,0,0,3.27759,5
1774300376890,-0.0021781,-1.00259,-0.227885,2.47905,7.08695,1.05309,0,0,3.26235,5
1774300376903,-0.00202946,-0.998042,-0.215485,2.31602,6.70784,1.11777,0,0,3.27085,5
1774300376917,-0.00211154,-0.999366,-0.21377,1.84099,6.46903,1.25161,0,0,3.26846,5
1774300376930,-0.00205123,-0.997183,-0.199552,1.77583,6.29328,1.2619,0,0,3.28689,5
1774300376944,-0.0025274,-0.995523,-0.194327,1.30284,6.09057,1.36668,0,0,3.26109,5
1774300376958,-0.00159475,-1.0038,-0.188669,1.05506,5.84656,1.39663,0,0,3.31839,5
1774300376972,-0.00251796,-1.00151,-0.184219,1.02586,5.62694,1.40265,0,0,3.30978,5
1774300376985,-0.00296304,-1.00013,-0.181191,0.815023,5.40894,1.43187,0,0,3.27324,5
1774300376998,-0.0022142,-1.00396,-0.180165,0.667826,5.17705,1.47016,0,0,3.29919,5
1774300377012,-0.00237361,-1.00368,-0.177742,0.616664,4.95945,1.50031,0,0,3.2792,5
1774300377025,-0.00074301,-1.0038,-0.174036,0.5217,4.68683,1.54161,0,0,3.34852,5
1774300377039,-0.000496979,-1.00604,-0.175714,0.415791,4.37683,1.52365,0,0,3.27619,5
1774300377052,-0.000571337,-1.00821,-0.170304,0.413021,4.08294,1.48443,0,0,3.27496,5
1774300377065,-0.00174216,-1.00573,-0.170213,0.37658,3.82052,1.40545,0,0,3.31483,5
1774300377079,-0.00173003,-1.00731,-0.167808,0.285663,3.55441,1.33389,0,0,3.27589,5
1774300377092,-0.00223093,-1.00398,-0.166662,0.236669,3.31692,1.3036,0,0,3.29644,5
1774300377106,-0.00259247,-1.00426,-0.165043,0.0778101,3.09404,1.31141,0,0,3.31589,5
1774300377119,-0.00383506,-1.00405,-0.162352,-0.00962264,2.89908,1.32862,0,0,3.32504,5
1774300377133,-0.0044254,-1.00371,-0.157793,-0.0870128,2.71891,1.37056,0,0,3.27796,5
1774300377147,-0.00470165,-1.00351,-0.157961,-0.212301,2.56726,1.43541,0,0,3.7001,5
1774300377160,-0.00475228,-1.00361,-0.152377,-0.253487,2.43139,1.47822,0,0,3.30535,5
1774300377173,-0.00543063,-0.99946,-0.149087,-0.352738,2.31641,1.53317,0,0,3.27515,5
1774300377187,-0.00548141,-1.00646,-0.148492,-0.592005,2.1929,1.62744,0,0,3.29169,5
1774300377200,-0.00612788,-1.00703,-0.147892,-0.526684,2.0532,1.6599,0,0,3.27515,5
1774300377214,-0.00674607,-1.0032,-0.14735,-0.495,1.92733,1.66057,0,0,3.28967,5
1774300377227,-0.00660053,-1.00229,-0.146928,-0.505343,1.78839,1.62608,0,0,3.27582,5
1774300377241,-0.00737956,-1.00154,-0.143727,-0.489843,1.65125,1.59439,0,0,3.85839,5
1774300377254,-0.00829535,-1.0008,-0.140207,-0.487201,1.5111,1.5709,0,0,3.28739,5
1774300377268,-0.00908568,-1.00182,-0.138196,-0.500978,1.36425,1.54101,0,0,3.31559,5
1774300377281,-0.00911541,-1.00205,-0.134918,-0.498569,1.22992,1.48498,0,0,3.30774,5
1774300377294,-0.00986988,-1.00484,-0.134655,-0.590923,1.11212,1.46291,0,0,3.26822,5
1774300377308,-0.00917132,-1.0023,-0.132311,-0.523522,0.943547,1.3907,0,0,3.30063,5
1774300377321,-0.00853534,-1.00075,-0.134447,-0.560525,0.833672,1.40989,0,0,3.27135,5
1774300377335,-0.00868524,-0.999265,-0.133852,-0.502965,0.699131,1.3398,0,0,3.90221,5
1774300377349,-0.0101312,-1.00103,-0.13859,-0.664439,0.608105,1.36099,0,0,3.27383,5
1774300377362,-0.0101899,-1.00709,-0.140238,-0.703814,0.484504,1.37371,0,0,3.28394,5
1774300377375,-0.0112497,-1.00352,-0.139561,-0.654915,0.402519,1.38229,0,0,3.28902,5
1774300377389,-0.013064,-1.00222,-0.140397,-0.844262,0.367095,1.39125,0,0,3.276,5
1774300377402,-0.0152793,-1.00204,-0.139009,-1.09621,0.331089,1.43053,0,0,3.30307,5
1774300377415,-0.0184227,-1.00782,-0.141738,-1.75407,0.348057,1.5798,0,0,3.27244,5
1774300377429,-0.0163038,-1.0076,-0.130543,-2.10356,0.360647,1.78835,0,0,3.33944,5
1774300377442,-0.0127294,-1.00185,-0.131069,-2.74774,0.527535,2.03401,0,0,3.27848,5
1774300377456,-0.0125357,-1.0179,-0.11939,-3.47525,0.610129,2.27788,0,0,3.27439,5
1774300377469,-0.00938235,-1.01376,-0.119197,-4.28056,0.646985,2.86175,0,0,3.30987,5
1774300377482,-0.00636687,-1.02065,-0.109693,-5.26935,0.802521,3.59828,0,0,3.26885,5
1774300377496,-0.00397441,-1.02471,-0.100998,-6.1727,0.854276,4.24725,0,0,3.28967,5
1774300377509,-0.00303186,-1.02665,-0.0999126,-7.43087,0.836759,5.06492,0,0,3.28069,5
1774300377523,0.00273813,-1.03553,-0.0994082,-8.81586,0.681064,5.98573,0,0,3.30557,5
1774300377536,0.014363,-1.03941,-0.0918364,-10.2139,0.0189937,7.11266,0,0,3.27811,5
1774300377550,-0.0271363,-1.08171,-0.0795883,-12.0937,0.0243511,6.69314,0,0,3.68134,5
1774300377563,-0.0328575,-1.08442,-0.0751575,-17.153,0.262341,6.0912,0,0,3.35728,5
1774300377577,-0.0393535,-1.10984,-0.0735256,-21.92,0.448017,5.225,0,0,3.29339,5
1774300377590,-0.0536051,-1.12753,-0.0727338,-27.5316,0.771002,4.12907,0,0,3.30082,5
1774300377604,-0.0669985,-1.14272,-0.075169,-33.2896,1.30795,2.37055,0,0,3.27883,5
1774300377617,-0.0769128,-1.15353,-0.0738035,-39.4709,1.89913,0.193415,0,0,3.29846,5
1774300377630,-0.0858383,-1.16895,-0.0733519,-46.0685,2.49996,-2.31333,0,0,3.26763,5
1774300377644,-0.0780272,-1.18791,-0.071169,-53.4248,2.90139,-4.64479,0,0,3.90026,5
1774300377658,-0.0624752,-1.20291,-0.069861,-61.2192,2.93989,-6.18306,0,0,3.28791,5
1774300377671,-0.0498456,-1.21804,-0.072582,-69.5261,2.75401,-7.19188,0,0,3.29848,5
1774300377685,-0.0396794,-1.23387,-0.0774902,-78.3143,2.36788,-7.98054,0,0,3.29728,5
1774300377698,-0.0252813,-1.24424,-0.0827496,-87.0436,1.66985,-8.95918,0,0,3.26728,5
1774300377711,-0.00792546,-1.2467,-0.0924662,-95.7274,0.537834,-10.2533,0,0,3.30652,5
1774300377725,0.0123015,-1.25578,-0.103861,-103.587,-1.33011,-11.2693,0,0,3.27531,5
1774300377738,0.0301705,-1.25617,-0.116071,-110.728,-3.55486,-11.6349,0,0,3.34782,5
1774300377752,0.0466815,-1.24814,-0.126573,-116.901,-6.23673,-11.9435,0,0,3.27107,5
1774300377765,0.0636341,-1.23777,-0.132227,-122.133,-9.47295,-12.118,0,0,3.31378,5
1774300377778,0.0756281,-1.22001,-0.130928,-126.782,-13.2136,-11.8399,0,0,3.28978,5
1774300377792,0.0904394,-1.11183,-0.0938445,-128.003,-17.5083,-11.3851,0,0,3.27494,5
1774300377805,0.106717,-1.00164,-0.0789248,-122.356,-22.2361,-10.6146,0,0,3.29033,3
1774300377819,0.111189,-0.970304,-0.070786,-113.056,-26.8927,-10.3348,0,0,3.26922,3
1774300377832,0.108398,-0.939636,-0.0482691,-102.142,-31.2606,-9.33933,0,0,3.34445,3
1774300377845,0.100358,-0.911484,-0.0305699,-90.9678,-34.7811,-7.56816,0,0,3.27054,3
1774300377859,0.0893391,-0.887894,-0.0162179,-79.9301,-37.3488,-5.82739,0,0,3.27541,3
1774300377872,0.0774351,-0.859175,-0.00324089,-68.7597,-38.9234,-4.74777,0,0,3.30822,3
1774300377886,0.0640978,-0.837146,0.00989461,-57.4921,-39.4817,-4.59193,0,0,3.27228,3
1774300377899,0.0511729,-0.81495,0.0222421,-46.0461,-39.0634,-5.23012,0,0,3.29956,3
1774300377912,0.0385571,-0.795005,0.0338255,-34.2551,-37.7654,-6.41528,0,0,3.27928,3
1774300377926,0.0263648,-0.781495,0.0455855,-22.2096,-35.6989,-7.92532,0,0,3.29556,3
1774300377939,0.015261,-0.774064,0.0561266,-10.2091,-33.0456,-9.60072,0,0,3.28037,2
1774300377953,0.0054755,-0.769648,0.0659185,1.7512,-30.0153,-11.3727,0,0,3.7013,2
1774300377967,-0.00330547,-0.768351,0.0750792,13.804,-26.7337,-13.1266,0,0,3.3253,2
1774300377980,-0.011916,-0.774179,0.0831026,25.8441,-23.3107,-14.6439,0,0,3.27267,2
1774300377993,-0.0197442,-0.789564,0.0899424,37.5881,-19.7989,-15.7613,0,0,3.29663,2
1774300378007,-0.0250733,-0.814227,0.0941554,48.5732,-16.3491,-16.5856,0,0,3.28143,2
1774300378020,-0.0288668,-0.850869,0.0934971,58.3149,-13.0809,-17.574,0,0,3.29574,2
1774300378033,-0.0294942,-0.900686,0.0873476,66.1279,-10.0957,-18.8431,0,0,3.27104,2
1774300378047,-0.0265815,-0.944555,0.0747939,72.3397,-7.49085,-19.3858,0,0,3.81532,2
1774300378061,-0.012959,-0.978381,0.0594047,78.4064,-5.68378,-18.0655,0,0,3.28195,2
1774300378074,0.0102107,-1.02581,0.0410904,83.2791,-5.04382,-16.2258,0,0,3.29252,2
1774300378088,0.0384529,-1.08188,0.0150249,86.0244,-5.83736,-14.5633,0,0,3.30037,5
1774300378101,0.0566944,-1.15397,-0.0136697,86.0937,-7.51941,-13.3345,0,0,3.2805,5
1774300378114,0.0617849,-1.1709,-0.0463304,85.2325,-9.31006,-12.6426,0,0,3.29028,5
1774300378128,0.0547267,-1.17631,-0.078118,84.7326,-10.5121,-12.8476,0,0,3.31348,5
1774300378142,0.039094,-1.18321,-0.108697,85.6939,-10.8307,-14.1887,0,0,3.89749,5
1774300378155,0.0136069,-1.16702,-0.136177,87.9736,-9.88104,-17.0692,0,0,3.28059,5
1774300378169,-0.0164457,-1.1662,-0.163576,90.9993,-7.56223,-20.8998,0,0,3.36985,5
1774300378182,-0.04512,-1.1687,-0.192062,93.7089,-3.84273,-23.6411,0,0,3.29463,5
1774300378195,-0.0661127,-1.17094,-0.222142,95.3708,0.964264,-24.399,0,0,3.28395,5
1774300378209,-0.0745923,-1.17593,-0.253864,95.7525,6.04113,-23.6996,0,0,3.29393,5
1774300378222,-0.0749817,-1.17936,-0.287242,94.8051,10.6594,-22.5706,0,0,3.27996,5
1774300378236,-0.0727062,-1.17899,-0.322235,92.4619,14.5082,-21.639,0,0,3.29302,5
1774300378249,-0.0717154,-1.17541,-0.358645,88.9723,17.5335,-20.8765,0,0,3.27306,5
1774300378263,-0.0724334,-1.17125,-0.39391,84.4493,19.8017,-20.0609,0,0,3.8308,5
1774300378276,-0.071305,-1.16985,-0.426,78.8174,21.4026,-19.0881,0,0,3.34985,5
1774300378290,-0.0660086,-1.16927,-0.455149,72.1792,22.239,-17.8744,0,0,3.29402,5
1774300378303,-0.0585415,-1.16935,-0.481144,64.6823,22.2753,-16.1935,0,0,3.30456,5
1774300378317,-0.0444823,-1.10674,-0.468292,57.7181,21.3204,-13.7728,0,0,3.28089,5
1774300378330,-0.0491139,-1.04957,-0.425999,43.2942,20.5205,-12.5228,0,0,3.29535,5
1774300378344,-0.0613478,-1.1786,-0.388247,31.7222,17.3703,-10.7825,0,0,3.27576,5
1774300378358,-0.0359445,-1.1679,-0.367883,22.3138,15.534,-7.96438,0,0,3.78597,5
1774300378371,-0.0334864,-1.1296,-0.364554,13.8417,13.7802,-5.73124,0,0,3.32924,5
1774300378384,-0.0419194,-1.09799,-0.361487,8.19338,13.1305,-4.7298,0,0,3.28507,5
1774300378398,-0.0404385,-1.09434,-0.350013,4.32458,13.2932,-4.13308,0,0,3.30304,5
1774300378411,-0.0447879,-1.08927,-0.340931,1.7334,13.1856,-3.74667,0,0,3.30728,5
1774300378425,-0.0453276,-1.07918,-0.338001,0.323778,12.7243,-3.39607,0,0,3.30458,5
1774300378439,-0.0461213,-1.07265,-0.328056,-0.0904561,12.118,-3.25952,0,0,3.27811,5
1774300378452,-0.0436559,-1.06946,-0.314819,-0.325167,11.5076,-3.37428,0,0,3.29474,5
1774300378466,-0.0432308,-1.06847,-0.304735,-0.480771,11.0249,-3.50272,0,0,3.27082,5
1774300378480,-0.0423652,-1.0676,-0.297334,-0.636639,10.3872,-3.50407,0,0,3.83884,5
1774300378493,-0.0377257,-1.06036,-0.287235,-0.678858,9.71633,-3.47194,0,0,3.27802,5
1774300378506,-0.0345064,-1.05817,-0.281987,-0.826612,9.05657,-3.3183,0,0,3.28469,5
1774300378520,-0.0314812,-1.05201,-0.269623,-0.84062,8.42696,-3.13216,0,0,3.28748,5
1774300378533,-0.0289834,-1.05319,-0.266448,-1.14586,7.9654,-2.84044,0,0,3.27695,5
1774300378547,-0.0293281,-1.04676,-0.25297,-1.17622,7.53744,-2.62673,0,0,3.28795,5
1774300378560,-0.0283231,-1.04498,-0.243946,-1.48319,7.16774,-2.42972,0,0,3.27311,5
1774300378574,-0.0275115,-1.04529,-0.23694,-1.50319,6.80851,-2.33411,0,0,3.96423,5
1774300378588,-0.0280594,-1.0402,-0.227443,-1.47025,6.43602,-2.22716,0,0,3.30911,5
1774300378601,-0.0269604,-1.0376,-0.220229,-1.52438,6.07544,-2.14206,0,0,3.27517,5
1774300378614,-0.0262511,-1.03734,-0.213769,-1.52065,5.80445,-2.03304,0,0,3.29096,5
1774300378628,-0.0253167,-1.03465,-0.207869,-1.45976,5.54266,-1.9601,0,0,3.28235,5
1774300378641,-0.0235475,-1.03365,-0.201223,-1.42541,5.23133,-1.92509,0,0,3.28843,5
1774300378655,-0.0229555,-1.03325,-0.196449,-1.40883,4.94303,-1.82396,0,0,3.27087,5
1774300378668,-0.0206063,-1.03333,-0.192235,-1.34051,4.67947,-1.68696,0,0,3.28502,5
1774300378682,-0.0195236,-1.03153,-0.188526,-1.29272,4.41698,-1.56108,0,0,3.29672,5
1774300378696,-0.0174847,-1.03145,-0.184434,-1.23134,4.16965,-1.414,0,0,3.9481,5
1774300378709,-0.0160901,-1.03024,-0.184932,-1.20595,3.92292,-1.27731,0,0,3.28733,5
1774300378722,-0.0143721,-1.0331,-0.180805,-1.18968,3.67247,-1.10632,0,0,3.26984,5
1774300378736,-0.0133165,-1.03271,-0.179229,-1.10797,3.41724,-0.978323,0,0,3.28308,5
1774300378749,-0.0122964,-1.03067,-0.178107,-1.07836,3.18702,-0.810405,0,0,3.27767,5
1774300378763,-0.0111607,-1.03074,-0.176649,-1.12363,2.98256,-0.639917,0,0,3.27728,5
1774300378776,-0.0109075,-1.0294,-0.175971,-1.18221,2.79085,-0.474282,0,0,3.31663,5
1774300378790,-0.00972586,-1.03012,-0.175578,-1.24778,2.60904,-0.269125,0,0,3.69037,5
1774300378803,-0.010112,-1.02375,-0.16995,-1.23859,2.42716,-0.120007,0,0,3.27517,5
1774300378817,-0.0103744,-1.02268,-0.167311,-1.44958,2.28416,0.080693,0,0,3.26889,5
1774300378830,-0.0104973,-1.02477,-0.164265,-1.54125,2.13891,0.217468,0,0,3.2692,5
1774300378843,-0.0104332,-1.02308,-0.162142,-1.52545,2.01765,0.373547,0,0,3.26865,5
1774300378857,-0.0103827,-1.01953,-0.161447,-1.57177,1.89163,0.527294,0,0,3.27128,5
1774300378870,-0.0110924,-1.01851,-0.15854,-1.6249,1.80094,0.646726,0,0,3.26476,5
1774300378884,-0.0109169,-1.0173,-0.156176,-1.66007,1.71234,0.776157,0,0,3.30785,5
1774300378897,-0.0105676,-1.01714,-0.152207,-1.72239,1.612,0.885483,0,0,3.28267,5
1774300378910,-0.0101055,-1.01564,-0.148081,-1.73454,1.51216,0.947999,0,0,3.27687,5
1774300378924,-0.00999453,-1.01734,-0.147275,-1.8295,1.42049,1.00444,0,0,3.28224,5
1774300378937,-0.00929052,-1.01625,-0.140119,-1.75813,1.29542,1.02903,0,0,3.27433,5
1774300378950,-0.00860663,-1.01412,-0.140354,-1.75414,1.20949,1.04367,0,0,3.2807,5
1774300378964,-0.00923387,-1.01053,-0.136298,-1.71912,1.09925,1.00868,0,0,3.27595,5
1774300378978,-0.0104956,-1.01438,-0.14505,-1.91129,1.02089,1.05786,0,0,3.8076,5
1774300378991,-0.0107733,-1.02022,-0.144099,-1.77582,0.974763,1.03577,0,0,3.27935,5
1774300379004,-0.0117329,-1.01023,-0.143274,-1.58372,0.915805,1.02306,0,0,3.2758,5
1774300379018,-0.0111984,-1.00601,-0.142379,-1.6242,0.86786,1.03205,0,0,3.28235,5
1774300379031,-0.0115842,-1.00483,-0.143242,-1.73777,0.793061,1.05251,0,0,3.27328,5
1774300379044,-0.0104263,-1.00903,-0.139113,-1.82227,0.7216,1.08853,0,0,3.28361,5
1774300379058,-0.0114438,-1.00494,-0.136894,-1.84851,0.643444,1.07457,0,0,3.27656,5
1774300379071,-0.010591,-1.01175,-0.134997,-2.05569,0.596647,1.17787,0,0,3.28139,5
1774300379085,-0.0116012,-1.00833,-0.135873,-2.03715,0.535775,1.17774,0,0,3.29759,5
1774300379098,-0.0114782,-1.01468,-0.141857,-2.20077,0.53227,1.25812,0,0,3.27606,5
1774300379111,-0.0125457,-1.00854,-0.137831,-1.96814,0.511834,1.24107,0,0,3.2817,5
1774300379125,-0.0134278,-1.00356,-0.13585,-2.06841,0.496398,1.25195,0,0,3.27404,5
1774300379138,-0.0129794,-1.00657,-0.135194,-2.17804,0.514369,1.29819,0,0,3.27822,5
1774300379151,-0.0138318,-1.00651,-0.135271,-2.30764,0.561734,1.36753,0,0,3.2748,5
1774300379165,-0.0137714,-1.0066,-0.133092,-2.41114,0.571759,1.42014,0,0,3.28621,5
1774300379178,-0.0121869,-1.00639,-0.132119,-2.5769,0.557672,1.5109,0,0,3.27245,5
1774300379192,-0.00983882,-1.00724,-0.130666,-2.88624,0.557648,1.65737,0,0,3.33193,5
1774300379205,-0.0151741,-1.01363,-0.128122,-3.43342,0.522515,1.78791,0,0,3.29793,5
1774300379218,-0.0125459,-1.01798,-0.130228,-3.91608,0.474794,2.16976,0,0,3.28178,5
1774300379232,-0.00466223,-1.01579,-0.12717,-3.98244,0.494834,2.37648,0,0,3.28315,5
1774300379245,-0.0026753,-1.0206,-0.125356,-4.71263,0.528736,2.65338,0,0,3.27219,5
1774300379259,-0.00280387,-1.01994,-0.123194,-5.30723,0.502503,3.19863,0,0,3.28267,5
1774300379272,-0.00308697,-1.01733,-0.114828,-6.09413,0.47346,3.68162,0,0,3.2777,5
1774300379285,-0.00294129,-1.0264,-0.114824,-7.15247,0.434914,4.36017,0,0,3.43663,5
1774300379299,0.000465144,-1.0283,-0.114533,-8.11204,0.291911,5.12226,0,0,3.28676,5
1774300379312,0.0087621,-1.02781,-0.115802,-8.94629,-0.0772888,5.84717,0,0,3.27337,5
1774300379326,-0.0221463,-1.05812,-0.10588,-10.1675,0.0704889,5.22374,0,0,3.27835,5
1774300379339,-0.031449,-1.04899,-0.105253,-13.5455,0.338005,4.72734,0,0,3.26971,5
1774300379352,-0.0347288,-1.0661,-0.100735,-17.1532,0.586662,4.02071,0,0,3.27139,5
1774300379366,-0.0426483,-1.08181,-0.0994583,-21.2552,0.948543,3.06341,0,0,3.26798,5
1774300379379,-0.0480649,-1.09729,-0.100639,-25.6371,1.36377,1.63528,0,0,3.28728,5
1774300379392,-0.0538317,-1.1087,-0.097135,-30.3606,1.82979,0.0217783,0,0,3.29397,5
1774300379406,-0.0594105,-1.11948,-0.0958553,-35.3746,2.24483,-1.72773,0,0,3.27371,5
1774300379419,-0.0652897,-1.13535,-0.0956778,-40.9512,2.62117,-3.77903,0,0,3.2803,5
1774300379433,-0.0625946,-1.15591,-0.0916537,-47.17,2.85609,-5.90709,0,0,3.27132,5
1774300379446,-0.0480806,-1.17876,-0.0882647,-53.9489,2.77724,-7.63961,0,0,3.27696,5
1774300379459,-0.0405006,-1.1988,-0.0832516,-61.4973,2.50242,-8.99234,0,0,3.26693,5
1774300379473,-0.033391,-1.22273,-0.0795894,-69.661,2.08373,-10.0701,0,0,3.27404,5
1774300379486,-0.0297847,-1.24797,-0.0793225,-78.7379,1.65299,-10.9683,0,0,3.31017,5
1774300379499,-0.0294964,-1.27497,-0.0796652,-88.1804,1.3466,-11.7884,0,0,3.28667,5
1774300379513,-0.0213839,-1.28793,-0.0861321,-97.2649,0.942223,-12.8639,0,0,3.2933,5
1774300379526,-0.00751905,-1.30171,-0.097014,-105.84,0.130625,-14.5962,0,0,3.3298,5
1774300379540,0.0131172,-1.30437,-0.114638,-113.934,-1.24818,-15.9702,0,0,3.32669,5
1774300379553,0.0329898,-1.29863,-0.130017,-121.095,-3.04206,-16.4181,0,0,3.30269,5
1774300379567,0.0494416,-1.284,-0.141051,-126.942,-5.27569,-16.19,0,0,3.30528,5
1774300379580,0.0630278,-1.26577,-0.143392,-131.687,-7.89914,-15.6518,0,0,3.29171,5
1774300379594,0.0686314,-1.23983,-0.104396,-135.586,-11.3705,-14.6295,0,0,3.32365,5
1774300379607,0.0824568,-1.0855,-0.0825131,-133.997,-14.681,-11.9275,0,0,3.28271,3
1774300379620,0.0894208,-0.976467,-0.0750609,-123.294,-18.145,-9.63518,0,0,3.28111,3
1774300379634,0.093678,-0.940426,-0.0583894,-111.457,-21.3384,-7.50443,0,0,3.2893,3
1774300379647,0.0958913,-0.910435,-0.0355392,-99.5383,-24.6678,-5.38531,0,0,3.27656,3
1774300379661,0.0938224,-0.886709,-0.0184821,-87.8802,-27.6495,-3.27757,0,0,3.28739,3
1774300379674,0.0896446,-0.860946,-0.00293972,-76.4475,-30.076,-1.32103,0,0,3.27961,3
1774300379688,0.0854893,-0.833129,0.0129052,-64.7788,-31.8997,0.319803,0,0,3.97388,3
1774300379702,0.0795512,-0.809324,0.0277262,-52.7185,-32.992,1.22803,0,0,3.28939,3
1774300379715,0.0734991,-0.786252,0.0421553,-40.0646,-33.738,1.17628,0,0,3.27417,3
1774300379728,0.067733,-0.772185,0.056199,-27.0052,-34.0031,0.183272,0,0,3.30152,3
1774300379742,0.0623686,-0.764723,0.0686355,-13.8686,-33.8942,-1.52006,0,0,3.28543,3
1774300379755,0.0567049,-0.763268,0.0798769,-0.803414,-33.4887,-3.56973,0,0,3.30158,3
1774300379769,0.0495486,-0.76683,0.0893347,12.0196,-32.837,-5.7759,0,0,3.27847,3
1774300379782,0.0427266,-0.776067,0.0975462,24.5725,-31.9803,-7.92598,0,0,3.28808,3
1774300379795,0.0358719,-0.792319,0.104363,36.6735,-31.0407,-10.0312,0,0,3.32167,3
1774300379809,0.0272457,-0.813563,0.107806,48.1993,-29.9641,-12.1657,0,0,3.94452,3
1774300379823,0.0161674,-0.844874,0.107993,58.9471,-28.5753,-13.9424,0,0,3.29272,3
1774300379836,0.00357699,-0.883283,0.103675,68.5912,-26.7109,-15.5646,0,0,3.27841,3
1774300379850,-0.00874041,-0.929323,0.0930983,76.7715,-24.3464,-17.6619,0,0,3.29167,3
1774300379863,-0.0202202,-0.970167,0.0754032,83.9825,-21.345,-19.7271,0,0,3.27108,2
1774300379876,-0.0289451,-1.00992,0.0556419,90.7322,-17.6129,-20.9499,0,0,3.28483,2
1774300379890,-0.0329643,-1.06199,0.0325594,96.0948,-13.3399,-21.5916,0,0,3.34548,2
1774300379904,-0.0299959,-1.10752,0.00326881,99.589,-8.78205,-21.7275,0,0,3.85464,2
1774300379917,-0.0234738,-1.13546,-0.032962,102.145,-4.23238,-21.7766,0,0,3.26935,5
1774300379931,-0.0166924,-1.15094,-0.0730216,104.607,0.121606,-22.5398,0,0,3.30754,5
1774300379944,-0.0108909,-1.16534,-0.114383,106.99,4.2288,-23.9375,0,0,3.311,5
1774300379957,-0.0062933,-1.1779,-0.159733,108.806,8.08249,-25.5292,0,0,3.30104,5
1774300379971,-0.00509987,-1.18565,-0.20784,109.861,11.7478,-26.9142,0,0,3.28798,5
1774300379984,-0.00377712,-1.19189,-0.259919,110.003,15.1301,-27.9629,0,0,3.31128,5
1774300379998,0.00152365,-1.19848,-0.316393,108.741,17.936,-28.5238,0,0,3.34865,5
1774300380011,0.011504,-1.20232,-0.375511,105.876,19.8433,-28.3223,0,0,3.28458,5
1774300380025,0.0215176,-1.20411,-0.433827,101.41,20.7269,-27.4667,0,0,3.84525,5
1774300380038,0.0273137,-1.20176,-0.488632,95.5008,20.7931,-26.3212,0,0,3.34587,5
1774300380052,0.0219659,-1.20561,-0.536727,87.514,20.6801,-24.3031,0,0,3.27782,5
1774300380065,2.51836e-05,-1.21174,-0.577722,78.4149,21.1991,-20.3866,0,0,3.28387,5
1774300380078,0.00276804,-1.18564,-0.596659,70.3481,21.9287,-16.3738,0,0,3.26971,5
1774300380092,-0.0305581,-1.30872,-0.55487,52.3713,21.8106,-11.3161,0,0,3.30974,5
1774300380105,-0.0290936,-1.33086,-0.439701,43.8972,18.0772,-8.69243,0,0,3.28241,5
1774300380119,-0.0218849,-1.28328,-0.387972,33.9147,16.5601,-5.60319,0,0,3.85217,5
1774300380133,-0.0428902,-1.24291,-0.375585,24.0793,14.9564,-3.51963,0,0,3.31341,5
1774300380146,-0.0500258,-1.23726,-0.377449,16.7503,14.4112,-2.46712,0,0,3.28437,5
1774300380159,-0.0551517,-1.21228,-0.364658,13.4198,15.3121,-2.06668,0,0,3.29452,5
1774300380173,-0.0496862,-1.19388,-0.359815,10.8233,16.1655,-1.52985,0,0,3.27943,5
1774300380186,-0.0505669,-1.18723,-0.356357,9.15767,15.5375,-0.842434,0,0,3.28282,5
1774300380200,-0.0514197,-1.17591,-0.344403,8.25478,14.7559,-0.718963,0,0,3.29876,5
1774300380213,-0.0509114,-1.16719,-0.334392,7.34258,13.9706,-0.730445,0,0,3.29856,5
1774300380226,-0.0473823,-1.15942,-0.326195,6.62114,13.2598,-0.704459,0,0,3.31389,5
1774300380240,-0.0434417,-1.15,-0.318955,6.03308,12.5691,-0.617415,0,0,3.94915,5
1774300380254,-0.0396948,-1.14276,-0.311018,5.5144,11.9531,-0.468457,0,0,3.29378,5
1774300380267,-0.0375317,-1.13912,-0.305146,5.05608,11.2946,-0.315437,0,0,3.28406,5
1774300380281,-0.0355914,-1.13165,-0.297845,4.74207,10.6114,-0.278047,0,0,3.28148,5
1774300380294,-0.0344513,-1.12784,-0.289987,4.35104,9.97294,-0.244467,0,0,3.28504,5
1774300380308,-0.0349092,-1.12259,-0.281415,3.96825,9.38913,-0.206348,0,0,3.33322,5
1774300380321,-0.0350802,-1.11869,-0.274842,3.51359,8.89972,-0.147244,0,0,3.27191,5
1774300380335,-0.0345497,-1.11273,-0.26862,3.13409,8.48273,-0.0768981,0,0,3.78854,5
1774300380348,-0.0327291,-1.10467,-0.261335,2.80329,8.05829,0.0147653,0,0,3.29115,5
1774300380362,-0.0314259,-1.09687,-0.253793,2.54585,7.68079,0.150529,0,0,3.31961,5
1774300380375,-0.0300516,-1.09177,-0.24515,2.35038,7.27479,0.302655,0,0,3.30526,5
1774300380389,-0.0294313,-1.08728,-0.240771,2.18943,6.88086,0.449674,0,0,3.27952,5
1774300380402,-0.0283471,-1.08342,-0.231149,2.1514,6.48762,0.540061,0,0,3.32835,5
1774300380416,-0.0279082,-1.07928,-0.225172,1.96307,6.14127,0.633513,0,0,3.27137,5
1774300380429,-0.0275525,-1.0819,-0.221111,1.81313,5.7878,0.719583,0,0,3.29202,5
1774300380442,-0.0280238,-1.07943,-0.221158,1.79193,5.48327,0.793117,0,0,3.27984,5
1774300380456,-0.02856,-1.07439,-0.215767,1.78091,5.15857,0.843259,0,0,3.9484,5
1774300380470,-0.0282612,-1.07089,-0.212118,1.70242,4.78358,0.847341,0,0,3.29248,5
1774300380483,-0.0275805,-1.06902,-0.210508,1.61164,4.44889,0.855047,0,0,3.27132,5
1774300380497,-0.0278797,-1.06631,-0.20664,1.60516,4.13682,0.846051,0,0,3.29,5
1774300380510,-0.0277068,-1.06442,-0.205141,1.56479,3.82299,0.839699,0,0,3.31022,5
1774300380524,-0.0279045,-1.06242,-0.201359,1.48087,3.56359,0.866247,0,0,3.31239,5
1774300380537,-0.0279013,-1.0596,-0.199802,1.45904,3.31489,0.855337,0,0,3.27111,5
1774300380551,-0.0287845,-1.05245,-0.197449,1.43415,3.10797,0.860454,0,0,3.45828,5
1774300380564,-0.028273,-1.05118,-0.192028,1.37682,2.85956,0.768514,0,0,3.32863,5
1774300380578,-0.0287235,-1.04928,-0.193229,1.27562,2.62979,0.735255,0,0,3.30491,5
1774300380591,-0.0277557,-1.04913,-0.190704,1.35222,2.3808,0.673888,0,0,3.30654,5
1774300380604,-0.0269475,-1.03483,-0.181958,1.43608,2.20315,0.633947,0,0,3.30206,5
1774300380618,-0.0267086,-1.0377,-0.175965,1.11746,2.0526,0.593249,0,0,3.29874,5
1774300380631,-0.027708,-1.03997,-0.170181,1.12072,1.90963,0.5771,0,0,3.27443,5
1774300380645,-0.0271796,-1.03616,-0.167287,1.11309,1.78967,0.6081,0,0,3.30185,5
1774300380658,-0.0253076,-1.0324,-0.159555,1.05151,1.67472,0.622804,0,0,3.26893,5
1774300380672,-0.025023,-1.0348,-0.158898,0.748889,1.58036,0.734309,0,0,3.68075,5
1774300380685,-0.0241102,-1.03934,-0.157896,0.66963,1.47373,0.797597,0,0,3.27574,5
1774300380699,-0.0258531,-1.03262,-0.161048,0.397851,1.41975,0.842777,0,0,3.27806,5
1774300380712,-0.0244876,-1.03785,-0.156877,0.222672,1.34011,0.971489,0,0,3.3058,5
1774300380726,-0.022317,-1.02621,-0.151981,0.113411,1.27608,1.01205,0,0,3.27348,5
1774300380739,-0.0225048,-1.0277,-0.146733,-0.410199,1.22848,1.12056,0,0,3.41911,5
1774300380753,-0.0223641,-1.03009,-0.144918,-0.700194,1.15914,1.208,0,0,3.29,5
1774300380767,-0.0220373,-1.02653,-0.14457,-0.945235,1.12281,1.29011,0,0,3.89804,5
1774300380780,-0.0213191,-1.0244,-0.144494,-1.23776,1.11164,1.38259,0,0,3.277,5
1774300380793,-0.0219777,-1.02291,-0.140961,-1.53914,1.11137,1.46904,0,0,3.27593,5
1774300380807,-0.0225753,-1.02277,-0.14006,-1.91782,1.10384,1.54207,0,0,3.3336,5
1774300380820,-0.0227305,-1.02142,-0.138046,-2.18105,1.07618,1.63284,0,0,3.29056,5
1774300380834,-0.0217151,-1.01914,-0.139077,-2.48561,1.00596,1.69325,0,0,3.29467,5
1774300380847,-0.020648,-1.01891,-0.138055,-2.90626,1.01847,1.80552,0,0,3.26956,5
1774300380861,-0.0202361,-1.01826,-0.138766,-3.27676,1.13134,1.88622,0,0,3.73188,5
1774300380874,-0.0198103,-1.02148,-0.139317,-3.83201,1.06659,2.12811,0,0,3.27178,5
1774300380888,-0.0263537,-1.01645,-0.141221,-4.19982,1.07784,2.19628,0,0,3.27891,5
1774300380901,-0.0332622,-1.01381,-0.136369,-4.89298,1.00839,2.31116,0,0,3.27899,5
1774300380914,-0.0252413,-1.03488,-0.137901,-5.26423,0.886745,2.44871,0,0,3.29445,5
1774300380928,-0.0198346,-1.01985,-0.140817,-5.70799,0.784767,2.67446,0,0,3.29724,5
1774300380941,-0.0193516,-1.02166,-0.132342,-6.41418,0.663246,2.80747,0,0,3.27993,5
1774300380955,-0.0135619,-1.02326,-0.124387,-7.1741,0.484313,3.03493,0,0,3.29213,5
1774300380968,-0.0114313,-1.0261,-0.126859,-8.37139,0.318414,3.69024,0,0,3.2761,5
1774300380982,-0.0169959,-1.03922,-0.125432,-9.22363,0.298413,3.64082,0,0,3.70969,5
1774300380996,-0.0174484,-1.06229,-0.121089,-12.3891,0.476071,2.82857,0,0,3.27808,5
1774300381009,-0.0230488,-1.07097,-0.121506,-15.4399,0.70114,1.93557,0,0,3.33695,5
1774300381023,-0.0287672,-1.08719,-0.119011,-19.3374,0.967108,0.977476,0,0,3.30075,5
1774300381036,-0.0327302,-1.09887,-0.114126,-23.4471,1.24642,-0.0716013,0,0,3.28267,5
1774300381049,-0.0376409,-1.10848,-0.112851,-27.7779,1.50278,-1.22797,0,0,3.28811,5
1774300381063,-0.0397637,-1.11772,-0.113745,-32.342,1.74691,-2.53314,0,0,3.26784,5
1774300381077,-0.0403523,-1.12369,-0.110799,-37.1348,1.91439,-3.86444,0,0,3.8064,5
1774300381090,-0.0411393,-1.13488,-0.110427,-42.1824,1.96886,-5.17159,0,0,3.28045,5
1774300381103,-0.0441768,-1.141,-0.111246,-47.6277,2.03313,-6.55186,0,0,3.27765,5
1774300381117,-0.045213,-1.15477,-0.117282,-53.0994,2.01585,-8.15914,0,0,3.30654,5
1774300381130,-0.0412072,-1.16115,-0.114726,-59.0674,2.03509,-9.5992,0,0,3.27174,5
1774300381144,-0.0269345,-1.17227,-0.112869,-65.6586,1.74624,-10.4755,0,0,3.29263,5
1774300381157,-0.0184536,-1.1905,-0.112471,-72.7077,1.32201,-10.9455,0,0,3.27571,5
1774300381171,-0.0132583,-1.2145,-0.115133,-80.3223,0.94384,-11.2158,0,0,3.76449,5
1774300381184,-0.0113439,-1.23584,-0.115949,-88.4324,0.653255,-11.4833,0,0,3.26704,5
1774300381198,-0.00360887,-1.25815,-0.122324,-97.0404,0.250941,-12.137,0,0,3.27341,5
1774300381211,0.00610477,-1.2691,-0.132552,-105.628,-0.333479,-13.2785,0,0,3.30663,5
1774300381224,0.0221307,-1.28143,-0.148514,-113.582,-1.45161,-14.8511,0,0,3.27515,5
1774300381238,0.0381925,-1.287,-0.167356,-120.729,-2.97888,-16.1144,0,0,3.29002,5
1774300381251,0.0555592,-1.27446,-0.185363,-126.169,-4.92788,-17.0175,0,0,3.28248,5
1774300381265,0.0697106,-1.26278,-0.193795,-130.763,-7.35632,-17.0567,0,0,3.28658,5
1774300381278,0.0856028,-1.2468,-0.194171,-133.95,-10.4236,-16.142,0,0,3.26806,5
1774300381292,0.0913723,-1.19457,-0.142907,-135.522,-13.9383,-14.2996,0,0,3.69314,3
1774300381305,0.109424,-1.00944,-0.133743,-129.716,-18.0361,-10.0785,0,0,3.27743,3
1774300381319,0.116778,-0.964783,-0.110149,-116.552,-22.4667,-6.75562,0,0,3.29137,3
1774300381332,0.117565,-0.946378,-0.0887187,-103.83,-26.9065,-4.64467,0,0,3.29385,3
1774300381346,0.11679,-0.919501,-0.0642858,-91.572,-31.4942,-3.35649,0,0,3.27269,3
1774300381359,0.108469,-0.889442,-0.0454698,-79.507,-35.4233,-2.12815,0,0,3.28691,3
1774300381373,0.0966467,-0.858723,-0.0286511,-67.396,-38.3973,-0.654428,0,0,3.27243,3
1774300381387,0.0834409,-0.826369,-0.0115642,-54.8305,-40.3323,0.741772,0,0,3.92401,3
1774300381400,0.0684743,-0.800629,0.00529848,-41.8908,-41.167,1.37199,0,0,3.26926,3
1774300381413,0.0532547,-0.779079,0.0217334,-28.6137,-41.2326,0.930644,0,0,3.30837,3
1774300381427,0.0382522,-0.762432,0.0376738,-15.1004,-40.3811,-0.286653,0,0,3.2985,3
1774300381440,0.024002,-0.750859,0.0528103,-1.44764,-38.7391,-1.84245,0,0,3.27689,2
1774300381454,0.0109088,-0.746007,0.0668791,12.2764,-36.4895,-3.5469,0,0,3.2813,2
1774300381467,-0.00103524,-0.746139,0.0801511,25.6182,-33.7944,-5.20628,0,0,3.27048,2
1774300381480,-0.0129374,-0.756878,0.0921061,38.2116,-30.7337,-6.83637,0,0,3.2868,2
1774300381494,-0.0246714,-0.783023,0.100912,50.0986,-27.3625,-8.61524,0,0,3.26884,2
1774300381507,-0.0385935,-0.817325,0.102349,61.3188,-23.6619,-10.6523,0,0,3.26874,2
1774300381521,-0.0543304,-0.865705,0.097692,70.9476,-19.5356,-13.1553,0,0,3.30978,2
1774300381534,-0.0635068,-0.924429,0.089277,78.305,-15.1676,-14.9801,0,0,3.28011,2
