timestamp,ax,ay,az,gx,gy,gz,roll,pitch,delay_ms,classe_prevista
1777327335993,0.0535355,0.775419,-0.0982423,0.000293667,-0.00681308,0.00745915,0,0,3.27924,-1
1777327336006,0.0597844,0.875443,-0.111928,-0.000998966,-0.00740367,0.0101639,0,0,3.26645,-1
1777327336020,0.0629974,0.915989,-0.116886,-0.00122992,-0.0076835,0.0114884,0,0,3.27956,-1
1777327336033,0.0661037,0.938387,-0.119663,-0.00151588,-0.00756375,0.0125053,0,0,3.27778,-1
1777327336046,0.0702137,0.950748,-0.122483,-0.00165054,-0.00803387,0.012287,0,0,3.26996,-1
1777327336060,0.0721528,0.959631,-0.123657,-0.00165528,-0.00823123,0.0119619,0,0,3.28107,-1
1777327336073,0.0719589,0.966541,-0.123605,-0.00186674,-0.00840827,0.011582,0,0,3.26857,-1
1777327336087,0.0731854,0.97226,-0.124564,-0.00156925,-0.00852404,0.0105492,0,0,3.27389,-1
1777327336100,0.073362,0.976414,-0.12402,-0.00135168,-0.00866876,0.00908562,0,0,3.52783,-1
1777327336114,0.0734794,0.97992,-0.123343,-0.00114237,-0.00857464,0.00727791,0,0,3.24513,-1
1777327336127,0.0733349,0.981813,-0.123023,-0.00109725,-0.00850408,0.00563384,0,0,3.24796,-1
1777327336140,0.0733717,0.984455,-0.122867,-0.00109459,-0.00879201,0.00423803,0,0,3.24628,-1
1777327336154,0.0729959,0.986656,-0.123118,-0.00083765,-0.00884445,0.00313545,0,0,3.25528,-1
1777327336167,0.0729146,0.98828,-0.123479,-0.000703938,-0.0089027,0.00245281,0,0,3.24756,-1
1777327336180,0.072453,0.989646,-0.123601,-0.000720886,-0.00901479,0.0020128,0,0,3.24587,-1
1777327336194,0.0725699,0.991136,-0.124121,-0.000753481,-0.00928408,0.00162348,0,0,3.24754,-1
1777327336207,0.072493,0.99212,-0.124712,-0.000958201,-0.00955254,0.00148031,0,0,3.2573,-1
1777327336220,0.0721427,0.993039,-0.124821,-0.00116945,-0.00988146,0.0012309,0,0,3.25363,-1
1777327336234,0.0721855,0.993817,-0.124919,-0.00138694,-0.0102533,0.000978951,0,0,3.25489,-1
1777327336247,0.0724914,0.994657,-0.125158,-0.00162087,-0.0106743,0.000880726,0,0,3.25126,-1
1777327336260,0.0721497,0.995243,-0.125605,-0.00184947,-0.0110735,0.000801386,0,0,3.25685,-1
1777327336274,0.0718369,0.995683,-0.125789,-0.00215388,-0.0113737,0.00085399,0,0,3.26304,-1
1777327336287,0.0715968,0.996245,-0.126211,-0.00247287,-0.0117184,0.000926928,0,0,3.25133,-1
1777327336300,0.0714222,0.997352,-0.125793,-0.00292681,-0.0121039,0.0012075,0,0,3.31594,-1
1777327336314,0.0708783,0.998115,-0.126018,-0.00334139,-0.01246,0.00146671,0,0,3.252,-1
1777327336327,0.0709944,0.998216,-0.126258,-0.0037584,-0.0126858,0.00184855,0,0,3.24918,-1
1777327336340,0.0704741,0.999088,-0.126166,-0.00399577,-0.0128065,0.00229642,0,0,3.25211,-1
1777327336354,0.0709383,0.999366,-0.126302,-0.00422573,-0.0130021,0.00255539,0,0,3.25046,-1
1777327336367,0.0706363,1.00012,-0.126488,-0.00431593,-0.0131062,0.00279657,0,0,3.25769,-1
1777327336381,0.0704567,1.00013,-0.126487,-0.00445018,-0.0131031,0.00315823,0,0,3.61748,0
1777327336394,0.070202,1.00027,-0.126616,-0.00464346,-0.0129055,0.00359557,0,0,3.46859,0
1777327336408,0.0703812,1.00114,-0.126578,-0.00482868,-0.0126173,0.00413947,0,0,3.4943,0
1777327336421,0.0705918,1.00116,-0.1265,-0.00503337,-0.0123878,0.00457697,0,0,3.44956,0
1777327336435,0.0702764,1.00118,-0.126484,-0.00527412,-0.012155,0.0049156,0,0,3.49531,0
1777327336449,0.0701084,1.00152,-0.126114,-0.00532693,-0.0120076,0.00508679,0,0,3.41578,0
1777327336462,0.0701202,1.0022,-0.126275,-0.00537648,-0.0118959,0.00520324,0,0,3.56733,0
1777327336476,0.0699623,1.00266,-0.126596,-0.00531735,-0.0115972,0.00545346,0,0,3.44667,0
1777327336489,0.070179,1.00311,-0.126181,-0.00534958,-0.0115098,0.00578071,0,0,3.53483,0
1777327336503,0.0697806,1.00361,-0.12638,-0.00532296,-0.0113269,0.00618461,0,0,3.48893,0
1777327336517,0.069839,1.00411,-0.125854,-0.00531977,-0.0110807,0.00665614,0,0,3.44865,0
1777327336530,0.0699218,1.00432,-0.125471,-0.00529934,-0.0109014,0.00693852,0,0,3.3742,0
1777327336544,0.069944,1.00426,-0.125166,-0.00535405,-0.0108152,0.00720862,0,0,3.34415,0
1777327336557,0.0697706,1.00421,-0.124865,-0.00547067,-0.0105735,0.00745856,0,0,3.3768,0
1777327336570,0.0695657,1.0045,-0.124803,-0.0055675,-0.0104065,0.00775462,0,0,3.35968,5
1777327336584,0.0699265,1.0048,-0.125036,-0.00558943,-0.0102363,0.0080638,0,0,3.45737,5
1777327336598,0.0699207,1.00493,-0.124702,-0.00566198,-0.0100975,0.00832482,0,0,3.42535,5
1777327336611,0.0701224,1.00509,-0.124815,-0.00593337,-0.00992783,0.00864855,0,0,3.50952,5
1777327336625,0.0706577,1.00522,-0.124426,-0.00615894,-0.00982834,0.00902271,0,0,3.41231,5
1777327336638,0.0707071,1.00531,-0.124444,-0.00655268,-0.00965694,0.00922019,0,0,3.41017,5
1777327336652,0.0712222,1.00491,-0.124379,-0.00706177,-0.00954274,0.00933314,0,0,3.39889,5
1777327336665,0.0715152,1.00435,-0.124139,-0.00737818,-0.00959867,0.00925451,0,0,3.5035,5
1777327336679,0.0719153,1.00442,-0.12427,-0.00758191,-0.0097719,0.00903835,0,0,3.47491,5
1777327336693,0.0722514,1.00459,-0.124256,-0.00780845,-0.00995247,0.00867967,0,0,3.49367,5
1777327336706,0.0723209,1.00483,-0.123982,-0.00787598,-0.0102002,0.00827257,0,0,3.62506,5
1777327336720,0.0727438,1.00514,-0.123558,-0.00797835,-0.0103092,0.00778545,0,0,3.3518,5
1777327336733,0.072868,1.00485,-0.123172,-0.00807492,-0.0103519,0.00714552,0,0,3.41135,5
1777327336747,0.0734383,1.00455,-0.122684,-0.00803722,-0.0101647,0.00637864,0,0,3.34326,5
1777327336760,0.0735783,1.00458,-0.122677,-0.00804886,-0.00997945,0.00525162,0,0,3.33715,5
1777327336774,0.0738888,1.00499,-0.122273,-0.00811134,-0.00974887,0.00389217,0,0,3.38498,5
1777327336787,0.0738662,1.00508,-0.122769,-0.00814026,-0.00957422,0.00241639,0,0,3.45683,5
1777327336801,0.0732824,1.0048,-0.122538,-0.00810321,-0.00928502,0.00115681,0,0,3.47263,5
1777327336815,0.0732116,1.00493,-0.122841,-0.00815402,-0.00897782,2.54344e-06,0,0,3.49783,5
1777327336828,0.0724865,1.00495,-0.122688,-0.00817624,-0.00879941,-0.000970924,0,0,3.48704,5
1777327336842,0.072049,1.00528,-0.12253,-0.00829153,-0.00866105,-0.00169665,0,0,3.49831,5
1777327336855,0.0714443,1.00628,-0.121914,-0.00814313,-0.00862908,-0.00221007,0,0,3.43452,5
1777327336869,0.0708735,1.0066,-0.121361,-0.00792165,-0.00857318,-0.00236886,0,0,3.52737,5
1777327336883,0.0706639,1.00763,-0.120482,-0.00740835,-0.00841329,-0.00217587,0,0,3.42091,5
1777327336896,0.0701096,1.0076,-0.120284,-0.00668394,-0.00814669,-0.0019466,0,0,3.49354,5
1777327336910,0.0701758,1.00797,-0.120014,-0.00604739,-0.00784367,-0.00188875,0,0,3.52948,5
1777327336923,0.069471,1.00792,-0.120061,-0.00546375,-0.00758337,-0.00180416,0,0,3.42202,5
1777327336937,0.0690249,1.00829,-0.119941,-0.00508,-0.00750479,-0.00143729,0,0,3.34365,5
1777327336950,0.0689054,1.00853,-0.119348,-0.00473922,-0.00760198,-0.00089396,0,0,3.40278,5
1777327336964,0.0685596,1.00864,-0.119405,-0.00415627,-0.00777082,-0.000265491,0,0,3.33754,5
1777327336977,0.0685621,1.00847,-0.119856,-0.00364462,-0.0081315,0.000460472,0,0,3.33219,5
1777327336991,0.0688658,1.00797,-0.120185,-0.00335016,-0.00838627,0.00123134,0,0,3.47398,5
1777327337004,0.0687963,1.00797,-0.120428,-0.00306795,-0.00862244,0.00181757,0,0,3.41224,5
1777327337018,0.0686211,1.0074,-0.120452,-0.00298148,-0.00871686,0.00207965,0,0,3.49898,5
1777327337031,0.0683872,1.00716,-0.120666,-0.00305833,-0.00895161,0.00218568,0,0,3.39404,5
1777327337045,0.0682213,1.00686,-0.120813,-0.00314799,-0.00917317,0.00217441,0,0,3.44713,5
1777327337058,0.0684756,1.00682,-0.120541,-0.0032626,-0.00950222,0.00200102,0,0,3.37057,5
1777327337072,0.0684828,1.00652,-0.12049,-0.00327656,-0.0097614,0.00173031,0,0,3.36709,5
1777327337085,0.068106,1.00622,-0.12062,-0.00338824,-0.0100703,0.0012735,0,0,3.48931,5
1777327337099,0.0680655,1.00639,-0.1204,-0.00347223,-0.0104175,0.000833767,0,0,3.39378,5
1777327337113,0.0680135,1.00661,-0.120001,-0.00338879,-0.0106467,0.000431555,0,0,3.70681,5
1777327337126,0.0677042,1.00665,-0.120089,-0.00322437,-0.0108717,7.76063e-05,0,0,3.41441,5
1777327337140,0.0672068,1.00689,-0.120146,-0.00307347,-0.0110069,8.60996e-05,0,0,3.48113,5
1777327337154,0.067203,1.00705,-0.11998,-0.00282826,-0.0110318,0.000184043,0,0,3.47104,5
1777327337167,0.0668022,1.00697,-0.120056,-0.00252401,-0.0110339,0.000456344,0,0,3.4648,5
1777327337181,0.0665609,1.00691,-0.120169,-0.0020998,-0.0108817,0.00091891,0,0,3.48763,5
1777327337194,0.0665385,1.00701,-0.120371,-0.00157949,-0.0108536,0.00110288,0,0,3.42515,5
1777327337208,0.0665037,1.00725,-0.12022,-0.00088711,-0.0109385,0.00104958,0,0,3.5015,5
1777327337222,0.0662654,1.00701,-0.120132,-0.000421987,-0.0110871,0.00118339,0,0,3.47028,5
1777327337235,0.0662459,1.00671,-0.120433,-0.000167085,-0.0113087,0.00127973,0,0,3.45965,5
1777327337249,0.0657893,1.00662,-0.120798,-0.000119174,-0.0117021,0.0015291,0,0,3.38565,5
1777327337262,0.0652487,1.00665,-0.121226,-0.000236667,-0.0120562,0.00217126,0,0,3.39531,5
1777327337276,0.0652862,1.00655,-0.12115,-0.000523131,-0.0123476,0.00300864,0,0,3.35674,5
1777327337289,0.0647465,1.00706,-0.120969,-0.000558016,-0.0127169,0.00409877,0,0,3.51806,5
1777327337303,0.0643877,1.00689,-0.121085,-0.000723686,-0.0129927,0.00527334,0,0,3.47343,5
1777327337317,0.0646105,1.00673,-0.121647,-0.000837242,-0.0131931,0.00626213,0,0,3.78911,5
1777327337331,0.0651768,1.00656,-0.121972,-0.00105148,-0.0133223,0.00704986,0,0,3.43585,5
1777327337344,0.0661085,1.00649,-0.121937,-0.00128367,-0.0134442,0.00729242,0,0,3.37002,5
1777327337358,0.0663717,1.00659,-0.122204,-0.00153709,-0.013645,0.00702467,0,0,3.41683,5
1777327337371,0.0664695,1.00662,-0.122074,-0.00202893,-0.0138987,0.00681475,0,0,3.3603,5
1777327337385,0.0662743,1.00655,-0.122156,-0.00238185,-0.0141253,0.00659092,0,0,3.57117,5
1777327337398,0.0660352,1.00721,-0.121836,-0.00262933,-0.0141851,0.00693202,0,0,3.43296,5
1777327337412,0.0660697,1.00767,-0.12189,-0.00280299,-0.0140659,0.00745951,0,0,3.49052,5
1777327337425,0.0658557,1.00807,-0.121873,-0.00282132,-0.0137094,0.00818007,0,0,3.46845,5
1777327337439,0.0654347,1.00817,-0.121733,-0.00266735,-0.0134671,0.00898438,0,0,3.39087,5
1777327337453,0.0653386,1.00842,-0.121656,-0.00253057,-0.0131613,0.0100433,0,0,3.5075,5
1777327337466,0.0653163,1.00844,-0.121118,-0.00244857,-0.0125986,0.0109957,0,0,3.4083,5
1777327337480,0.0655691,1.00831,-0.121185,-0.00225128,-0.0120546,0.0119975,0,0,3.52718,5
1777327337493,0.0658626,1.00812,-0.121112,-0.00214213,-0.0116054,0.013063,0,0,3.41056,5
1777327337507,0.06603,1.00851,-0.120837,-0.00185926,-0.0110614,0.0139317,0,0,3.4912,5
1777327337520,0.066147,1.00836,-0.120714,-0.00142098,-0.0105181,0.0146446,0,0,3.45806,5
1777327337534,0.0660383,1.00832,-0.120681,-0.000913085,-0.00980389,0.0154288,0,0,3.37467,5
1777327337547,0.0666889,1.00819,-0.120389,-0.000326633,-0.00900562,0.0160192,0,0,3.41283,5
1777327337561,0.067303,1.00782,-0.120771,0.000321124,-0.0081151,0.0164138,0,0,3.35393,5
1777327337574,0.0681017,1.00728,-0.120597,0.000804091,-0.00736017,0.0164694,0,0,3.39283,5
1777327337588,0.0686366,1.0069,-0.120365,0.00132848,-0.00670326,0.016342,0,0,3.35309,5
1777327337602,0.069251,1.00684,-0.120392,0.00167786,-0.00631869,0.0161019,0,0,3.50983,5
1777327337615,0.0698583,1.00669,-0.121308,0.00183638,-0.00603705,0.0158966,0,0,3.38809,5
1777327337629,0.0697468,1.00626,-0.121556,0.0019389,-0.00579262,0.0156601,0,0,3.50617,5
1777327337642,0.0699018,1.00631,-0.121516,0.00219838,-0.0054891,0.0155995,0,0,3.47278,5
1777327337656,0.0705685,1.00658,-0.121561,0.0025418,-0.00516836,0.015461,0,0,3.38054,5
1777327337669,0.0708691,1.00657,-0.121466,0.00292589,-0.00467721,0.0150476,0,0,3.41024,5
1777327337683,0.070879,1.00674,-0.121651,0.00328416,-0.00417079,0.0146274,0,0,3.36944,5
1777327337696,0.0709294,1.00711,-0.121154,0.0036523,-0.00356003,0.0143251,0,0,3.51659,5
1777327337710,0.0705935,1.00753,-0.121205,0.00412825,-0.00258104,0.0144207,0,0,3.42541,5
1777327337724,0.0700162,1.00767,-0.121309,0.00468027,-0.00157561,0.0149221,0,0,3.53491,5
1777327337737,0.0704711,1.00735,-0.121105,0.00525271,-0.000348252,0.0153011,0,0,3.47798,5
1777327337751,0.0707361,1.00686,-0.121269,0.00566458,0.000716057,0.0155561,0,0,3.50815,5
1777327337764,0.0717805,1.00598,-0.121998,0.00600624,0.00144235,0.0151074,0,0,3.46622,5
1777327337778,0.0729717,1.006,-0.122605,0.00613178,0.00161835,0.0139946,0,0,3.38715,5
1777327337791,0.073699,1.0059,-0.122863,0.00604046,0.00134346,0.0124303,0,0,3.47541,5
1777327337805,0.0737282,1.00596,-0.123325,0.00600993,0.000707173,0.0109109,0,0,3.49911,5
1777327337819,0.072934,1.00572,-0.123843,0.00599824,0.000145119,0.00980647,0,0,3.48069,5
1777327337832,0.0722392,1.00572,-0.123977,0.00564038,-0.000222698,0.00938914,0,0,3.49357,5
1777327337846,0.0715696,1.00582,-0.124185,0.00534969,-0.00026587,0.00953902,0,0,3.41974,5
1777327337859,0.0712663,1.00576,-0.124258,0.00513525,5.73371e-05,0.00982179,0,0,3.48131,5
1777327337873,0.071158,1.00642,-0.124286,0.00504416,0.000747783,0.0101915,0,0,3.39441,5
1777327337887,0.0714119,1.00659,-0.124572,0.00502242,0.00151511,0.010352,0,0,3.50131,5
1777327337900,0.0721034,1.00611,-0.12472,0.00482205,0.00236785,0.0102894,0,0,3.41715,5
1777327337914,0.0724823,1.00626,-0.124598,0.00460724,0.00315563,0.0097765,0,0,3.4472,5
1777327337927,0.0724564,1.00627,-0.124717,0.00433596,0.00384785,0.00947218,0,0,3.45093,5
1777327337941,0.0721307,1.00593,-0.12576,0.00402424,0.00477527,0.00970731,0,0,3.37465,5
1777327337954,0.0713577,1.00583,-0.126443,0.00345168,0.00567636,0.0104945,0,0,3.40526,5
1777327337968,0.0706965,1.0058,-0.126389,0.00291552,0.00665536,0.0116314,0,0,3.35252,5
1777327337981,0.0711406,1.00573,-0.12601,0.00254645,0.00777642,0.0126746,0,0,3.38828,5
1777327337995,0.0718337,1.00549,-0.125639,0.00233938,0.00903584,0.0131968,0,0,3.3628,5
1777327338008,0.0729945,1.00511,-0.125438,0.00213109,0.00863604,0.0129361,0,0,3.51191,5
1777327338022,0.0740081,1.0045,-0.125578,0.00198586,0.0082287,0.0119022,0,0,3.432,5
1777327338035,0.074554,1.00402,-0.12608,0.00152764,0.00783136,0.0103825,0,0,3.55907,5
1777327338049,0.073919,1.00324,-0.125937,0.0010052,0.00752482,0.00851129,0,0,3.43757,5
1777327338063,0.0741549,1.00248,-0.125734,0.000494936,0.00742816,0.00645386,0,0,3.38817,5
1777327338076,0.0735148,1.00164,-0.126432,-6.37774e-05,0.00767518,0.00513271,0,0,3.52065,5
1777327338090,0.0730476,1.00114,-0.126667,-0.000728171,0.00808819,0.00410833,0,0,3.43661,5
1777327338103,0.0724423,1.00208,-0.125943,-0.00108126,0.00855082,0.00358671,0,0,3.46804,5
1777327338117,0.0728021,1.00248,-0.125165,-0.00107627,0.00914593,0.00295306,0,0,3.48368,5
1777327338131,0.0727036,1.00359,-0.124032,-0.000767552,0.00971623,0.00225646,0,0,3.4822,5
1777327338144,0.0728844,1.00397,-0.124237,-9.4274e-06,0.00992911,0.000995198,0,0,3.49176,5
1777327338158,0.0727128,1.0045,-0.123787,0.000667636,0.0102114,-4.97351e-05,0,0,3.41833,5
1777327338171,0.0727014,1.00527,-0.123431,0.00100699,0.0105764,-0.00122018,0,0,3.49496,5
1777327338185,0.0726495,1.00539,-0.123272,0.0014943,0.0108866,-0.00232925,0,0,3.41472,5
1777327338199,0.0726143,1.00565,-0.123136,0.00181726,0.0112436,-0.00334185,0,0,3.50878,5
1777327338212,0.0725263,1.00616,-0.122542,0.00219918,0.0116706,-0.00370676,0,0,3.41917,5
1777327338226,0.0716763,1.00722,-0.122023,0.0025297,0.0121421,-0.00264246,0,0,3.74891,5
1777327338240,0.0712574,1.00854,-0.121957,0.00305149,0.0126299,-0.00118399,0,0,3.41852,5
1777327338253,0.0707662,1.0086,-0.121703,0.00337702,0.0131589,0.000667958,0,0,3.45954,5
1777327338267,0.0710557,1.00888,-0.120601,0.0035173,0.013457,0.00221478,0,0,3.48311,5
1777327338280,0.0721918,1.0089,-0.119971,0.00290466,0.0126979,0.0032124,0,0,3.36987,5
1777327338294,0.0729354,1.00831,-0.120116,0.00239062,0.0119043,0.00345611,0,0,3.48594,5
1777327338307,0.0735415,1.00786,-0.119856,0.00203815,0.0110182,0.00302675,0,0,3.40096,5
1777327338321,0.0740588,1.00761,-0.119501,0.00188101,0.00990774,0.00213761,0,0,3.532,5
1777327338334,0.0736843,1.00796,-0.119823,0.00190395,0.00885101,0.00148248,0,0,3.47674,5
1777327338348,0.073591,1.00861,-0.119867,0.00214827,0.00786641,0.000851244,0,0,3.48468,5
1777327338362,0.0731743,1.0087,-0.120319,0.00252446,0.00667583,0.000503765,0,0,3.47215,5
1777327338375,0.0733425,1.00857,-0.120322,0.00293094,0.00541931,-0.000102544,0,0,3.45457,5
1777327338389,0.0728986,1.00824,-0.120872,0.00322469,0.00408768,-0.000563515,0,0,3.50572,5
1777327338402,0.0729179,1.00834,-0.120939,0.00357905,0.00292066,-0.000934401,0,0,3.40933,5
1777327338416,0.0721144,1.00854,-0.121002,0.00395634,0.00169921,-0.000852016,0,0,3.50033,5
1777327338430,0.0711369,1.00797,-0.121761,0.00429534,0.000670455,-0.000247582,0,0,3.56067,5
1777327338443,0.0701731,1.00833,-0.121984,0.00479089,-0.00012076,0.000990919,0,0,3.48196,5
1777327338457,0.0695236,1.00897,-0.121988,0.0055027,-0.000824776,0.00233551,0,0,3.42931,5
1777327338471,0.0696637,1.00881,-0.122198,0.00650857,-0.001348,0.0034334,0,0,3.4575,5
1777327338484,0.0688784,1.00932,-0.122506,0.00756935,-0.00168773,0.00455106,0,0,3.50039,5
1777327338498,0.0684522,1.00935,-0.122934,0.00881042,-0.0019142,0.00563172,0,0,3.39083,5
1777327338511,0.0684744,1.00899,-0.123378,0.0102602,-0.00206802,0.00714418,0,0,3.50541,2
1777327338525,0.0679612,1.00987,-0.124195,0.01174,-0.00210189,0.00873023,0,0,3.40855,2
1777327338538,0.0677645,1.01058,-0.124843,0.0134193,-0.00202252,0.0106041,0,0,3.49311,2
1777327338552,0.0682771,1.01023,-0.124852,0.0154755,-0.00187054,0.0126427,0,0,3.41691,2
1777327338566,0.0682133,1.0116,-0.12538,0.0177032,-0.00202253,0.014995,0,0,3.56811,2
1777327338579,0.0687419,1.01327,-0.12425,0.0203027,-0.00216599,0.0173525,0,0,3.42893,2
1777327338593,0.0692545,1.01648,-0.124004,0.0240195,-0.00240417,0.0188755,0,0,3.45556,2
1777327338607,0.0704231,1.01903,-0.124046,0.0296816,-0.00276173,0.0195294,0,0,3.46807,2
1777327338620,0.0714987,1.02035,-0.122799,0.0367688,-0.00307782,0.0196115,0,0,3.41015,2
1777327338634,0.0721717,1.02108,-0.124401,0.0430517,-0.00320491,0.0206823,0,0,3.96819,2
1777327338648,0.0759977,1.02888,-0.123339,0.0524505,-0.00390292,0.0221342,0,0,3.40926,2
1777327338661,0.0849773,1.04537,-0.121789,0.0700143,-0.0058549,0.0235217,0,0,3.52472,2
1777327338675,0.0815939,1.06997,-0.119901,0.0977471,-0.00848954,0.0308431,0,0,3.4115,5
1777327338688,0.0859185,1.10847,-0.117544,0.137763,-0.012809,0.0419843,0,0,3.49357,5
1777327338702,0.084016,1.14163,-0.106802,0.194632,-0.0188559,0.0454441,0,0,3.50569,5
1777327338716,0.0893688,1.17043,-0.100071,0.263028,-0.0266745,0.048243,0,0,3.43585,2
1777327338729,0.0924356,1.19689,-0.0934995,0.338368,-0.0366066,0.0492065,0,0,3.51055,2
1777327338743,0.0963848,1.22176,-0.0863651,0.42298,-0.0475358,0.0474355,0,0,3.48763,2
1777327338757,0.0967985,1.24122,-0.083835,0.514778,-0.0589525,0.0445778,0,0,3.5203,2
1777327338770,0.101037,1.25954,-0.0815016,0.60851,-0.0722936,0.0408912,0,0,3.43613,1
1777327338784,0.110078,1.29104,-0.0775463,0.706546,-0.0881577,0.0403788,0,0,3.60917,1
1777327338797,0.124746,1.30684,-0.0764421,0.807218,-0.107268,0.0399122,0,0,3.4412,4
1777327338811,0.112723,1.32036,-0.084041,0.902243,-0.115077,-0.00337675,0,0,3.50502,4
1777327338825,0.113726,1.34406,-0.0774645,0.990627,-0.112104,-0.0533066,0,0,3.52056,4
1777327338838,0.135352,1.34862,-0.0630402,1.07536,-0.114859,-0.105737,0,0,3.49198,4
1777327338852,0.148315,1.32812,-0.0685151,1.15535,-0.125509,-0.132044,0,0,3.51726,4
1777327338865,0.157771,1.34206,-0.0632614,1.23085,-0.139677,-0.15592,0,0,3.49941,4
1777327338879,0.167464,1.31782,-0.0666971,1.30211,-0.153123,-0.172844,0,0,3.46246,4
1777327338893,0.174572,1.30814,-0.0593679,1.36937,-0.171454,-0.191114,0,0,3.38148,4
1777327338906,0.17716,1.26492,-0.0509024,1.43287,-0.187635,-0.202651,0,0,3.52694,4
1777327338920,0.175919,1.22333,-0.0664114,1.4928,-0.198665,-0.200027,0,0,3.41296,4
1777327338933,0.170871,1.17091,-0.082105,1.54721,-0.204015,-0.186885,0,0,3.55193,4
1777327338947,0.164026,1.08964,-0.095987,1.56094,-0.203169,-0.170904,0,0,3.49452,4
1777327338961,0.153894,1.00864,-0.107858,1.5319,-0.196367,-0.154818,0,0,3.5052,4
1777327338974,0.145878,0.93693,-0.114338,1.46732,-0.183118,-0.143162,0,0,3.48404,4
1777327338988,0.13953,0.869339,-0.1161,1.37203,-0.165601,-0.136515,0,0,3.5025,4
1777327339001,0.134977,0.812756,-0.114573,1.2519,-0.146241,-0.128039,0,0,3.47718,4
1777327339015,0.131459,0.767783,-0.1122,1.11345,-0.126987,-0.110572,0,0,3.50033,4
1777327339029,0.128549,0.72336,-0.108864,0.957047,-0.108662,-0.0826397,0,0,3.46965,4
1777327339042,0.12557,0.677033,-0.103908,0.779879,-0.0910148,-0.0448711,0,0,3.47937,4
1777327339056,0.121375,0.637797,-0.0950394,0.595826,-0.0731496,-0.00247721,0,0,3.39548,4
1777327339069,0.115882,0.612457,-0.0825188,0.422096,-0.0542098,0.0412297,0,0,3.50946,4
1777327339083,0.111723,0.606135,-0.0668661,0.258112,-0.0346753,0.0805967,0,0,3.40844,4
1777327339096,0.108141,0.616492,-0.0512423,0.103326,-0.0165491,0.115769,0,0,3.49465,4
1777327339110,0.106265,0.64229,-0.039316,-0.0427782,-0.00138791,0.147264,0,0,3.41083,4
1777327339124,0.105317,0.673009,-0.0347278,-0.180687,0.00901352,0.174744,0,0,3.55396,4
1777327339137,0.103928,0.696897,-0.0360528,-0.31086,0.0136419,0.197489,0,0,3.51333,4
1777327339151,0.102714,0.726155,-0.041987,-0.433731,0.0116307,0.214222,0,0,3.49833,4
1777327339164,0.0985958,0.765906,-0.0513406,-0.54971,0.00403308,0.223799,0,0,3.50756,4
1777327339178,0.0872725,0.810424,-0.0638259,-0.659184,-0.00316402,0.224635,0,0,3.41048,4
1777327339192,0.0679844,0.853952,-0.0796919,-0.762516,-0.00439527,0.22014,0,0,3.52435,4
1777327339205,0.0433554,0.895367,-0.0966536,-0.860053,0.00501017,0.214176,0,0,3.42087,4
1777327339219,0.020108,0.935951,-0.113225,-0.952119,0.0271575,0.206526,0,0,3.58107,4
1777327339232,0.0053404,0.975684,-0.128155,-1.03902,0.0597521,0.19665,0,0,3.45152,4
1777327339246,0.000603846,1.01234,-0.141289,-1.1162,0.0980245,0.189421,0,0,3.50993,4
1777327339260,0.0049385,1.04462,-0.152851,-1.18682,0.136651,0.190991,0,0,3.50254,4
1777327339273,0.0163291,1.07593,-0.163874,-1.25127,0.172027,0.200236,0,0,3.40163,4
1777327339287,0.0277793,1.10509,-0.175005,-1.30999,0.203556,0.211175,0,0,3.51491,4
1777327339300,0.0388337,1.14064,-0.187647,-1.35856,0.229938,0.217113,0,0,3.42546,4
1777327339314,0.0491721,1.17443,-0.201388,-1.39396,0.251938,0.216782,0,0,3.53117,4
1777327339328,0.0626281,1.20178,-0.217919,-1.41701,0.269338,0.214514,0,0,3.41261,4
1777327339341,0.0842034,1.21872,-0.23785,-1.4305,0.279981,0.215091,0,0,3.86752,4
1777327339355,0.111539,1.23188,-0.262072,-1.43405,0.278239,0.224928,0,0,3.5267,5
1777327339369,0.138532,1.24626,-0.292043,-1.42457,0.263227,0.243654,0,0,3.48196,5
1777327339382,0.153248,1.2597,-0.329289,-1.39774,0.238858,0.260072,0,0,3.53511,5
1777327339397,0.146925,1.26396,-0.371101,-1.35332,0.214439,0.266084,0,0,3.50022,5
1777327339411,0.131316,1.26395,-0.413225,-1.29465,0.197687,0.257461,0,0,3.55367,5
1777327339425,0.121376,1.26644,-0.452424,-1.21898,0.188277,0.239281,0,0,3.48954,5
1777327339440,0.12188,1.2642,-0.477661,-1.1299,0.182392,0.223881,0,0,3.52204,5
1777327339454,0.117208,1.01086,-0.427464,-1.01086,0.187216,0.2035,0,0,3.49833,5
1777327339468,0.117398,0.994698,-0.367101,-0.867549,0.172647,0.136657,0,0,3.54596,5
1777327339481,0.101063,0.995831,-0.323667,-0.713249,0.150597,0.0754724,0,0,3.44565,5
1777327339495,0.0866157,0.996284,-0.288791,-0.558757,0.141773,0.0408677,0,0,3.46396,5
1777327339508,0.0816065,0.995301,-0.26154,-0.415958,0.129513,0.0205444,0,0,3.49248,5
1777327339522,0.0781794,0.993223,-0.24042,-0.286491,0.110417,0.00949664,0,0,3.41065,5
1777327339536,0.0690011,0.99615,-0.229742,-0.173797,0.0863683,0.00786351,0,0,3.51513,5
1777327339549,0.069595,0.997448,-0.223921,-0.0795453,0.0636383,0.0101371,0,0,3.4845,5
1777327339563,0.0627059,0.985937,-0.220016,-0.00758839,0.0480152,0.014407,0,0,3.52148,5
1777327339576,0.0600787,0.979413,-0.223642,0.0374714,0.0406761,0.016609,0,0,3.42068,1
1777327339590,0.0554488,0.970968,-0.227462,0.0644134,0.0392552,0.0174715,0,0,3.50418,1
1777327339604,0.0527631,0.966228,-0.225864,0.0816273,0.0427181,0.0198313,0,0,3.47757,1
1777327339617,0.0502417,0.968862,-0.22159,0.0950025,0.0477168,0.025009,0,0,3.47143,1
1777327339631,0.0495599,0.970787,-0.214953,0.105063,0.0520068,0.0305385,0,0,3.50544,1
1777327339644,0.0541612,0.97159,-0.210291,0.112764,0.0562746,0.0329147,0,0,3.50981,1
1777327339658,0.0575733,0.971828,-0.205863,0.118236,0.059498,0.0317793,0,0,3.50426,1
1777327339672,0.061643,0.972135,-0.202464,0.121687,0.0611276,0.0282882,0,0,3.42419,1
1777327339685,0.065594,0.974191,-0.197338,0.123764,0.061895,0.0228264,0,0,3.53354,1
1777327339699,0.0677896,0.975597,-0.192911,0.125843,0.0626237,0.0158854,0,0,3.42296,1
1777327339712,0.067219,0.97776,-0.18791,0.126582,0.0621425,0.011526,0,0,3.45917,1
1777327339726,0.0669954,0.980911,-0.183874,0.127283,0.0611103,0.00961633,0,0,3.48804,1
1777327339739,0.0654011,0.984392,-0.18086,0.127756,0.060714,0.0100618,0,0,3.3923,1
1777327339753,0.0660875,0.984474,-0.177685,0.127758,0.061813,0.0125675,0,0,3.49443,1
1777327339767,0.0667901,0.98822,-0.175237,0.127858,0.0634326,0.015896,0,0,3.40117,1
1777327339780,0.0679737,0.98973,-0.172035,0.12824,0.0657235,0.0183871,0,0,3.50167,1
1777327339794,0.069488,0.991881,-0.168972,0.127598,0.0663488,0.0197535,0,0,3.41004,1
1777327339807,0.070753,0.992884,-0.165643,0.12602,0.0656715,0.0209021,0,0,3.49946,1
1777327339821,0.0735768,0.994187,-0.162706,0.12441,0.0646169,0.02092,0,0,3.48518,1
1777327339835,0.0742975,0.994157,-0.160043,0.122544,0.063129,0.0208341,0,0,3.48713,1
1777327339848,0.0764705,0.994471,-0.158571,0.120346,0.0606285,0.0203591,0,0,3.592,1
1777327339862,0.0767961,0.996808,-0.15614,0.119312,0.0586407,0.0194741,0,0,3.41293,1
1777327339876,0.0779525,1.00015,-0.153832,0.117822,0.0571755,0.0175724,0,0,3.49394,1
1777327339889,0.0762778,1.00798,-0.153228,0.118672,0.0542038,0.0169678,0,0,3.41759,1
1777327339903,0.0778878,1.01396,-0.15363,0.122485,0.0510692,0.0170694,0,0,3.53254,1
1777327339916,0.0789692,1.02612,-0.154065,0.130001,0.0475195,0.0172466,0,0,3.43039,4
1777327339930,0.079456,1.03252,-0.151517,0.135589,0.0441989,0.0197347,0,0,3.46465,4
1777327339943,0.0796826,1.04804,-0.148674,0.143265,0.040555,0.0236589,0,0,3.4868,4
1777327339957,0.0766098,1.04317,-0.149989,0.150439,0.0380318,0.0321972,0,0,3.46293,4
1777327339971,0.0759553,1.04319,-0.150477,0.159145,0.0353462,0.0429071,0,0,3.503,4
1777327339984,0.0812261,1.04316,-0.152006,0.167564,0.0313082,0.0523911,0,0,3.41718,4
1777327339998,0.0837637,1.04382,-0.153641,0.178028,0.0267774,0.060127,0,0,3.51478,4
1777327340011,0.0890073,1.04892,-0.154225,0.189833,0.0215673,0.0663415,0,0,3.42254,4
1777327340025,0.0921081,1.04893,-0.155873,0.202491,0.0162727,0.0709185,0,0,3.50591,4
1777327340039,0.0950213,1.04819,-0.158003,0.215685,0.0105085,0.0740526,0,0,3.47789,4
1777327340053,0.0971137,1.04555,-0.160767,0.228871,0.00463956,0.075461,0,0,3.95602,4
1777327340066,0.0989929,1.04617,-0.163512,0.243176,-0.000960167,0.0761267,0,0,3.47793,4
1777327340080,0.100465,1.04056,-0.168364,0.256772,-0.00653268,0.0760485,0,0,3.40626,4
1777327340093,0.104772,1.03621,-0.171519,0.269452,-0.0120923,0.0749299,0,0,3.5047,1
1777327340107,0.104537,1.0348,-0.176236,0.281305,-0.0169676,0.0736129,0,0,3.41891,1
1777327340121,0.108903,1.03487,-0.180058,0.29409,-0.0220447,0.0703316,0,0,3.53613,1
1777327340134,0.112463,1.03366,-0.185296,0.308291,-0.0281088,0.0683347,0,0,3.43443,1
1777327340148,0.114344,1.02709,-0.192582,0.321146,-0.0340211,0.0645788,0,0,3.45883,1
1777327340161,0.11008,1.02316,-0.198473,0.332545,-0.0388567,0.0625321,0,0,3.48691,1
1777327340175,0.1047,1.01309,-0.208033,0.340863,-0.0403895,0.061144,0,0,3.3908,1
1777327340188,0.10629,1.00762,-0.215084,0.346749,-0.0423459,0.0592644,0,0,3.5068,1
1777327340202,0.105039,1.00734,-0.22326,0.352168,-0.0433661,0.0574601,0,0,3.41628,1
1777327340215,0.107049,1.01033,-0.230169,0.358589,-0.0442734,0.0563181,0,0,3.51706,1
1777327340229,0.109138,1.01488,-0.236732,0.366894,-0.0450443,0.0546834,0,0,3.43232,1
1777327340243,0.111548,1.01771,-0.241447,0.377674,-0.0468123,0.052952,0,0,3.50865,1
1777327340256,0.112672,1.02064,-0.248021,0.390877,-0.0486097,0.0515918,0,0,3.5045,1
1777327340270,0.112295,1.0293,-0.255404,0.405382,-0.049878,0.0517294,0,0,3.48791,1
1777327340284,0.113309,1.0422,-0.259127,0.424653,-0.0509596,0.0507075,0,0,3.54324,1
1777327340297,0.113431,1.06121,-0.264202,0.450657,-0.0532223,0.050929,0,0,3.42881,1
1777327340311,0.113381,1.07154,-0.268103,0.482074,-0.0566126,0.0511253,0,0,3.53122,1
1777327340324,0.112458,1.08845,-0.269018,0.521685,-0.0612386,0.0545305,0,0,3.4438,1
1777327340338,0.10867,1.10773,-0.271512,0.569136,-0.066864,0.060044,0,0,3.5548,4
1777327340351,0.106779,1.13165,-0.271031,0.626112,-0.0750042,0.0703137,0,0,3.43802,4
1777327340365,0.1055,1.15989,-0.289257,0.697396,-0.0897657,0.0839895,0,0,3.49744,4
1777327340379,0.0911739,1.1877,-0.29156,0.772458,-0.101387,0.10467,0,0,3.51054,4
1777327340392,0.0780485,1.22779,-0.284997,0.86003,-0.105433,0.131268,0,0,3.39652,4
1777327340406,0.0637421,1.24011,-0.28817,0.952092,-0.10312,0.161294,0,0,3.52328,4
1777327340419,0.0514022,1.26025,-0.294492,1.03899,-0.0966803,0.194539,0,0,3.43417,4
1777327340433,0.050847,1.27362,-0.304814,1.12102,-0.0869797,0.232483,0,0,3.57885,4
1777327340447,0.0507063,1.2839,-0.317022,1.19844,-0.0740124,0.275299,0,0,3.45672,4
1777327340460,0.082687,1.26719,-0.325944,1.27152,-0.0713081,0.338056,0,0,3.53963,4
1777327340474,0.0768849,1.30746,-0.340226,1.3405,-0.0756921,0.404941,0,0,3.49844,4
1777327340488,0.0979343,1.31198,-0.348011,1.40561,-0.0860176,0.491158,0,0,3.49276,4
1777327340501,0.112599,1.34651,-0.350127,1.46707,-0.110827,0.595211,0,0,3.51639,4
1777327340515,0.128304,1.33529,-0.33702,1.52508,-0.146723,0.694043,0,0,3.44035,4
1777327340528,0.152098,1.30966,-0.3145,1.57984,-0.202952,0.785628,0,0,3.52985,4
1777327340542,0.21753,1.15227,-0.284274,1.60023,-0.296379,0.85208,0,0,3.43632,4
1777327340556,0.206889,0.994922,-0.286213,1.50858,-0.397438,0.866342,0,0,3.57861,4
1777327340569,0.176194,0.89432,-0.279389,1.35508,-0.474852,0.839331,0,0,3.45317,4
1777327340583,0.137607,0.827311,-0.269853,1.15933,-0.52946,0.779919,0,0,3.4565,4
1777327340596,0.101555,0.776605,-0.251018,0.953992,-0.558316,0.698217,0,0,3.47183,4
1777327340610,0.0706744,0.747724,-0.225175,0.760172,-0.571573,0.615009,0,0,3.38857,4
1777327340623,0.0437993,0.731213,-0.197343,0.577224,-0.575368,0.547225,0,0,3.50387,4
1777327340637,0.0298802,0.734581,-0.169334,0.404538,-0.574399,0.504699,0,0,3.44013,4
1777327340651,0.0292039,0.755234,-0.146141,0.241539,-0.573232,0.491406,0,0,3.53882,4
1777327340664,0.031496,0.76906,-0.129782,0.0876819,-0.574982,0.492046,0,0,3.49133,4
1777327340678,0.0267029,0.770182,-0.119736,-0.0575444,-0.576145,0.489927,0,0,3.51789,4
1777327340692,0.0132498,0.762189,-0.112855,-0.194625,-0.571549,0.477047,0,0,3.50994,4
1777327340705,-6.48912e-05,0.758999,-0.106073,-0.324016,-0.558877,0.454643,0,0,3.49324,4
1777327340719,-0.0101541,0.781474,-0.0994108,-0.446149,-0.542151,0.432721,0,0,3.53165,4
1777327340732,-0.0184448,0.812095,-0.0980525,-0.561432,-0.522403,0.416858,0,0,3.43259,4
1777327340746,-0.04117,0.845231,-0.0828706,-0.670248,-0.495206,0.403354,0,0,3.53341,4
1777327340760,-0.0511446,0.87896,-0.0926287,-0.77296,-0.463387,0.40284,0,0,3.77472,4
1777327340774,-0.070269,0.905401,-0.108755,-0.869911,-0.420323,0.403032,0,0,3.49889,4
1777327340787,-0.0875265,0.929085,-0.122156,-0.961424,-0.364576,0.391631,0,0,3.43046,4
1777327340801,-0.0989954,0.949893,-0.132148,-1.0478,-0.298777,0.37502,0,0,3.50885,4
1777327340814,-0.0944012,0.970959,-0.140018,-1.12934,-0.231406,0.360801,0,0,3.49354,4
1777327340828,-0.077945,0.990075,-0.146571,-1.2063,-0.16921,0.353224,0,0,3.429,4
1777327340842,-0.0554278,1.01069,-0.15392,-1.27894,-0.115723,0.351502,0,0,3.53713,4
1777327340855,-0.036844,1.03554,-0.161678,-1.34751,-0.0699669,0.351353,0,0,3.42065,4
1777327340869,-0.0223975,1.06673,-0.171754,-1.41223,-0.0294495,0.350674,0,0,3.52063,4
1777327340882,-0.00998023,1.10737,-0.183963,-1.47333,0.0061019,0.349433,0,0,3.43611,4
1777327340896,0.000836715,1.14699,-0.201663,-1.53099,0.0354972,0.34916,0,0,3.53522,4
1777327340909,0.0107867,1.1797,-0.224163,-1.58088,0.0576857,0.349357,0,0,3.44763,4
1777327340923,0.0207949,1.20802,-0.251015,-1.6232,0.0744848,0.344311,0,0,3.50241,5
1777327340937,0.0327477,1.24152,-0.285208,-1.65109,0.0867877,0.331061,0,0,3.50168,5
1777327340950,0.045331,1.27941,-0.326905,-1.65661,0.0946453,0.315775,0,0,3.412,5
1777327340964,0.0586875,1.31069,-0.375082,-1.63701,0.0966926,0.3069,0,0,3.50091,5
1777327340977,0.070391,1.33435,-0.42817,-1.59232,0.0916329,0.30149,0,0,3.47681,5
1777327340991,0.0728105,1.34998,-0.485101,-1.52472,0.0819456,0.291422,0,0,3.52255,5
1777327341005,0.0611808,1.35314,-0.539318,-1.43967,0.0730458,0.270545,0,0,3.44193,5
1777327341018,0.180081,1.5016,-0.629057,-1.28803,0.0351817,0.191039,0,0,3.54087,5
1777327341032,0.213446,1.49647,-0.524957,-1.12111,-0.0100214,0.155706,0,0,3.52304,5
1777327341045,0.185287,1.49008,-0.439432,-0.941124,-0.02615,0.14335,0,0,3.44041,5
1777327341059,0.17262,1.45466,-0.391735,-0.762503,-0.0486145,0.124806,0,0,3.53363,5
1777327341073,0.151325,1.42346,-0.357547,-0.589829,-0.0602789,0.113904,0,0,3.49854,5
1777327341086,0.144685,1.39249,-0.333848,-0.440402,-0.0663264,0.10731,0,0,3.53678,5
1777327341100,0.143198,1.3656,-0.314738,-0.310532,-0.0746594,0.100173,0,0,3.45226,5
1777327341114,0.134946,1.34546,-0.30048,-0.201503,-0.0845632,0.0987072,0,0,3.59915,5
1777327341127,0.124282,1.32361,-0.292102,-0.11263,-0.0898266,0.0984886,0,0,3.46493,5
1777327341141,0.116571,1.3002,-0.285222,-0.043086,-0.0859955,0.0986418,0,0,3.53026,5
1777327341155,0.111046,1.27707,-0.282657,0.00867501,-0.0754255,0.100743,0,0,3.53668,1
1777327341169,0.113527,1.25075,-0.277977,0.0445029,-0.0646221,0.101862,0,0,3.81276,1
1777327341182,0.108624,1.23366,-0.273902,0.0688753,-0.05478,0.106352,0,0,3.50968,1
1777327341196,0.107434,1.21747,-0.263824,0.0878471,-0.0462265,0.110796,0,0,3.43663,1
1777327341209,0.109131,1.20473,-0.256639,0.103691,-0.0392703,0.11392,0,0,3.53067,1
1777327341223,0.110555,1.18937,-0.2502,0.11582,-0.0334494,0.114167,0,0,3.43491,1
1777327341237,0.11205,1.17654,-0.242739,0.124635,-0.0285544,0.112297,0,0,3.54976,1
1777327341250,0.113407,1.16317,-0.23823,0.130665,-0.0247818,0.109539,0,0,3.5187,1
1777327341264,0.114098,1.15302,-0.234275,0.134336,-0.0209125,0.104727,0,0,3.4368,1
1777327341277,0.11497,1.14466,-0.229625,0.136628,-0.0168578,0.0985739,0,0,3.51252,1
1777327341291,0.112163,1.13804,-0.223825,0.137712,-0.0124011,0.0935113,0,0,3.44365,1
1777327341305,0.112158,1.12994,-0.217282,0.138363,-0.00776187,0.087718,0,0,3.54209,1
1777327341318,0.110988,1.12462,-0.212708,0.137962,-0.00343,0.0826906,0,0,3.44567,1
1777327341332,0.11135,1.11738,-0.208897,0.137156,0.000701715,0.0768534,0,0,3.61222,1
1777327341346,0.111828,1.11122,-0.204123,0.135834,0.00455885,0.0703373,0,0,3.45763,1
1777327341359,0.111676,1.10657,-0.200356,0.133284,0.00739464,0.0641996,0,0,3.49785,1
1777327341373,0.110767,1.10131,-0.196731,0.130591,0.00901802,0.0584662,0,0,3.8133,1
1777327341387,0.10936,1.09543,-0.193666,0.127702,0.010803,0.0533026,0,0,3.45293,1
1777327341400,0.107348,1.09085,-0.190445,0.125082,0.0121581,0.0491738,0,0,3.56444,1
1777327341414,0.107311,1.08568,-0.188705,0.12239,0.0128763,0.0449126,0,0,3.44483,1
1777327341428,0.104989,1.08307,-0.18876,0.119927,0.0134472,0.040702,0,0,3.54019,1
1777327341441,0.103113,1.08112,-0.184869,0.117486,0.0139346,0.0358926,0,0,3.45418,1
1777327341455,0.101122,1.07604,-0.182853,0.114159,0.0146602,0.0303211,0,0,3.55337,1
1777327341468,0.101667,1.07074,-0.182525,0.111134,0.0157133,0.0236919,0,0,3.52243,4
1777327341482,0.101798,1.06569,-0.181338,0.10809,0.0147634,0.0160258,0,0,3.48472,4
1777327341496,0.101867,1.06157,-0.180205,0.105448,0.0135499,0.00771066,0,0,3.5127,4
1777327341509,0.102206,1.05702,-0.177656,0.103023,0.0122932,-0.00164953,0,0,3.43307,4
1777327341523,0.100047,1.05436,-0.174949,0.101453,0.011411,-0.010262,0,0,3.53222,4
1777327341536,0.0983385,1.05287,-0.173394,0.100143,0.010651,-0.0184214,0,0,3.45089,4
1777327341550,0.0938769,1.0499,-0.173089,0.0992398,0.0101435,-0.0241663,0,0,3.57556,4
1777327341564,0.089871,1.04691,-0.171734,0.0978395,0.00986567,-0.0278805,0,0,3.45259,4
1777327341577,0.0839672,1.04272,-0.171413,0.0957684,0.00990746,-0.0282049,0,0,3.51567,4
1777327341591,0.0807363,1.03994,-0.171165,0.0937406,0.0100882,-0.0265629,0,0,3.513,4
1777327341604,0.0785767,1.04234,-0.169753,0.0938434,0.00987773,-0.0237926,0,0,3.4222,4
1777327341618,0.0797017,1.04173,-0.167996,0.0940132,0.0092209,-0.0223938,0,0,3.49246,4
1777327341632,0.0789833,1.04026,-0.16757,0.0955607,0.00827549,-0.0214032,0,0,3.43267,4
1777327341645,0.0777438,1.03842,-0.166346,0.0975824,0.00718615,-0.0203396,0,0,3.54046,4
1777327341659,0.0765737,1.04002,-0.166574,0.101413,0.0056869,-0.0191217,0,0,3.44202,4
1777327341673,0.0752365,1.03994,-0.166118,0.1047,0.00443018,-0.0163963,0,0,3.51202,4
1777327341686,0.0734813,1.03752,-0.166387,0.109955,0.00324395,-0.0128646,0,0,3.49463,4
1777327341700,0.0724682,1.03792,-0.167338,0.115957,0.00219706,-0.00843921,0,0,3.41246,1
1777327341713,0.0709368,1.04444,-0.166853,0.122769,0.000442428,-0.00129041,0,0,3.51431,1
1777327341727,0.0709428,1.04978,-0.166861,0.131237,-0.00145784,0.00995764,0,0,3.41956,1
1777327341740,0.0706747,1.05786,-0.166047,0.143996,-0.00284475,0.0213583,0,0,3.52846,1
1777327341754,0.0715034,1.06985,-0.164908,0.160442,-0.00480899,0.0334512,0,0,3.43957,1
1777327341768,0.071149,1.07603,-0.163724,0.180914,-0.00711692,0.0447758,0,0,3.5828,1
1777327341781,0.0706639,1.08586,-0.163551,0.205762,-0.00979209,0.0550756,0,0,3.48972,1
1777327341795,0.0726436,1.09944,-0.162348,0.235176,-0.0121716,0.0644293,0,0,3.47724,1
1777327341809,0.0766348,1.10826,-0.16206,0.269856,-0.0155909,0.0720681,0,0,3.52131,1
1777327341822,0.0758146,1.11662,-0.161885,0.307891,-0.0190582,0.0795267,0,0,3.40585,1
1777327341836,0.0754512,1.12618,-0.163103,0.350323,-0.0217615,0.0866611,0,0,3.51831,1
1777327341849,0.0804216,1.13001,-0.16606,0.396352,-0.0256619,0.0912373,0,0,3.42843,1
1777327341863,0.0850311,1.13089,-0.170618,0.445237,-0.0299902,0.093326,0,0,3.48993,1
1777327341876,0.0871908,1.12392,-0.1757,0.493401,-0.0336688,0.0913753,0,0,3.40198,1
1777327341890,0.0897636,1.13299,-0.179909,0.544122,-0.0384086,0.0896496,0,0,3.5028,1
1777327341904,0.0905213,1.14315,-0.180937,0.599234,-0.0439958,0.0882049,0,0,3.49696,1
1777327341917,0.0941397,1.15205,-0.184003,0.658054,-0.0510765,0.0875991,0,0,3.4692,1
1777327341931,0.0985137,1.16493,-0.18509,0.723196,-0.0591003,0.0842226,0,0,3.51469,1
1777327341944,0.104875,1.17945,-0.18491,0.792507,-0.0696242,0.0817763,0,0,3.4253,1
1777327341958,0.110865,1.19857,-0.1827,0.868883,-0.0810607,0.0789406,0,0,3.53654,1
1777327341972,0.111548,1.22987,-0.181627,0.955992,-0.0978204,0.0775356,0,0,3.43713,1
1777327341985,0.108811,1.24613,-0.181997,1.04267,-0.112784,0.0797077,0,0,3.515,1
1777327341999,0.0919572,1.26922,-0.185702,1.12449,-0.123777,0.0846397,0,0,3.45324,1
1777327342012,0.0773362,1.28259,-0.204359,1.20172,-0.129513,0.0901514,0,0,3.47202,1
1777327342026,0.0589615,1.28819,-0.222421,1.27461,-0.126526,0.102886,0,0,3.51189,1
1777327342040,0.0541341,1.24557,-0.254069,1.34342,-0.117836,0.130136,0,0,3.42872,1
1777327342053,0.0483313,1.23692,-0.266193,1.40837,-0.10986,0.14944,0,0,3.53752,1
1777327342067,0.0553844,1.24692,-0.284867,1.46968,-0.101865,0.179787,0,0,3.43396,1
1777327342081,0.0614667,1.22521,-0.299208,1.52754,-0.0931713,0.229267,0,0,3.96789,1
1777327342094,0.0826004,1.21819,-0.3035,1.58216,-0.0961962,0.277445,0,0,3.4533,1
1777327342108,0.0977967,1.17392,-0.295241,1.62999,-0.104674,0.320608,0,0,3.57194,1
1777327342122,0.0756176,1.09812,-0.249908,1.64784,-0.105957,0.342818,0,0,3.45941,1
1777327342135,0.0753337,0.885295,-0.301514,1.60899,-0.0755087,0.318031,0,0,3.48187,1
1777327342149,0.0705876,0.805715,-0.306608,1.51938,-0.0257142,0.27415,0,0,3.52746,1
1777327342163,0.0894979,0.738719,-0.30624,1.39395,0.0260401,0.222603,0,0,3.40826,1
1777327342176,0.125849,0.696241,-0.297676,1.24581,0.064405,0.164913,0,0,3.5275,4
1777327342190,0.16294,0.655955,-0.288757,1.0787,0.0776629,0.105582,0,0,3.48065,4
1777327342203,0.190064,0.610985,-0.278298,0.890442,0.0681256,0.0470355,0,0,3.49943,4
1777327342217,0.199109,0.570086,-0.26303,0.700187,0.0421456,-0.0112285,0,0,3.43926,4
1777327342231,0.195664,0.542189,-0.242374,0.520604,0.00754769,-0.0691103,0,0,3.58802,4
1777327342244,0.183908,0.538234,-0.213975,0.351094,-0.0294556,-0.122341,0,0,3.5403,4
1777327342258,0.175372,0.565587,-0.187593,0.191092,-0.0705749,-0.156131,0,0,3.42463,4
1777327342271,0.17115,0.607251,-0.168676,0.0400652,-0.11826,-0.167947,0,0,3.51433,4
1777327342285,0.163933,0.635238,-0.158242,-0.10249,-0.168665,-0.165797,0,0,3.50535,4
1777327342299,0.142796,0.647153,-0.15294,-0.237049,-0.21337,-0.16307,0,0,3.48524,4
1777327342312,0.112998,0.647869,-0.148621,-0.364061,-0.241848,-0.173864,0,0,3.41018,4
1777327342326,0.0880628,0.654077,-0.141599,-0.483948,-0.255211,-0.196371,0,0,3.49572,4
1777327342339,0.0796584,0.69357,-0.134286,-0.59711,-0.262403,-0.215128,0,0,3.49665,4
1777327342353,0.0822702,0.738764,-0.133834,-0.703925,-0.270164,-0.219374,0,0,3.52352,4
1777327342367,0.078888,0.77956,-0.141459,-0.804748,-0.276569,-0.209287,0,0,3.51057,4
1777327342380,0.0663148,0.814425,-0.149766,-0.899916,-0.272407,-0.194054,0,0,3.41333,4
1777327342394,0.0476544,0.84554,-0.1604,-0.989746,-0.251783,-0.18239,0,0,3.49513,4
1777327342407,0.0325194,0.875088,-0.169535,-1.07454,-0.214628,-0.17257,0,0,3.42894,4
1777327342421,0.0220815,0.906991,-0.176376,-1.15457,-0.165889,-0.157893,0,0,3.53433,4
1777327342435,0.0181862,0.940515,-0.181451,-1.23012,-0.107017,-0.133977,0,0,3.44857,4
1777327342448,0.0204254,0.971322,-0.184762,-1.29931,-0.041295,-0.103464,0,0,3.54765,4
1777327342462,0.0238947,0.996787,-0.187956,-1.36674,0.0269663,-0.0694946,0,0,3.53011,4
1777327342476,0.0281691,1.0249,-0.190929,-1.43038,0.0947599,-0.0366339,0,0,3.42683,4
1777327342489,0.0324092,1.05773,-0.196283,-1.49046,0.157775,-0.00372394,0,0,3.49555,4
1777327342503,0.0361512,1.0921,-0.206362,-1.54716,0.214155,0.0189519,0,0,3.41168,5
1777327342516,0.0420935,1.12425,-0.220012,-1.5972,0.262915,0.0223548,0,0,3.52354,5
1777327342530,0.0591237,1.16184,-0.238278,-1.63536,0.300598,0.0101479,0,0,3.44952,5
1777327342544,0.0985614,1.20038,-0.265859,-1.65477,0.319144,-0.00412332,0,0,3.58754,5
1777327342557,0.156589,1.23099,-0.30241,-1.65293,0.309498,-0.0106317,0,0,3.46339,5
1777327342571,0.205103,1.25584,-0.345977,-1.63187,0.271477,0.00805983,0,0,3.49391,5
1777327342584,0.221316,1.27375,-0.39181,-1.5925,0.217649,0.0437081,0,0,3.52668,5
1777327342598,0.19837,1.28475,-0.438579,-1.53597,0.166411,0.0757211,0,0,3.49346,5
1777327342612,0.152843,1.29,-0.48612,-1.46226,0.133179,0.085651,0,0,3.50915,5
1777327342625,0.114799,1.29607,-0.526818,-1.3715,0.119226,0.0702148,0,0,3.45198,5
1777327342639,0.100636,1.30185,-0.559495,-1.26613,0.114264,0.0502321,0,0,3.54981,5
1777327342652,-0.0348183,1.16134,-0.437687,-1.0548,0.117206,0.0200106,0,0,3.44819,5
1777327342666,-0.0381102,1.23276,-0.362042,-0.873155,0.0750712,-0.00684589,0,0,3.54968,5
1777327342680,-0.0275368,1.23109,-0.318536,-0.683874,0.0651269,-0.0261542,0,0,3.53124,5
1777327342693,-0.0407411,1.20906,-0.295136,-0.510798,0.0601977,-0.0235139,0,0,3.50941,5
1777327342707,-0.0348816,1.19005,-0.279115,-0.359051,0.0564486,-0.0155752,0,0,3.5092,5
1777327342721,-0.0264475,1.17704,-0.269964,-0.235088,0.0439606,-0.0102784,0,0,3.41676,5
1777327342734,-0.0231837,1.16415,-0.261654,-0.135768,0.0314838,0.00221032,0,0,3.52893,5
1777327342748,-0.0282101,1.14915,-0.257714,-0.0593984,0.0232136,0.0159938,0,0,3.46117,5
1777327342761,-0.0270386,1.13454,-0.2542,-0.00363943,0.0241338,0.0295437,0,0,3.59918,5
1777327342775,-0.0226461,1.12508,-0.249856,0.0356367,0.0287704,0.0418411,0,0,3.46017,5
1777327342789,-0.01635,1.11552,-0.246304,0.0608319,0.0313271,0.0505414,0,0,3.99754,5
1777327342803,-0.0102016,1.10426,-0.2385,0.0797367,0.033976,0.056587,0,0,3.5338,0
1777327342816,-0.000755343,1.0976,-0.230586,0.0955345,0.0364848,0.0586068,0,0,3.41813,0
1777327342830,0.00449091,1.08928,-0.22276,0.108562,0.0398805,0.0575502,0,0,3.53559,0
1777327342844,0.0117573,1.08187,-0.217221,0.118482,0.0430515,0.0526736,0,0,3.42754,0
1777327342858,0.0180408,1.07706,-0.211953,0.125453,0.044045,0.047274,0,0,3.54107,0
1777327342871,0.0208907,1.07242,-0.207582,0.130195,0.044606,0.0413253,0,0,3.42583,0
1777327342886,0.0248132,1.06921,-0.204456,0.132693,0.0451697,0.0354405,0,0,4.83256,0
1777327342900,0.0282966,1.06616,-0.200355,0.133369,0.0438307,0.0312859,0,0,3.4968,0
1777327342914,0.0313655,1.06377,-0.197019,0.133569,0.0425025,0.0289016,0,0,4.07576,0
1777327342928,0.0317014,1.06193,-0.191199,0.133078,0.0415143,0.0276957,0,0,3.51461,0
1777327342941,0.0325114,1.06035,-0.185828,0.132139,0.0411853,0.026579,0,0,3.43298,0
1777327342955,0.033906,1.05895,-0.181937,0.130936,0.0412216,0.0245871,0,0,3.51254,0
1777327342969,0.0363726,1.05497,-0.178949,0.129123,0.0397486,0.0227327,0,0,3.39046,0
1777327342982,0.0386462,1.05198,-0.17432,0.126856,0.038718,0.0203956,0,0,3.50378,0
1777327342996,0.0415316,1.04863,-0.169541,0.12544,0.03861,0.0171192,0,0,3.71461,0
1777327343011,0.0437075,1.04713,-0.166426,0.124411,0.0380971,0.0130503,0,0,4.88474,0
1777327343025,0.045953,1.04068,-0.163733,0.122326,0.0376172,0.0085674,0,0,3.43944,0
1777327343039,0.0457993,1.03473,-0.160999,0.120205,0.0375582,0.00435734,0,0,4.8022,0
1777327343053,0.0469004,1.03288,-0.158514,0.118566,0.0374297,-0.000926832,0,0,3.43172,0
1777327343067,0.0482548,1.03146,-0.158099,0.116574,0.0373384,-0.00636419,0,0,4.17087,0
1777327343082,0.0473283,1.02893,-0.155544,0.115272,0.0368068,-0.0113338,0,0,3.51817,0
1777327343096,0.0465771,1.02769,-0.153612,0.114257,0.0354787,-0.0154424,0,0,3.85635,0
1777327343112,0.0445533,1.02589,-0.152418,0.112614,0.0340025,-0.0177619,0,0,3.53161,0
1777327343126,0.0440399,1.02368,-0.150839,0.111375,0.0324549,-0.0193262,0,0,3.43022,0
1777327343140,0.0430486,1.02313,-0.149389,0.10911,0.0309984,-0.0193896,0,0,3.54863,0
1777327343154,0.0443451,1.02119,-0.15024,0.106694,0.029448,-0.020276,0,0,3.45485,0
1777327343168,0.0435558,1.02424,-0.149522,0.105929,0.0275907,-0.0204746,0,0,3.50485,0
1777327343182,0.0437557,1.02551,-0.148763,0.106028,0.0253665,-0.0210774,0,0,3.46622,0
1777327343195,0.0426434,1.02517,-0.148005,0.107086,0.0232671,-0.021094,0,0,3.51352,0
1777327343209,0.0427164,1.02387,-0.147701,0.108607,0.0211784,-0.0211825,0,0,3.50002,0
1777327343223,0.0421417,1.02387,-0.147961,0.111087,0.0188558,-0.0208764,0,0,3.49378,0
1777327343236,0.0432562,1.03126,-0.147632,0.115569,0.015867,-0.0219534,0,0,3.47674,0
1777327343250,0.0435414,1.03504,-0.146239,0.120113,0.0126305,-0.0221393,0,0,3.53315,0
1777327343264,0.0430163,1.03703,-0.1465,0.125463,0.00927155,-0.0206191,0,0,3.50591,0
1777327343278,0.0443009,1.03788,-0.146608,0.131536,0.00554009,-0.0161741,0,0,3.42711,0
1777327343291,0.0447602,1.04408,-0.146245,0.138961,0.00120438,-0.00649756,0,0,3.51354,1
1777327343305,0.0412498,1.05206,-0.146711,0.148696,-0.00244282,0.00458441,0,0,3.53467,1
1777327343319,0.0373338,1.0571,-0.14752,0.161366,-0.00505047,0.0158883,0,0,3.5132,1
1777327343332,0.0364858,1.06136,-0.148009,0.175882,-0.00734058,0.0272518,0,0,3.43395,1
1777327343346,0.0344666,1.06657,-0.147965,0.192911,-0.00876146,0.0375068,0,0,3.48548,1
1777327343359,0.0352585,1.07039,-0.150059,0.212213,-0.0101112,0.0467242,0,0,3.48554,1
1777327343373,0.0367181,1.07788,-0.151023,0.233974,-0.0117578,0.0556687,0,0,3.51794,1
1777327343387,0.0396022,1.07937,-0.15348,0.25865,-0.0135646,0.0625871,0,0,3.51957,1
1777327343401,0.0437761,1.0863,-0.154936,0.285282,-0.0160579,0.0699438,0,0,3.52205,1
1777327343414,0.0478118,1.08316,-0.158598,0.314042,-0.0190923,0.0736636,0,0,3.49274,1
1777327343428,0.0481016,1.09049,-0.164012,0.344358,-0.0215581,0.0773931,0,0,3.42168,1
1777327343442,0.0526615,1.09151,-0.167617,0.376681,-0.0248491,0.0789652,0,0,3.51135,1
1777327343455,0.0573902,1.08927,-0.171348,0.411345,-0.0288205,0.0768523,0,0,3.42959,1
1777327343469,0.0591832,1.08312,-0.179566,0.446008,-0.0317897,0.0725972,0,0,3.58068,1
1777327343482,0.0591638,1.09014,-0.186407,0.482752,-0.0335819,0.0680283,0,0,3.48807,1
1777327343496,0.0597618,1.10369,-0.188878,0.522372,-0.0363141,0.0658524,0,0,3.3783,1
1777327343510,0.0624762,1.12465,-0.193265,0.569905,-0.0406057,0.0640255,0,0,3.48617,1
1777327343523,0.0652849,1.14814,-0.192682,0.625343,-0.0451319,0.0619328,0,0,3.42343,1
1777327343537,0.0717568,1.17052,-0.19261,0.688295,-0.053061,0.0605141,0,0,3.51763,1
1777327343551,0.0770714,1.19766,-0.192666,0.760943,-0.061453,0.0578905,0,0,3.41837,1
1777327343564,0.0766375,1.22509,-0.192951,0.845045,-0.0710699,0.0542322,0,0,3.53665,1
1777327343578,0.0751872,1.2557,-0.193166,0.937949,-0.0854954,0.0536608,0,0,3.43978,1
1777327343592,0.0689019,1.28132,-0.191123,1.02564,-0.0981099,0.0576046,0,0,3.83224,1
1777327343605,0.0550811,1.29953,-0.196603,1.10841,-0.104459,0.0594902,0,0,3.63311,1
1777327343619,0.0528817,1.32062,-0.206144,1.18654,-0.107373,0.0845378,0,0,3.41291,1
1777327343633,0.0437392,1.31632,-0.23591,1.26029,-0.114975,0.111298,0,0,3.53556,1
1777327343646,0.0340003,1.30123,-0.242932,1.3299,-0.111605,0.124558,0,0,3.43889,1
1777327343660,0.0586604,1.31357,-0.264842,1.39561,-0.117462,0.153158,0,0,3.53119,1
1777327343673,0.0561506,1.29272,-0.27617,1.45763,-0.11951,0.166422,0,0,3.4495,1
1777327343687,0.0659148,1.26813,-0.267609,1.51617,-0.124367,0.160564,0,0,3.49759,1
1777327343701,0.066901,1.21659,-0.243012,1.56276,-0.124465,0.131921,0,0,3.51063,1
1777327343714,0.0601629,1.04633,-0.296771,1.57888,-0.0905761,0.0736567,0,0,3.59543,1
1777327343729,0.0621154,0.94621,-0.296941,1.51068,-0.0495107,0.0126405,0,0,3.51517,1
1777327343742,0.0855271,0.89319,-0.299033,1.40231,-0.0156943,-0.028515,0,0,3.43778,1
1777327343756,0.114938,0.861494,-0.296666,1.27579,-0.000529643,-0.0374489,0,0,3.53546,1
1777327343770,0.137332,0.835177,-0.293144,1.14008,-0.00312472,-0.029358,0,0,3.42306,1
1777327343783,0.149266,0.816568,-0.289232,1.00359,-0.0150928,-0.0256217,0,0,3.50963,4
1777327343797,0.149699,0.798921,-0.285716,0.869612,-0.0301747,-0.0379549,0,0,3.42613,4
1777327343810,0.143781,0.778127,-0.283371,0.738313,-0.0447447,-0.0685266,0,0,3.50526,4
1777327343824,0.135962,0.754118,-0.283005,0.607263,-0.057474,-0.112926,0,0,3.48074,4
1777327343837,0.129075,0.728196,-0.281975,0.471789,-0.0689883,-0.164744,0,0,3.40668,4
1777327343851,0.125807,0.702085,-0.279949,0.330083,-0.0810514,-0.216507,0,0,3.50387,4
1777327343865,0.127898,0.683506,-0.274531,0.183883,-0.0953067,-0.25691,0,0,3.43715,4
1777327343878,0.133651,0.673582,-0.266211,0.0362359,-0.11322,-0.279473,0,0,3.50206,4
1777327343892,0.137808,0.67109,-0.258797,-0.106105,-0.132787,-0.285159,0,0,3.42363,4
1777327343905,0.133926,0.672038,-0.2531,-0.240461,-0.14823,-0.283606,0,0,3.59843,4
1777327343919,0.12551,0.679369,-0.25016,-0.367281,-0.15518,-0.285682,0,0,3.47204,4
1777327343933,0.115142,0.691246,-0.250069,-0.486988,-0.151978,-0.291276,0,0,3.60487,4
1777327343946,0.106205,0.707305,-0.251133,-0.599979,-0.138045,-0.297979,0,0,3.48481,4
1777327343960,0.0209159,0.750194,-0.29281,-0.696554,-0.0866138,-0.340144,0,0,3.44013,4
1777327343974,0.0501991,0.801428,-0.3141,-0.79779,-0.0510587,-0.364701,0,0,3.52148,4
1777327343987,0.0642275,0.820509,-0.300864,-0.893349,-0.0140426,-0.357398,0,0,3.43783,4
1777327344001,0.0767431,0.8423,-0.295203,-0.983547,0.0247167,-0.336263,0,0,3.51657,4
1777327344014,0.0821067,0.861813,-0.287669,-1.06869,0.0667184,-0.315064,0,0,3.49456,4
1777327344028,0.0920309,0.876603,-0.277312,-1.14905,0.106368,-0.304512,0,0,3.52181,4
1777327344042,0.102275,0.899863,-0.263496,-1.2249,0.142077,-0.300037,0,0,3.49043,4
1777327344055,0.11634,0.9328,-0.248333,-1.2965,0.169365,-0.288178,0,0,3.54255,4
1777327344070,0.133451,0.96897,-0.234773,-1.36409,0.18428,-0.259776,0,0,3.52106,4
1777327344083,0.144234,1.00818,-0.223275,-1.42788,0.188095,-0.217479,0,0,3.4175,4
1777327344097,0.144018,1.04624,-0.214873,-1.4881,0.186086,-0.176048,0,0,3.53585,4
1777327344111,0.131995,1.08205,-0.210859,-1.54493,0.183942,-0.144747,0,0,3.50631,4
1777327344124,0.115854,1.1163,-0.209891,-1.59858,0.184933,-0.124506,0,0,3.53068,4
1777327344138,0.103645,1.16014,-0.215756,-1.64922,0.188518,-0.1088,0,0,3.42507,4
1777327344151,0.10031,1.20657,-0.233973,-1.69699,0.191839,-0.0922705,0,0,3.48218,4
1777327344165,0.107392,1.25536,-0.264575,-1.72232,0.190811,-0.0711705,0,0,3.50035,5
1777327344178,0.115241,1.29528,-0.308785,-1.7232,0.182334,-0.036546,0,0,3.36896,5
1777327344192,0.108667,1.32912,-0.363511,-1.70078,0.16806,0.010318,0,0,3.50865,5
1777327344206,0.0785926,1.35046,-0.426438,-1.65505,0.157708,0.0534014,0,0,3.44081,5
1777327344219,0.0366477,1.36331,-0.493983,-1.58649,0.15946,0.0711602,0,0,3.51424,5
1777327344233,0.0165017,1.5112,-0.690644,-1.42722,0.151641,0.0207232,0,0,3.43048,5
1777327344246,0.0667659,1.59054,-0.686743,-1.21157,0.113805,0.0205713,0,0,3.60328,5
1777327344260,0.0640616,1.57661,-0.617122,-1.01754,0.0669961,0.0154353,0,0,3.52159,5
1777327344274,0.0629469,1.54098,-0.550954,-0.836054,0.0190407,0.0121417,0,0,3.85363,5
1777327344288,0.0506379,1.51151,-0.50693,-0.663215,-0.0139486,0.00638235,0,0,3.52411,5
1777327344301,0.0458529,1.47777,-0.475414,-0.513461,-0.0282255,0.00642256,0,0,3.424,5
1777327344315,0.0452803,1.45013,-0.446884,-0.385997,-0.0355143,0.00575401,0,0,3.60387,5
1777327344328,0.0457943,1.42123,-0.42038,-0.275711,-0.0400992,0.00281932,0,0,3.43935,5
1777327344342,0.0394322,1.39492,-0.401086,-0.186799,-0.0420547,0.00542298,0,0,3.54011,5
1777327344356,0.0381653,1.36868,-0.382847,-0.114401,-0.0420122,0.00943919,0,0,3.45741,5
1777327344369,0.036942,1.34425,-0.364344,-0.0559375,-0.0378359,0.0142578,0,0,3.50913,5
1777327344383,0.0388549,1.32123,-0.351042,-0.00987841,-0.0316415,0.0203775,0,0,3.52478,1
1777327344397,0.0384147,1.30039,-0.339609,0.0248749,-0.0250881,0.0275285,0,0,3.7188,1
1777327344410,0.0383688,1.27715,-0.326777,0.051346,-0.0190693,0.0319661,0,0,3.52554,1
1777327344424,0.0418588,1.25871,-0.315143,0.0717164,-0.0115126,0.0347889,0,0,3.50428,1
1777327344438,0.0439615,1.24277,-0.301931,0.0887904,-0.00499213,0.0366483,0,0,3.53372,1
1777327344451,0.0462749,1.22818,-0.28887,0.102817,0.000605966,0.036284,0,0,3.43813,1
1777327344465,0.0507593,1.21288,-0.277542,0.11452,0.00688772,0.0333752,0,0,3.66841,1
1777327344479,0.0547045,1.20039,-0.266794,0.123579,0.0119137,0.0289683,0,0,3.46576,1
1777327344493,0.057059,1.18763,-0.259786,0.129789,0.0162295,0.0238965,0,0,3.84654,1
1777327344506,0.055447,1.17934,-0.249596,0.134472,0.020847,0.0203209,0,0,3.51367,1
1777327344520,0.0564178,1.16993,-0.241744,0.138118,0.0236341,0.0188,0,0,3.50868,1
1777327344533,0.0575943,1.16133,-0.236291,0.139782,0.0248004,0.0196295,0,0,3.53272,1
1777327344547,0.0576367,1.15378,-0.228748,0.140573,0.0259999,0.0214058,0,0,3.44291,1
1777327344561,0.0572932,1.14663,-0.221545,0.140297,0.0270078,0.0238062,0,0,3.55531,1
1777327344574,0.0567499,1.13713,-0.21413,0.138974,0.0279121,0.0251213,0,0,3.439,1
1777327344588,0.0578804,1.12997,-0.207131,0.136972,0.029044,0.0258745,0,0,3.51794,1
1777327344602,0.0591803,1.1237,-0.200511,0.135001,0.0299326,0.0252538,0,0,3.50585,1
1777327344615,0.0604347,1.1178,-0.194797,0.133012,0.0307243,0.0241584,0,0,3.68294,1
1777327344629,0.0623719,1.11155,-0.190019,0.130458,0.0311375,0.0221354,0,0,3.51996,1
1777327344643,0.0641183,1.10782,-0.185783,0.128009,0.0314634,0.020063,0,0,3.41057,1
1777327344656,0.0626581,1.10217,-0.18047,0.125419,0.0323062,0.0179614,0,0,3.50631,1
1777327344670,0.0630189,1.09311,-0.17855,0.121009,0.0308623,0.0162217,0,0,3.42628,1
1777327344683,0.0629625,1.08732,-0.175806,0.117158,0.030831,0.0160996,0,0,3.52509,4
1777327344697,0.061033,1.08506,-0.17386,0.114273,0.0311655,0.0167423,0,0,3.43641,4
1777327344711,0.0612111,1.0791,-0.169504,0.111636,0.0322263,0.0172847,0,0,3.50874,4
1777327344724,0.0622557,1.07377,-0.167309,0.108894,0.0307312,0.0174499,0,0,3.4882,4
1777327344738,0.0652685,1.07215,-0.163183,0.105967,0.029093,0.0168779,0,0,3.39213,4
1777327344751,0.0676193,1.07108,-0.160356,0.103782,0.0271614,0.014942,0,0,3.49291,4
1777327344765,0.0678115,1.06364,-0.157935,0.10095,0.0251412,0.0115177,0,0,3.43972,4
1777327344778,0.0686639,1.05899,-0.156526,0.0995819,0.0225877,0.00807126,0,0,3.51252,4
1777327344792,0.0686468,1.05419,-0.154689,0.0983594,0.0200361,0.00461694,0,0,3.43289,4
1777327344806,0.0683294,1.04986,-0.154393,0.0975051,0.0170839,0.00144629,0,0,3.48926,4
1777327344819,0.066496,1.04387,-0.15273,0.0963605,0.0145413,-0.000420369,0,0,3.54867,4
1777327344833,0.0670114,1.04316,-0.151668,0.0963334,0.0118973,-0.00234076,0,0,3.78887,4
1777327344847,0.0672787,1.04299,-0.151459,0.0972156,0.00938876,-0.00441462,0,0,3.49222,4
1777327344861,0.0684349,1.04176,-0.14992,0.0983866,0.00694813,-0.00692023,0,0,3.43263,4
1777327344874,0.0691701,1.04022,-0.149057,0.0996204,0.00453307,-0.00933239,0,0,3.49035,4
1777327344888,0.069645,1.0385,-0.148844,0.101046,0.00182529,-0.0115878,0,0,3.44939,4
1777327344901,0.0669436,1.03676,-0.14889,0.10345,-0.000803391,-0.0133357,0,0,3.52381,4
1777327344915,0.0652564,1.03495,-0.14959,0.105928,-0.00350728,-0.0137438,0,0,3.47048,4
1777327344929,0.0633626,1.03606,-0.150073,0.108306,-0.00611089,-0.0124933,0,0,3.54948,4
1777327344942,0.0612053,1.03784,-0.150666,0.110944,-0.00832439,-0.00959163,0,0,3.50074,1
1777327344956,0.0597989,1.03891,-0.151541,0.114497,-0.0104394,-0.00422367,0,0,3.83959,1
1777327344970,0.0564857,1.04111,-0.152955,0.119216,-0.0119177,0.00223908,0,0,3.51344,1
1777327344984,0.0550154,1.04501,-0.153085,0.125986,-0.0126665,0.0106258,0,0,3.41339,1
1777327344997,0.0531072,1.05137,-0.152455,0.135036,-0.0125469,0.0208672,0,0,3.49855,1
1777327345011,0.0533054,1.05639,-0.152257,0.146559,-0.0119759,0.0308638,0,0,3.42824,1
1777327345025,0.0539855,1.06407,-0.151303,0.162158,-0.011621,0.0408349,0,0,3.54728,1
1777327345038,0.0546274,1.07158,-0.15169,0.180689,-0.0115258,0.0501911,0,0,3.41981,1
1777327345052,0.0560687,1.08092,-0.15159,0.202633,-0.011847,0.0589881,0,0,3.49354,1
1777327345065,0.057032,1.09242,-0.149277,0.227654,-0.0126597,0.0670862,0,0,3.47704,1
1777327345079,0.0553804,1.10023,-0.149928,0.256333,-0.0136024,0.0748072,0,0,3.53026,1
1777327345093,0.0590527,1.10758,-0.148516,0.289415,-0.0155027,0.0812472,0,0,3.50491,1
1777327345107,0.0593693,1.11098,-0.151648,0.328032,-0.0172151,0.0862512,0,0,3.4138,1
1777327345121,0.0598051,1.11094,-0.156521,0.367351,-0.0182491,0.0914841,0,0,3.49228,1
1777327345135,0.0613258,1.11416,-0.158396,0.408785,-0.0186984,0.0951176,0,0,3.47759,1
1777327345148,0.0647194,1.13247,-0.159699,0.456545,-0.0199532,0.101532,0,0,3.50639,1
1777327345162,0.0653892,1.14283,-0.161231,0.509461,-0.0224222,0.107963,0,0,3.42326,1
1777327345176,0.0649121,1.15503,-0.161294,0.567177,-0.0259516,0.11718,0,0,3.51882,1
1777327345189,0.0670638,1.16718,-0.159806,0.628819,-0.0302935,0.127598,0,0,3.49454,1
1777327345204,0.0719569,1.17601,-0.163236,0.695164,-0.0359163,0.138857,0,0,3.98294,1
1777327345217,0.077452,1.18222,-0.164433,0.766381,-0.0407783,0.147035,0,0,3.4982,1
1777327345231,0.0837755,1.20074,-0.165507,0.84272,-0.0493798,0.156703,0,0,3.49781,1
1777327345245,0.0952495,1.21117,-0.16722,0.925486,-0.0594898,0.161465,0,0,3.53593,1
1777327345258,0.108723,1.22635,-0.17133,1.01388,-0.0708311,0.162453,0,0,3.43467,1
1777327345272,0.112936,1.23623,-0.181097,1.09731,-0.0823755,0.158085,0,0,3.52311,1
1777327345286,0.110614,1.2514,-0.194342,1.17606,-0.089577,0.142705,0,0,3.45285,1
1777327345299,0.1268,1.2595,-0.208995,1.2504,-0.098126,0.153579,0,0,3.49696,1
1777327345313,0.129082,1.26307,-0.226496,1.32056,-0.121225,0.166138,0,0,3.55681,1
1777327345327,0.110776,1.2744,-0.24166,1.38679,-0.125297,0.181179,0,0,4.01663,1
1777327345341,0.119722,1.29516,-0.256178,1.44931,-0.137699,0.223054,0,0,3.51639,1
1777327345354,0.14564,1.28467,-0.260131,1.50832,-0.161152,0.303283,0,0,3.43093,1
1777327345368,0.151097,1.26928,-0.258057,1.56402,-0.197205,0.380493,0,0,3.5358,1
1777327345382,0.153728,1.23806,-0.236611,1.61487,-0.236849,0.437513,0,0,3.45609,1
1777327345396,0.138668,1.14702,-0.257904,1.65571,-0.259415,0.463969,0,0,3.50033,1
1777327345409,0.106815,1.04518,-0.283014,1.62815,-0.25649,0.441887,0,0,3.42348,4
1777327345423,0.0881291,0.945554,-0.301622,1.5499,-0.228144,0.390656,0,0,3.4348,4
1777327345437,0.084651,0.866565,-0.310312,1.42751,-0.194023,0.32139,0,0,3.44535,4
1777327345451,0.0958841,0.813192,-0.311571,1.27693,-0.164188,0.249839,0,0,3.70568,4
1777327345464,0.111212,0.775356,-0.306474,1.11049,-0.146003,0.184323,0,0,3.39105,4
1777327345478,0.122311,0.740437,-0.297555,0.933362,-0.141381,0.126618,0,0,3.48904,4
1777327345491,0.126844,0.706655,-0.28652,0.749079,-0.147756,0.0764741,0,0,3.4645,4
1777327345505,0.12407,0.676056,-0.272325,0.566753,-0.161952,0.0353305,0,0,3.50972,4
1777327345519,0.119178,0.65658,-0.255077,0.394655,-0.181359,0.00394519,0,0,3.46661,4
1777327345532,0.113603,0.649249,-0.236743,0.232209,-0.205917,-0.0169532,0,0,3.52937,4
1777327345546,0.109134,0.647711,-0.219314,0.0788761,-0.235198,-0.0317552,0,0,3.49887,4
1777327345560,0.102163,0.647519,-0.203739,-0.0658564,-0.267714,-0.0424214,0,0,3.49148,4
1777327345573,0.0911467,0.641011,-0.191024,-0.20247,-0.300325,-0.0505753,0,0,3.86939,4
1777327345587,0.076311,0.632047,-0.179131,-0.331421,-0.329804,-0.055617,0,0,3.47576,4
1777327345601,0.0592126,0.627721,-0.167481,-0.453139,-0.353297,-0.0567235,0,0,3.41354,4
1777327345614,0.0441003,0.6394,-0.156635,-0.56803,-0.369147,-0.0557469,0,0,3.51183,4
1777327345628,0.030315,0.66401,-0.14904,-0.676476,-0.379814,-0.0512583,0,0,3.4137,4
1777327345641,0.0163991,0.697564,-0.147747,-0.778839,-0.385541,-0.0436131,0,0,3.50411,4
1777327345655,0.000456438,0.73392,-0.152921,-0.87546,-0.385085,-0.0325559,0,0,3.43335,4
1777327345669,-0.0208503,0.763635,-0.162132,-0.966661,-0.376604,-0.0210742,0,0,3.46246,4
1777327345682,-0.0447416,0.793011,-0.175757,-1.05275,-0.354023,-0.0126257,0,0,3.48428,4
1777327345696,-0.0669504,0.830984,-0.188521,-1.134,-0.315462,-0.00799535,0,0,3.539,4
1777327345710,-0.081121,0.874714,-0.197461,-1.2107,-0.261825,-0.0063608,0,0,3.50065,4
1777327345724,-0.0854858,0.917443,-0.204079,-1.2831,-0.199169,-0.000193515,0,0,3.41765,4
1777327345738,-0.0803894,0.953694,-0.209147,-1.35144,-0.134149,0.0175614,0,0,3.50909,4
1777327345751,-0.0686769,0.988816,-0.211644,-1.41594,-0.0721671,0.0461083,0,0,3.43254,4
1777327345765,-0.0572105,1.03176,-0.214987,-1.47682,-0.0168309,0.081318,0,0,3.51655,4
1777327345779,-0.0485511,1.08055,-0.221415,-1.53429,0.0312308,0.110678,0,0,3.42839,4
1777327345792,-0.0447322,1.13217,-0.233919,-1.58509,0.07279,0.123018,0,0,3.46313,4
1777327345806,-0.0404291,1.17227,-0.249378,-1.62298,0.108931,0.11718,0,0,3.48218,4
1777327345820,-0.0139632,1.21099,-0.266422,-1.64606,0.133689,0.100682,0,0,3.55678,4
1777327345834,0.0449529,1.2474,-0.296272,-1.64753,0.129345,0.0954624,0,0,3.5785,5
1777327345848,0.107631,1.286,-0.338635,-1.62269,0.0901646,0.109141,0,0,3.46159,5
1777327345861,0.127544,1.3177,-0.390098,-1.57437,0.0293058,0.14141,0,0,3.47415,5
1777327345875,0.093412,1.32938,-0.447042,-1.50705,-0.0246324,0.16939,0,0,3.47726,5
1777327345889,0.039735,1.3305,-0.504078,-1.42008,-0.0513483,0.157773,0,0,3.51233,5
1777327345903,-0.0296376,1.36589,-0.36014,-1.22485,-0.0734956,0.132348,0,0,3.51974,5
1777327345916,-0.0144314,1.38924,-0.353332,-1.08155,-0.12493,0.104286,0,0,3.5143,5
1777327345930,-0.00162556,1.38446,-0.302276,-0.915929,-0.136669,0.0681933,0,0,3.51768,5
1777327345944,-0.0229114,1.36167,-0.266244,-0.755797,-0.130253,0.0527215,0,0,3.92361,5
1777327345958,-0.0285556,1.33313,-0.235,-0.604185,-0.112499,0.0529414,0,0,3.51406,5
1777327345971,-0.0209831,1.31216,-0.214724,-0.468759,-0.100648,0.0462252,0,0,3.42339,5
1777327345985,-0.0213947,1.29269,-0.197093,-0.349802,-0.0974729,0.0469936,0,0,3.55187,5
1777327345999,-0.0204822,1.27448,-0.179929,-0.246376,-0.100325,0.0525231,0,0,3.44709,5
1777327346012,-0.0189087,1.25678,-0.167153,-0.156673,-0.101549,0.059164,0,0,3.53522,5
1777327346026,-0.0158487,1.23865,-0.157243,-0.081991,-0.0970985,0.0675434,0,0,3.4552,5
1777327346040,-0.0109199,1.21979,-0.150997,-0.0205373,-0.0903503,0.0729736,0,0,3.56568,5
1777327346053,-0.00481587,1.20335,-0.145047,0.0292523,-0.0830301,0.0752175,0,0,3.51117,5
1777327346067,0.00268492,1.189,-0.139417,0.0698863,-0.075932,0.0734604,0,0,3.94541,5
1777327346081,0.00877898,1.1754,-0.13613,0.101604,-0.0691508,0.0676057,0,0,3.37943,0
1777327346094,0.0170099,1.1624,-0.13215,0.124718,-0.0625102,0.0589365,0,0,3.53974,0
1777327346108,0.0197533,1.15055,-0.130161,0.142467,-0.0560451,0.0480303,0,0,3.5225,0
1777327346122,0.0220278,1.14115,-0.127338,0.155825,-0.0503708,0.0383011,0,0,3.511,0
1777327346135,0.0233257,1.13324,-0.124892,0.166704,-0.0462651,0.0306376,0,0,3.61717,0
1777327346149,0.0205383,1.12753,-0.120324,0.177362,-0.0406769,0.0274333,0,0,3.51672,0
1777327346163,0.0170445,1.12522,-0.118231,0.188716,-0.0331414,0.0273246,0,0,3.50218,0
1777327346177,0.0136645,1.12542,-0.112845,0.202712,-0.0242302,0.0295043,0,0,3.51406,0
1777327346190,0.0194029,1.12073,-0.11213,0.217727,-0.0127145,0.0273184,0,0,3.7062,0
1777327346204,0.0262162,1.10938,-0.115262,0.225031,-0.00622936,0.0245357,0,0,3.5303,0
1777327346218,0.0260056,1.10196,-0.118465,0.228491,-0.000668914,0.0224786,0,0,3.41311,0
1777327346231,0.0319419,1.0972,-0.117271,0.229564,0.00389882,0.0155357,0,0,3.52002,0
1777327346245,0.0337107,1.09084,-0.11806,0.228994,0.00756806,0.010027,0,0,3.5047,0
1777327346259,0.0320526,1.08727,-0.118929,0.225822,0.00960562,0.00692116,0,0,3.52885,0
1777327346272,0.0313913,1.08106,-0.121954,0.220305,0.0104713,0.00679413,0,0,3.438,0
1777327346286,0.0287404,1.07522,-0.123521,0.213095,0.0110957,0.00945744,0,0,3.50061,0
1777327346300,0.0299904,1.07098,-0.125467,0.204126,0.011,0.0139967,0,0,3.49905,0
1777327346313,0.030198,1.06652,-0.125591,0.194458,0.0114834,0.019189,0,0,3.48561,4
1777327346327,0.0323249,1.06262,-0.126489,0.184501,0.0122651,0.0240388,0,0,3.47481,4
1777327346341,0.0346474,1.05727,-0.128145,0.174211,0.0128531,0.0271778,0,0,3.53063,4
1777327346355,0.0353744,1.05203,-0.127873,0.164157,0.013224,0.0291388,0,0,3.58728,4
1777327346369,0.0375122,1.04721,-0.129697,0.154302,0.0132616,0.0303175,0,0,3.43194,4
1777327346383,0.0398313,1.04448,-0.130392,0.144757,0.0125648,0.0303596,0,0,3.50524,4
1777327346396,0.0428557,1.04171,-0.128953,0.135763,0.0113976,0.0292433,0,0,3.43456,4
1777327346410,0.0457105,1.03892,-0.128909,0.128165,0.0100817,0.0264768,0,0,3.5915,4
1777327346424,0.0478574,1.03715,-0.128266,0.121605,0.0086213,0.022521,0,0,3.47961,4
1777327346438,0.0483775,1.03545,-0.128233,0.115504,0.00716145,0.0185773,0,0,3.84641,4
1777327346451,0.0480604,1.03425,-0.12797,0.109903,0.00616028,0.01542,0,0,3.49422,4
1777327346465,0.0474735,1.0322,-0.127995,0.104706,0.00511251,0.0127096,0,0,3.41526,4
1777327346479,0.0469332,1.03106,-0.128621,0.099723,0.00429907,0.0108749,0,0,3.49917,4
1777327346492,0.046437,1.03018,-0.12902,0.0949472,0.00363402,0.0100807,0,0,3.4277,4
1777327346506,0.0465985,1.02853,-0.128959,0.0903707,0.00295917,0.00958808,0,0,3.48835,4
1777327346520,0.0460114,1.02372,-0.130175,0.0846507,0.00029686,0.00911021,0,0,3.47626,4
1777327346533,0.0472102,1.02346,-0.130392,0.0800994,-0.00140256,0.00884754,0,0,3.47741,4
1777327346547,0.0465889,1.02353,-0.13076,0.076283,-0.00267696,0.00898498,0,0,3.57443,4
1777327346561,0.046153,1.02348,-0.130793,0.0733486,-0.00367006,0.00952148,0,0,3.78893,4
1777327346575,0.0463167,1.02441,-0.130865,0.0707372,-0.00482583,0.0102291,0,0,3.59981,4
1777327346588,0.0467178,1.02378,-0.130673,0.0677714,-0.00586111,0.0110384,0,0,3.46624,4
1777327346602,0.0476715,1.02412,-0.130355,0.0653744,-0.00700102,0.0113056,0,0,3.52146,4
1777327346616,0.0484211,1.02424,-0.130698,0.0635229,-0.00785434,0.0114422,0,0,3.43113,4
1777327346629,0.0488685,1.02398,-0.131104,0.0616468,-0.00878397,0.0111215,0,0,3.51231,1
1777327346643,0.0484554,1.023,-0.131885,0.0600044,-0.00969142,0.0106732,0,0,3.43715,1
1777327346657,0.0488597,1.02319,-0.13217,0.0585954,-0.0106636,0.010066,0,0,3.50089,1
1777327346670,0.048721,1.02233,-0.132069,0.0574025,-0.0116669,0.00963835,0,0,3.49083,1
1777327346684,0.0487955,1.02254,-0.132193,0.0561822,-0.0128237,0.00934606,0,0,3.69522,1
1777327346698,0.0477292,1.02292,-0.132406,0.0551718,-0.0139456,0.0100678,0,0,3.50598,1
1777327346711,0.0484755,1.02235,-0.132771,0.0542266,-0.0149531,0.0111002,0,0,3.44409,1
1777327346725,0.0474135,1.0217,-0.133239,0.0533472,-0.0159385,0.0125457,0,0,3.51956,1
1777327346739,0.0480132,1.02141,-0.133352,0.0525257,-0.0168856,0.0142998,0,0,3.42872,1
1777327346752,0.0489764,1.02047,-0.134225,0.0523841,-0.0178353,0.0159555,0,0,3.52109,5
1777327346766,0.0484751,1.01902,-0.135954,0.052002,-0.0186847,0.0176853,0,0,3.43261,1
1777327346780,0.0487277,1.01945,-0.135983,0.0524121,-0.0190967,0.0190569,0,0,3.61235,1
1777327346793,0.0489799,1.01769,-0.136394,0.0529961,-0.0194857,0.0205014,0,0,3.46387,1
1777327346807,0.0487796,1.01868,-0.13696,0.0538386,-0.0195745,0.0228454,0,0,3.39835,1
1777327346820,0.0496314,1.01892,-0.136837,0.0549892,-0.0197953,0.0250023,0,0,3.48337,1
1777327346834,0.0503395,1.02019,-0.137227,0.0568931,-0.0201836,0.0275734,0,0,3.39928,1
1777327346848,0.0520213,1.02404,-0.137048,0.059645,-0.0209997,0.0314433,0,0,3.51667,1
1777327346861,0.0537731,1.02546,-0.137358,0.0638312,-0.0223695,0.03561,0,0,3.41768,1
1777327346875,0.0555499,1.02827,-0.136638,0.0686218,-0.024416,0.040866,0,0,3.48933,1
1777327346888,0.0555563,1.03171,-0.137149,0.0751133,-0.0261936,0.0467564,0,0,3.43037,1
1777327346902,0.0534123,1.03708,-0.137289,0.083052,-0.0272164,0.053117,0,0,3.59046,1
1777327346916,0.054196,1.04245,-0.138914,0.0925278,-0.0277023,0.0604954,0,0,3.46633,1
1777327346929,0.0560038,1.04711,-0.139544,0.104619,-0.0274415,0.0663723,0,0,3.41172,1
1777327346943,0.0573131,1.0499,-0.140481,0.117681,-0.0273067,0.0705879,0,0,3.50241,5
1777327346957,0.0570426,1.05204,-0.142804,0.13305,-0.026824,0.0742544,0,0,3.49333,5
1777327346971,0.0580745,1.0521,-0.145407,0.148135,-0.0258418,0.07727,0,0,3.50676,5
1777327346984,0.0575285,1.05226,-0.149069,0.163723,-0.0245122,0.0804847,0,0,3.4265,5
1777327346998,0.0580538,1.05038,-0.152074,0.178762,-0.0230045,0.0842427,0,0,3.54569,5
1777327347012,0.0594399,1.04742,-0.155759,0.193724,-0.02147,0.0881667,0,0,3.44561,5
1777327347026,0.0612823,1.04546,-0.160675,0.207705,-0.0198547,0.0918448,0,0,3.81244,5
1777327347039,0.064692,1.04103,-0.165453,0.220881,-0.0187067,0.0947387,0,0,3.48602,5
1777327347053,0.066993,1.03727,-0.17151,0.232439,-0.0174433,0.0973417,0,0,3.49143,5
1777327347066,0.070411,1.03513,-0.17657,0.244326,-0.0164906,0.0996446,0,0,3.51141,5
1777327347080,0.0735826,1.03111,-0.182264,0.255276,-0.0160109,0.101236,0,0,3.4283,5
1777327347094,0.0772884,1.02519,-0.188295,0.265377,-0.0160334,0.102057,0,0,3.5273,5
1777327347107,0.080622,1.02709,-0.193112,0.27593,-0.0168468,0.104892,0,0,3.44737,5
1777327347121,0.0836728,1.02383,-0.198741,0.285754,-0.0175075,0.106249,0,0,3.51431,5
1777327347135,0.0864017,1.02499,-0.205519,0.295921,-0.0188976,0.108369,0,0,3.50004,5
1777327347148,0.0884299,1.03021,-0.209863,0.307279,-0.0211475,0.112079,0,0,3.74533,5
1777327347162,0.0910016,1.03527,-0.215511,0.320834,-0.0235495,0.115739,0,0,3.51028,5
1777327347176,0.0939768,1.04097,-0.221471,0.336206,-0.0264633,0.11999,0,0,3.42689,5
1777327347189,0.0948542,1.04755,-0.227358,0.353743,-0.0292437,0.125073,0,0,3.511,5
1777327347203,0.0967369,1.05545,-0.232586,0.372844,-0.0326987,0.131781,0,0,3.48872,5
1777327347217,0.0990891,1.06334,-0.238492,0.394437,-0.0364438,0.14069,0,0,3.50337,5
1777327347230,0.101994,1.06331,-0.245711,0.415456,-0.0403643,0.150367,0,0,3.50396,5
1777327347244,0.105544,1.06019,-0.253922,0.436512,-0.0446086,0.161098,0,0,3.47383,5
1777327347257,0.110511,1.0595,-0.261248,0.456931,-0.0493941,0.172409,0,0,3.51568,5
1777327347271,0.119239,1.06107,-0.271422,0.476607,-0.05678,0.188502,0,0,3.38544,5
1777327347285,0.128751,1.057,-0.281203,0.494186,-0.0666034,0.206309,0,0,3.50972,5
1777327347298,0.142646,1.04565,-0.286259,0.505534,-0.081318,0.232965,0,0,3.43167,5
1777327347312,0.161993,1.04112,-0.288813,0.509364,-0.104726,0.272744,0,0,3.51094,5
1777327347325,0.164656,1.02969,-0.285773,0.508616,-0.131432,0.313311,0,0,3.42311,5
1777327347340,0.159651,0.994667,-0.270154,0.496015,-0.155146,0.32511,0,0,4.79004,5
1777327347354,0.157941,0.958416,-0.253193,0.469198,-0.178099,0.306899,0,0,3.6858,5
1777327347370,0.159147,0.928621,-0.233814,0.430304,-0.202887,0.278295,0,0,5.39928,5
1777327347383,0.153999,0.9031,-0.20784,0.376443,-0.224301,0.252982,0,0,3.42446,5
1777327347397,0.14658,0.873601,-0.18702,0.314589,-0.244322,0.214869,0,0,3.54648,5
1777327347410,0.135208,0.849221,-0.165971,0.242495,-0.259314,0.164143,0,0,3.48602,4
1777327347424,0.12457,0.836219,-0.147377,0.165247,-0.269424,0.110216,0,0,3.37718,4
1777327347437,0.115734,0.829206,-0.132975,0.0848908,-0.275005,0.0620583,0,0,3.48615,5
1777327347451,0.108886,0.824338,-0.123763,0.0019936,-0.275581,0.0186061,0,0,3.44443,5
1777327347465,0.103408,0.824701,-0.119505,-0.0814262,-0.270986,-0.0201694,0,0,3.50543,5
1777327347478,0.0991418,0.833918,-0.120087,-0.162449,-0.262029,-0.0500216,0,0,3.42044,5
1777327347492,0.097333,0.848972,-0.126238,-0.237381,-0.250037,-0.0687278,0,0,3.42844,5
1777327347505,0.0937632,0.867043,-0.138384,-0.304843,-0.234783,-0.0768962,0,0,3.49907,5
1777327347519,0.0898184,0.887292,-0.153381,-0.365044,-0.216685,-0.0784833,0,0,3.38798,5
1777327347532,0.0875055,0.909226,-0.171824,-0.418405,-0.197114,-0.0780717,0,0,3.46596,5
1777327347546,0.0860207,0.93249,-0.193232,-0.463569,-0.177956,-0.0766341,0,0,3.39356,5
1777327347559,0.0869336,0.95775,-0.21541,-0.498163,-0.161355,-0.0765531,0,0,3.50448,5
1777327347573,0.0886717,0.978128,-0.237303,-0.523465,-0.148395,-0.0765495,0,0,3.40041,5
1777327347587,0.0905999,0.999636,-0.257366,-0.538853,-0.138611,-0.0765761,0,0,3.51131,5
1777327347600,0.0920091,1.01536,-0.275467,-0.545798,-0.130806,-0.0763057,0,0,3.44044,5
1777327347614,0.0934762,1.02687,-0.290253,-0.546839,-0.123807,-0.0755409,0,0,3.48409,5
1777327347627,0.0921221,1.03136,-0.301498,-0.546421,-0.116383,-0.0705072,0,0,3.45378,5
1777327347641,0.0893649,1.03441,-0.309962,-0.54508,-0.106639,-0.0652463,0,0,3.36663,5
1777327347654,0.0837771,1.03779,-0.316102,-0.54107,-0.0937804,-0.0595526,0,0,3.47361,5
1777327347668,0.0763389,1.03894,-0.320337,-0.535289,-0.0768733,-0.0514936,0,0,3.46746,5
1777327347681,0.0673323,1.03843,-0.324184,-0.527392,-0.055862,-0.0436639,0,0,3.47346,5
1777327347695,0.0917249,1.18,-0.342906,-0.517523,-0.0414031,-0.0595839,0,0,3.44119,5
1777327347709,0.096344,1.24073,-0.389309,-0.484846,-0.0257512,-0.0608661,0,0,3.45213,5
1777327347722,0.0920902,1.23874,-0.425235,-0.444552,-0.00765891,-0.0626844,0,0,3.46715,5
1777327347736,0.104577,1.20849,-0.450327,-0.40525,-0.00179133,-0.0627351,0,0,3.3915,5
1777327347749,0.10082,1.18221,-0.441568,-0.38609,-0.000230738,-0.0610359,0,0,3.48281,5
1777327347763,0.100683,1.17822,-0.417772,-0.368432,0.000475867,-0.0592394,0,0,3.4825,5
1777327347776,0.0969119,1.17138,-0.397009,-0.352699,-0.000128877,-0.0577791,0,0,3.48372,5
1777327347790,0.0949543,1.16289,-0.378108,-0.337762,-0.00210415,-0.0558612,0,0,3.41089,5
1777327347804,0.0909427,1.15978,-0.360296,-0.321527,-0.00495774,-0.052244,0,0,3.52306,5
1777327347817,0.0897308,1.15268,-0.344167,-0.306116,-0.00944536,-0.0496646,0,0,3.4367,5
1777327347831,0.0887374,1.1457,-0.32949,-0.290906,-0.0133558,-0.0493751,0,0,3.5082,5
1777327347844,0.0872246,1.13966,-0.314624,-0.27509,-0.0160664,-0.0501167,0,0,3.49269,5
1777327347858,0.083811,1.13288,-0.301673,-0.25992,-0.0186592,-0.0501872,0,0,3.40363,5
1777327347871,0.0799589,1.12512,-0.289503,-0.246026,-0.0206441,-0.0495772,0,0,3.5188,5
1777327347885,0.0758024,1.11811,-0.278578,-0.232795,-0.0220681,-0.0479011,0,0,3.43989,5
1777327347899,0.0724269,1.11155,-0.267389,-0.220598,-0.0230782,-0.0451756,0,0,3.51217,5
1777327347912,0.0695831,1.10528,-0.256772,-0.209055,-0.0234237,-0.0419308,0,0,3.43113,5
1777327347926,0.0678712,1.09965,-0.246587,-0.198305,-0.0235185,-0.0386283,0,0,3.43659,5
1777327347939,0.0665154,1.09449,-0.237412,-0.188059,-0.0235481,-0.0354895,0,0,3.477,5
1777327347953,0.0645373,1.0898,-0.228203,-0.17838,-0.0236231,-0.0323599,0,0,3.39,5
1777327347966,0.063574,1.08512,-0.219689,-0.169127,-0.0235398,-0.0297312,0,0,3.50918,1
1777327347980,0.0627194,1.08089,-0.211995,-0.160356,-0.0234611,-0.0276481,0,0,3.40007,1
1777327347993,0.0617622,1.07663,-0.204568,-0.152102,-0.0233526,-0.0260116,0,0,3.50335,1
1777327348007,0.061023,1.07254,-0.197517,-0.144075,-0.0231089,-0.0250322,0,0,3.4113,1
1777327348021,0.0603527,1.06911,-0.190833,-0.136375,-0.0229217,-0.0245786,0,0,3.51472,1
1777327348034,0.0595008,1.06619,-0.183566,-0.128952,-0.0225565,-0.0245444,0,0,3.42378,1
1777327348048,0.0579435,1.06303,-0.177693,-0.121625,-0.022122,-0.024555,0,0,3.50572,1
1777327348061,0.056501,1.06025,-0.172149,-0.11479,-0.021442,-0.0243209,0,0,3.54241,1
1777327348075,0.0549477,1.05724,-0.166957,-0.10806,-0.0207745,-0.0237959,0,0,3.46067,1
1777327348089,0.0537691,1.05468,-0.161632,-0.101878,-0.020046,-0.0230564,0,0,3.50139,1
1777327348102,0.0521362,1.05218,-0.156715,-0.0960397,-0.0194568,-0.0220628,0,0,3.43422,1
1777327348116,0.05117,1.04973,-0.152293,-0.0905798,-0.0189006,-0.0208381,0,0,3.43213,1
1777327348129,0.0503129,1.04772,-0.148461,-0.0854647,-0.0184099,-0.019575,0,0,3.33991,1
1777327348143,0.0500926,1.04576,-0.144626,-0.0806579,-0.0180238,-0.0184513,0,0,3.51183,1
1777327348156,0.0497204,1.04414,-0.14095,-0.0760094,-0.0178007,-0.017472,0,0,3.40033,1
1777327348170,0.0488076,1.04245,-0.137755,-0.0715575,-0.0175601,-0.0165262,0,0,3.53576,1
1777327348183,0.0478776,1.04052,-0.134588,-0.0673124,-0.0174358,-0.0155007,0,0,3.43122,1
1777327348197,0.0473009,1.03872,-0.131339,-0.0633526,-0.0171728,-0.0142802,0,0,3.38159,1
1777327348210,0.0460171,1.03694,-0.128751,-0.0597433,-0.0171302,-0.0130081,0,0,3.50198,1
1777327348224,0.0452847,1.03547,-0.125952,-0.0564093,-0.0170685,-0.0116362,0,0,3.43622,1
1777327348238,0.0444427,1.03429,-0.123105,-0.0532024,-0.0170445,-0.0104525,0,0,3.51891,1
1777327348251,0.0439902,1.03271,-0.120856,-0.0501967,-0.0168035,-0.00928391,0,0,3.56496,1
1777327348265,0.0438508,1.03133,-0.11887,-0.0472997,-0.0163919,-0.00837778,0,0,3.62552,1
1777327348279,0.0430618,1.02999,-0.116516,-0.0446123,-0.0158964,-0.00760812,0,0,3.52822,1
1777327348292,0.0426458,1.02867,-0.114267,-0.041853,-0.0153216,-0.00710857,0,0,3.47546,1
1777327348306,0.042253,1.02735,-0.111952,-0.0393255,-0.0148732,-0.00661992,0,0,3.49854,1
1777327348319,0.0420056,1.02607,-0.110041,-0.0371368,-0.0144671,-0.00600024,0,0,3.42504,1
1777327348333,0.0413475,1.02499,-0.108867,-0.0349894,-0.014041,-0.00533825,0,0,3.51011,1
1777327348347,0.040877,1.02385,-0.107225,-0.033061,-0.0137843,-0.00455925,0,0,3.40885,1
1777327348360,0.040652,1.02319,-0.105839,-0.0311423,-0.0135849,-0.00391386,0,0,3.48846,1
1777327348374,0.0403574,1.02247,-0.104161,-0.0293741,-0.013341,-0.00326185,0,0,3.44183,1
1777327348387,0.0403532,1.02175,-0.102714,-0.0276579,-0.0130765,-0.00257791,0,0,3.51448,1
1777327348401,0.0403082,1.02099,-0.101883,-0.0259952,-0.0128269,-0.00206507,0,0,3.46954,1
1777327348414,0.0396084,1.01997,-0.100756,-0.0244343,-0.0123986,-0.00160668,0,0,3.39233,1
1777327348428,0.0392628,1.01909,-0.0995273,-0.023038,-0.0120713,-0.00118686,0,0,3.50711,1
1777327348442,0.0392653,1.01842,-0.0984226,-0.0215831,-0.0118353,-0.000803426,0,0,3.40404,1
1777327348455,0.0390211,1.01769,-0.0976675,-0.0202911,-0.0114711,-0.000510012,0,0,3.49224,1
1777327348469,0.0388728,1.01683,-0.0968179,-0.0191229,-0.0110332,-0.00012601,0,0,3.72672,1
1777327348483,0.0387602,1.01611,-0.0960158,-0.0180331,-0.0105856,3.52058e-05,0,0,3.43296,1
1777327348496,0.0387634,1.01578,-0.0947795,-0.0169916,-0.0102359,9.74589e-05,0,0,3.4617,1
1777327348510,0.0384789,1.01559,-0.0943657,-0.0159058,-0.00989296,0.000121965,0,0,3.42957,1
1777327348523,0.0381419,1.01488,-0.0935917,-0.0150008,-0.00947078,0.000200761,0,0,3.47546,1
1777327348537,0.0376732,1.01435,-0.0932308,-0.0141379,-0.00907656,0.000133836,0,0,3.39465,1
1777327348550,0.0376826,1.01398,-0.0926984,-0.0133449,-0.0087173,0.000203402,0,0,3.44937,1
1777327348564,0.037404,1.01357,-0.0915934,-0.0125706,-0.00832681,0.000204838,0,0,3.48422,1
1777327348578,0.0371546,1.0133,-0.0909475,-0.011767,-0.00804814,0.000137684,0,0,3.49713,1
1777327348591,0.0370151,1.01261,-0.0904747,-0.0111455,-0.00784933,0.000125679,0,0,3.47626,1
1777327348605,0.0370889,1.01198,-0.0897409,-0.0105375,-0.00768736,-9.97453e-05,0,0,3.45954,1
1777327348619,0.0373092,1.01145,-0.0896371,-0.0098308,-0.00727329,-0.000440981,0,0,3.46669,1
1777327348632,0.0368323,1.01142,-0.0890462,-0.0092023,-0.00698948,-0.000844432,0,0,3.39994,1
1777327348646,0.0367657,1.01122,-0.0885294,-0.00871609,-0.00665309,-0.00116531,0,0,3.4953,1
1777327348659,0.0366617,1.01099,-0.0878637,-0.00810301,-0.00635698,-0.00155382,0,0,3.41654,1
1777327348673,0.0365499,1.01073,-0.0873859,-0.00735305,-0.00622734,-0.00201902,0,0,3.50807,5
1777327348687,0.0363896,1.01043,-0.0872498,-0.00671366,-0.00613494,-0.00270648,0,0,3.42343,5
1777327348701,0.0357452,1.01002,-0.0868613,-0.00600309,-0.00611624,-0.00352665,0,0,3.52485,5
1777327348714,0.0358491,1.00972,-0.0863164,-0.00528099,-0.00619279,-0.00462623,0,0,3.4442,5
1777327348728,0.035372,1.00952,-0.0859254,-0.00463794,-0.00632927,-0.00585254,0,0,3.53972,5
1777327348741,0.0347985,1.00938,-0.0851181,-0.00388965,-0.00651376,-0.00727983,0,0,3.488,5
1777327348755,0.0340243,1.00866,-0.0847807,-0.00335889,-0.00657229,-0.00863989,0,0,3.38667,5
1777327348769,0.0334304,1.00831,-0.084243,-0.00285363,-0.00648624,-0.0097995,0,0,3.49437,5
1777327348782,0.0329658,1.00849,-0.0840778,-0.00208982,-0.00646924,-0.0111081,0,0,3.46922,5
1777327348796,0.0317603,1.00782,-0.0840041,-0.00150159,-0.00626908,-0.0114827,0,0,3.52809,5
1777327348809,0.0316084,1.0077,-0.0838798,-0.000937794,-0.00652117,-0.0114424,0,0,3.42189,5
1777327348823,0.0302052,1.00807,-0.0835844,-0.000367086,-0.00682764,-0.0104709,0,0,3.4423,5
1777327348837,0.0291408,1.00779,-0.0838533,-0.000256576,-0.00754082,-0.00822644,0,0,3.47483,5
1777327348850,0.0283416,1.00761,-0.0844906,-0.000340667,-0.00867215,-0.00546992,0,0,3.38483,5
1777327348864,0.0279159,1.00843,-0.0842431,-0.000330122,-0.0099113,-0.00202449,0,0,3.48539,5
1777327348877,0.0298284,1.00948,-0.0836808,0.000531923,-0.0113164,0.000140082,0,0,3.45496,5
1777327348891,0.0309626,1.00993,-0.0830131,0.00163678,-0.0127712,0.00106995,0,0,3.48093,5
1777327348904,0.0324029,1.01004,-0.0823007,0.00320205,-0.0141444,0.000560341,0,0,3.4262,5
1777327348918,0.0337899,1.00943,-0.0818884,0.00488077,-0.0155048,-0.00177901,0,0,3.50282,5
1777327348932,0.0346334,1.01017,-0.0813761,0.00713758,-0.016472,-0.00570418,0,0,3.42578,5
1777327348945,0.03658,1.01009,-0.0814128,0.0099272,-0.0172951,-0.0116828,0,0,3.51272,5
1777327348959,0.0368014,1.00976,-0.0820911,0.0128558,-0.0181447,-0.0186578,0,0,3.46761,5
1777327348972,0.0358053,1.00923,-0.0825397,0.0154617,-0.0187112,-0.0255627,0,0,3.38081,5
1777327348986,0.0337284,1.00943,-0.0831,0.017626,-0.0192802,-0.0316948,0,0,3.48087,5
1777327349000,0.0313298,1.00964,-0.0841767,0.0193006,-0.0201684,-0.0363098,0,0,3.41293,5
1777327349013,0.0289288,1.01009,-0.0852478,0.0203846,-0.0211309,-0.0394499,0,0,3.50376,5
1777327349027,0.0258819,1.00998,-0.0860808,0.020864,-0.022138,-0.0406754,0,0,3.41596,5
1777327349040,0.023718,1.00979,-0.0874422,0.0209825,-0.0232983,-0.0407146,0,0,3.43728,5
1777327349054,0.0211688,1.00943,-0.0884807,0.0204265,-0.0245649,-0.039437,0,0,3.49074,5
1777327349067,0.0188037,1.00898,-0.0893104,0.0193235,-0.0256447,-0.0371864,0,0,3.40026,5
1777327349081,0.0172559,1.00864,-0.0894498,0.0180255,-0.0266641,-0.0344882,0,0,3.47463,5
1777327349095,0.0159182,1.00831,-0.0900608,0.0165905,-0.0275962,-0.0317144,0,0,3.4177,5
1777327349108,0.0147789,1.00675,-0.0908703,0.0147521,-0.0282363,-0.0289078,0,0,3.47337,5
1777327349122,0.0151139,1.00633,-0.0912372,0.0128713,-0.0286735,-0.0266954,0,0,3.42189,5
1777327349135,0.0138827,1.00596,-0.0912002,0.0108391,-0.0288978,-0.0238963,0,0,3.50935,5
1777327349149,0.0133505,1.00584,-0.0919457,0.00897224,-0.0288055,-0.0213228,0,0,3.42922,5
1777327349163,0.0122182,1.00627,-0.0919374,0.0070431,-0.0284272,-0.0185124,0,0,3.51815,5
1777327349177,0.0115876,1.00596,-0.0919432,0.00529069,-0.0279801,-0.0158469,0,0,3.9872,5
1777327349190,0.010116,1.00551,-0.0923732,0.00307136,-0.027434,-0.012329,0,0,3.39215,5
1777327349204,0.00964438,1.00607,-0.0923957,0.00102362,-0.02694,-0.0089484,0,0,3.48694,5
1777327349217,0.00880213,1.00662,-0.092184,-0.000845021,-0.0261482,-0.00527361,0,0,3.39948,5
1777327349231,0.00844534,1.00718,-0.0919432,-0.00233909,-0.0250198,-0.00168504,0,0,3.48811,5
1777327349245,0.00824551,1.00754,-0.0920309,-0.00360806,-0.0237105,0.00181356,0,0,3.41248,5
1777327349258,0.00835817,1.00797,-0.0918123,-0.00463457,-0.021931,0.00485472,0,0,3.4495,3
1777327349272,0.00866992,1.00777,-0.0917156,-0.0053423,-0.0198658,0.00725429,0,0,3.48883,3
1777327349285,0.0094298,1.00699,-0.0915147,-0.00608313,-0.0175226,0.00905254,0,0,3.47361,3
1777327349299,0.00958558,1.00613,-0.0922153,-0.00699222,-0.0150282,0.0107371,0,0,3.49137,3
1777327349313,0.00986957,1.00602,-0.0919727,-0.00781178,-0.0122798,0.0118475,0,0,3.42141,3
1777327349326,0.010165,1.00594,-0.0912644,-0.00848688,-0.00946722,0.0124718,0,0,3.50365,3
1777327349340,0.0108547,1.0059,-0.0911437,-0.00873875,-0.00662398,0.0119564,0,0,3.42907,3
1777327349353,0.0112866,1.00576,-0.0912625,-0.00880949,-0.0036833,0.0105921,0,0,3.52522,3
1777327349367,0.012379,1.00616,-0.0912651,-0.00862364,-0.000595005,0.0086577,0,0,3.44785,3
1777327349381,0.0129582,1.00646,-0.0907334,-0.00810567,0.00262408,0.00608252,0,0,3.94437,3
1777327349395,0.0127518,1.00671,-0.0904644,-0.00735127,0.00611647,0.00338203,0,0,3.49154,3
1777327349408,0.0127486,1.00669,-0.0899914,-0.00644651,0.0095928,0.000674584,0,0,3.40787,3
1777327349422,0.0119924,1.00782,-0.0896681,-0.00514718,0.0133023,-0.00176966,0,0,3.51774,3
1777327349435,0.0123194,1.00837,-0.0880894,-0.00339834,0.0160288,-0.00383702,0,0,3.43541,3
1777327349449,0.011916,1.00902,-0.0872292,-0.00156349,0.0177245,-0.00594256,0,0,3.52894,3
1777327349463,0.0119871,1.00909,-0.0874032,0.000284058,0.0192566,-0.00819119,0,0,3.429,3
1777327349476,0.0112599,1.00835,-0.0880742,0.00195518,0.0206214,-0.0105749,0,0,3.46102,3
1777327349490,0.0111076,1.00794,-0.0886665,0.00336129,0.0218197,-0.0124352,0,0,3.4807,3
1777327349503,0.010197,1.00831,-0.0897596,0.00433313,0.0228352,-0.0136688,0,0,3.429,3
1777327349517,0.00888553,1.00874,-0.0895041,0.00495929,0.023905,-0.0137199,0,0,3.49198,3
1777327349531,0.00748329,1.0087,-0.0891671,0.00522063,0.0248721,-0.0128091,0,0,3.41746,3
1777327349544,0.00658423,1.00862,-0.0897529,0.0052318,0.026106,-0.011307,0,0,3.5225,3
1777327349558,0.00562604,1.00821,-0.0900045,0.00492978,0.0273949,-0.00945242,0,0,3.42483,3
1777327349571,0.00536524,1.00788,-0.0902967,0.00460187,0.02868,-0.00745353,0,0,3.52063,3
1777327349585,0.0052971,1.00922,-0.0897372,0.00437371,0.0300258,-0.00569522,0,0,3.47891,3
1777327349599,0.00535602,1.00943,-0.0895926,0.0040299,0.0313945,-0.00412546,0,0,3.53561,1
1777327349612,0.00535687,1.00961,-0.0892369,0.00346987,0.032755,-0.00266087,0,0,3.45098,1
1777327349626,0.00528919,1.01001,-0.0889697,0.0032367,0.034386,-0.00165096,0,0,3.38306,1
1777327349639,0.0064989,1.00994,-0.0892789,0.00308083,0.0356772,-0.00157548,0,0,3.48359,1
1777327349653,0.0075175,1.0095,-0.0896666,0.00316493,0.0365662,-0.0020566,0,0,3.40863,1
1777327349667,0.00808182,1.01034,-0.0890877,0.00368107,0.0368873,-0.00304596,0,0,3.4918,1
1777327349680,0.00862819,1.0111,-0.0888288,0.00438662,0.0371518,-0.0046007,0,0,3.41256,1
1777327349694,0.00930824,1.01257,-0.0886803,0.00533521,0.0367121,-0.00641934,0,0,3.47443,1
1777327349707,0.0093202,1.0141,-0.0885676,0.00634191,0.0359545,-0.00842713,0,0,3.48526,1
1777327349721,0.0090713,1.01514,-0.0883927,0.00742488,0.034884,-0.0101553,0,0,3.39761,1
1777327349734,0.00934305,1.01434,-0.0896107,0.00800608,0.0335781,-0.0107289,0,0,3.48819,1
1777327349748,0.00794253,1.01427,-0.0898429,0.00829776,0.0321956,-0.00988734,0,0,3.39346,1
1777327349762,0.00567565,1.01275,-0.0912671,0.00745123,0.0308136,-0.00726031,0,0,3.50493,1
1777327349775,0.0038646,1.01158,-0.0915297,0.00578297,0.029325,-0.0027596,0,0,3.42207,1
1777327349789,0.00175799,1.01015,-0.0923252,0.00364736,0.0278813,0.00283744,0,0,3.5913,1
1777327349803,0.0013718,1.0095,-0.0926243,0.00101496,0.0266771,0.0093794,0,0,3.44939,1
1777327349816,0.000377325,1.00894,-0.0927833,-0.00191939,0.0256474,0.0165264,0,0,3.45167,1
1777327349830,-0.000314867,1.00908,-0.0930429,-0.00491179,0.0249324,0.0240047,0,0,3.50618,1
1777327349843,-0.000338289,1.00882,-0.0948629,-0.0080318,0.0250411,0.0317101,0,0,3.40693,1
1777327349857,-0.000812313,1.00902,-0.0953345,-0.0112423,0.0258245,0.0398867,0,0,3.50622,1
1777327349870,-0.00141039,1.00899,-0.0965329,-0.014247,0.0281825,0.0487308,0,0,3.39817,1
1777327349884,-0.0047138,1.00848,-0.0974039,-0.0177853,0.0325449,0.0580765,0,0,3.59994,1
1777327349898,-0.00722936,1.00901,-0.0984314,-0.0208897,0.0400753,0.0673262,0,0,3.46761,1
1777327349911,-0.0150679,1.01174,-0.0983195,-0.0229636,0.0519532,0.0771104,0,0,3.53556,1
1777327349925,-0.0216314,1.01307,-0.0995559,-0.0235853,0.0692794,0.085742,0,0,3.44363,1
1777327349939,-0.0443285,1.01038,-0.10101,-0.0249813,0.101036,0.094506,0,0,3.55111,1
1777327349952,-0.0868419,1.00925,-0.110052,-0.0291079,0.163116,0.104855,0,0,3.50652,1
1777327349966,-0.130983,1.01236,-0.119874,-0.0341035,0.260294,0.114555,0,0,3.4102,1
1777327349979,-0.176592,1.01728,-0.119641,-0.0357359,0.385997,0.124992,0,0,3.4972,1
1777327349993,-0.213289,1.02153,-0.112465,-0.0330078,0.504649,0.134401,0,0,3.48076,1
1777327350007,-0.251926,1.01931,-0.092284,-0.02863,0.616646,0.136587,0,0,3.5198,1
1777327350020,-0.270593,1.0162,-0.0565827,-0.0241081,0.722361,0.141779,0,0,3.44533,1
1777327350034,-0.256415,1.01474,-0.0193918,-0.0194117,0.822146,0.154225,0,0,3.47098,1
1777327350048,-0.234678,1.00839,0.0155211,-0.0137584,0.916333,0.161169,0,0,3.51246,3
1777327350061,-0.231812,0.997693,0.0469557,-0.00858918,1.00524,0.135566,0,0,3.40861,3
1777327350075,-0.217782,1.02235,0.0702728,0.00234463,1.08916,0.0919517,0,0,3.52004,3
1777327350089,-0.188489,1.02267,0.0925011,0.0147675,1.16837,0.070373,0,0,3.73557,3
1777327350102,-0.155156,1.02766,0.109826,0.0289514,1.24313,0.0700737,0,0,3.51326,3
1777327350116,-0.131294,1.03458,0.122838,0.0487196,1.31371,0.0748824,0,0,3.42524,3
1777327350130,-0.115986,1.03671,0.133887,0.0710186,1.38032,0.0750367,0,0,3.54193,3
1777327350143,-0.10329,1.03781,0.14492,0.0930901,1.4432,0.0708663,0,0,3.45083,3
1777327350157,-0.0912657,1.03387,0.156401,0.111282,1.50255,0.0651442,0,0,3.55054,3
1777327350170,-0.0760673,1.03212,0.167704,0.126667,1.55857,0.065331,0,0,3.54311,3
1777327350184,-0.0607764,1.02723,0.178661,0.140115,1.61145,0.0597267,0,0,3.40111,3
1777327350198,-0.0486851,1.02249,0.188935,0.149627,1.66137,0.0499665,0,0,3.5253,0
1777327350211,-0.0408188,1.02164,0.199125,0.158627,1.70052,0.0379706,0,0,3.46567,0
1777327350225,-0.0356259,1.01605,0.208278,0.164917,1.73091,0.0239415,0,0,3.56941,0
1777327350239,-0.0324773,1.01168,0.216877,0.167677,1.75568,0.00893939,0,0,3.44618,0
1777327350252,-0.030409,1.00771,0.22461,0.167816,1.77775,-0.00552091,0,0,3.47317,0
1777327350266,-0.0312779,1.00286,0.230909,0.164016,1.7996,-0.0165282,0,0,3.52048,0
1777327350279,-0.0341795,0.998479,0.23591,0.156816,1.82433,-0.0234497,0,0,3.42548,0
1777327350293,-0.0385755,0.996318,0.240097,0.147112,1.85384,-0.0261122,0,0,3.52104,0
1777327350307,-0.0430535,0.994128,0.244541,0.135901,1.88839,-0.0252684,0,0,3.43146,0
1777327350320,-0.0455411,0.993033,0.249216,0.123491,1.92277,-0.0220313,0,0,3.45772,0
1777327350334,-0.0463691,0.992466,0.252684,0.111002,1.95522,-0.0167834,0,0,3.49943,0
1777327350347,-0.0458908,0.992423,0.254875,0.0987213,1.98585,-0.010177,0,0,3.49943,0
1777327350361,-0.0416596,0.992615,0.256656,0.0860116,2.01476,-0.00353879,0,0,3.51681,0
1777327350375,-0.0324072,0.990783,0.257433,0.0724306,2.04205,0.00336083,0,0,3.55872,0
1777327350388,-0.0189902,0.992519,0.256468,0.0593117,2.06781,0.0103487,0,0,3.49689,0
1777327350402,-0.00198466,0.996253,0.254941,0.0489839,2.09213,0.0155744,0,0,3.49035,0
1777327350416,0.0137657,0.998421,0.250747,0.0412779,2.11508,0.0206569,0,0,3.49854,0
1777327350429,0.0293447,0.998962,0.245365,0.0346978,2.13409,0.023095,0,0,3.41774,0
1777327350443,0.0446113,1.00014,0.238627,0.0289792,2.14596,0.0212985,0,0,3.52094,0
1777327350456,0.0611853,0.998642,0.230829,0.0236755,2.15011,0.016186,0,0,3.41617,0
1777327350470,0.0800889,0.994692,0.222181,0.0168282,2.14661,0.0105723,0,0,3.48065,0
1777327350484,0.101123,0.991744,0.212635,0.00918742,2.13529,0.00460979,0,0,3.49119,0
1777327350497,0.120621,0.985333,0.201681,-0.000508239,2.11692,-0.000649999,0,0,3.51322,0
1777327350511,0.139984,0.983156,0.189313,-0.0108376,2.09332,-0.00501958,0,0,3.49959,0
1777327350525,0.157617,0.98243,0.174928,-0.0193415,2.06528,-0.00803933,0,0,3.41993,0
1777327350538,0.172344,0.98232,0.157872,-0.0258697,2.03461,-0.008175,0,0,3.4862,0
1777327350552,0.186273,0.98438,0.139444,-0.0295226,2.00241,-0.00662457,0,0,3.41467,0
1777327350565,0.199926,0.987721,0.119982,-0.0288429,1.96882,-0.00301589,0,0,3.54568,0
1777327350579,0.214868,0.98904,0.100434,-0.0243262,1.93262,0.00400426,0,0,3.44648,0
1777327350593,0.23178,0.990559,0.0815578,-0.0159137,1.89183,0.0128957,0,0,3.59141,0
1777327350606,0.375785,1.15936,0.0478824,0.0378599,1.795,0.00956045,0,0,3.52235,0
1777327350620,0.40413,1.21559,0.0406363,0.0327133,1.67701,-0.0173864,0,0,3.42283,5
1777327350633,0.378106,1.19977,0.034002,0.0305229,1.59076,-0.0341209,0,0,3.52731,5
1777327350647,0.365086,1.20114,0.033834,0.0310203,1.50659,-0.0522504,0,0,3.45639,5
1777327350661,0.344594,1.1926,0.0269788,0.0298669,1.42097,-0.0643489,0,0,3.54217,5
1777327350674,0.3238,1.18079,0.0190702,0.0280417,1.3405,-0.071868,0,0,3.45435,5
1777327350688,0.308075,1.17083,0.0132896,0.0253641,1.26283,-0.0779034,0,0,3.49793,5
1777327350702,0.289219,1.16285,0.00970939,0.0228666,1.18698,-0.0814336,0,0,3.50557,5
1777327350715,0.272325,1.15618,0.00431694,0.0214897,1.11679,-0.0828304,0,0,3.59493,5
1777327350729,0.254996,1.14624,-0.00197815,0.0197405,1.05173,-0.0821364,0,0,3.51341,5
1777327350743,0.239446,1.13997,-0.00692044,0.0179224,0.991268,-0.0790022,0,0,3.41533,5
1777327350756,0.224947,1.13415,-0.0118731,0.0167801,0.935207,-0.0744038,0,0,3.52226,5
1777327350770,0.212137,1.12813,-0.0163425,0.0158603,0.88343,-0.0689714,0,0,3.43204,5
1777327350783,0.201854,1.12134,-0.0201778,0.0151847,0.835606,-0.0641221,0,0,3.43507,5
1777327350797,0.193243,1.11501,-0.0232912,0.0148982,0.787921,-0.0605296,0,0,3.79567,5
1777327350811,0.1848,1.10941,-0.0268052,0.014829,0.742839,-0.0580721,0,0,3.47922,5
1777327350825,0.176283,1.10424,-0.0303412,0.014785,0.700161,-0.056506,0,0,3.51311,5
1777327350838,0.168271,1.09874,-0.0339664,0.0142083,0.659478,-0.0555202,0,0,3.472,1
1777327350852,0.159859,1.0929,-0.0372651,0.0128376,0.620739,-0.0541273,0,0,3.50624,1
1777327350865,0.152056,1.08815,-0.039913,0.011441,0.583801,-0.0527439,0,0,3.46252,1
1777327350879,0.144075,1.08341,-0.0427822,0.010037,0.548742,-0.0509757,0,0,3.50854,1
1777327350893,0.136363,1.07997,-0.044258,0.00949117,0.515842,-0.0488315,0,0,3.43274,1
1777327350906,0.128755,1.07715,-0.0456784,0.0100635,0.485186,-0.0462037,0,0,3.54107,1
1777327350920,0.121697,1.07384,-0.0479777,0.0108863,0.456417,-0.0434108,0,0,3.4237,1
1777327350934,0.115323,1.07014,-0.0503808,0.0118043,0.429997,-0.0406675,0,0,3.44385,1
1777327350947,0.110046,1.06656,-0.0528409,0.012962,0.405518,-0.038472,0,0,3.49006,1
1777327350961,0.104654,1.06311,-0.0555191,0.0139776,0.382716,-0.0368492,0,0,3.38074,1
1777327350974,0.0986738,1.06038,-0.0572527,0.0149063,0.361257,-0.0352747,0,0,3.51228,1
1777327350988,0.0937278,1.05828,-0.0588754,0.0160356,0.341289,-0.0339383,0,0,3.40083,1
1777327351002,0.0897713,1.05509,-0.0609822,0.0171657,0.322406,-0.0334776,0,0,3.53365,1
1777327351015,0.0853658,1.05255,-0.06319,0.0179627,0.30463,-0.0333682,0,0,3.4285,1
1777327351029,0.0820701,1.05088,-0.0640688,0.0192887,0.287911,-0.0338943,0,0,3.53315,1
1777327351042,0.0781239,1.04827,-0.0655009,0.0206046,0.272159,-0.0347763,0,0,3.44469,1
1777327351056,0.0743033,1.04699,-0.0668527,0.0221721,0.257137,-0.0353134,0,0,3.55689,1
1777327351070,0.0699026,1.04509,-0.0678136,0.0237716,0.243091,-0.0353665,0,0,3.49504,1
1777327351083,0.0651051,1.04435,-0.0692411,0.0255126,0.229973,-0.034132,0,0,3.38996,1
1777327351097,0.0611383,1.04248,-0.071013,0.0268733,0.21748,-0.0320633,0,0,3.50172,1
1777327351111,0.0572433,1.04133,-0.0720555,0.0282305,0.205949,-0.0291644,0,0,3.47402,1
1777327351124,0.0534024,1.03984,-0.0732313,0.0296914,0.194881,-0.0261925,0,0,3.43098,1
1777327351138,0.0511327,1.03892,-0.0752313,0.0312159,0.184352,-0.0230149,0,0,3.47059,1
1777327351151,0.0485385,1.03702,-0.0766535,0.0323851,0.174324,-0.0195658,0,0,3.46231,1
1777327351165,0.0465553,1.0352,-0.0786122,0.0332062,0.164597,-0.0165886,0,0,3.50048,1
1777327351178,0.0450806,1.03312,-0.0812142,0.0337072,0.155369,-0.0138854,0,0,3.43044,1
1777327351192,0.0432777,1.03128,-0.083862,0.0336834,0.146392,-0.0115051,0,0,3.48494,1
1777327351206,0.0411514,1.03,-0.0856217,0.0335238,0.137748,-0.00905713,0,0,3.48398,1
1777327351219,0.0389253,1.02829,-0.0875293,0.0329451,0.129469,-0.00648951,0,0,3.49065,1
1777327351233,0.037139,1.02672,-0.0889327,0.031915,0.121415,-0.00391606,0,0,3.41976,1
1777327351246,0.0343848,1.02579,-0.0902574,0.0307628,0.113962,-0.000313726,0,0,3.4112,1
1777327351260,0.0320589,1.02479,-0.0915215,0.0295553,0.107,0.00372026,0,0,3.4602,1
1777327351274,0.0308906,1.02386,-0.0933583,0.0282486,0.100545,0.00775919,0,0,3.5413,1
1777327351287,0.0303493,1.02273,-0.0947223,0.0271222,0.0944809,0.0114431,0,0,3.49383,1
1777327351301,0.0291947,1.02188,-0.0961604,0.0259477,0.0884876,0.015066,0,0,3.41394,1
1777327351315,0.0285157,1.02075,-0.097737,0.0247021,0.0829504,0.0187597,0,0,3.51185,1
1777327351328,0.0282719,1.0195,-0.0984446,0.0236419,0.0776852,0.0218908,0,0,3.42044,1
1777327351342,0.0283157,1.01831,-0.0992632,0.0226155,0.0726853,0.0244694,0,0,3.50678,1
1777327351355,0.0281106,1.0179,-0.100638,0.0216424,0.0679189,0.0267536,0,0,3.41124,1
1777327351369,0.0277663,1.01685,-0.101539,0.0202486,0.0635054,0.0288668,0,0,3.44111,1
1777327351382,0.0277974,1.01562,-0.102307,0.0187959,0.059438,0.0306046,0,0,3.47098,1
1777327351396,0.0277171,1.01488,-0.103238,0.0172706,0.0554745,0.0321164,0,0,3.38294,1
1777327351409,0.0278058,1.01412,-0.103856,0.0156039,0.0518019,0.0334279,0,0,3.46694,1
1777327351423,0.0277388,1.01326,-0.104631,0.0138466,0.048271,0.0349226,0,0,3.40322,1
1777327351437,0.0279905,1.01236,-0.104925,0.0119181,0.0450581,0.0362993,0,0,3.49069,1
1777327351450,0.0282144,1.01181,-0.105571,0.00975519,0.0420597,0.0375388,0,0,3.41693,1
1777327351464,0.0292611,1.01095,-0.106127,0.00763655,0.0393194,0.0382849,0,0,3.51441,1
1777327351477,0.0304135,1.01049,-0.106255,0.00549117,0.0366343,0.0384282,0,0,3.41981,1
1777327351491,0.0319805,1.01006,-0.106252,0.00350895,0.0339029,0.0378612,0,0,3.52694,1
1777327351505,0.0292691,1.01081,-0.110275,0.0021132,0.0312947,0.0361828,0,0,3.61883,1
1777327351518,0.0316535,1.01078,-0.110964,0.000633036,0.0290982,0.0353993,0,0,3.40718,1
1777327351532,0.0330003,1.01211,-0.112381,-0.000717005,0.0263913,0.0350279,0,0,3.48728,1
1777327351546,0.0362162,1.01096,-0.112172,-0.00276634,0.0241359,0.0348315,0,0,3.42513,1
1777327351559,0.0373344,1.01058,-0.113932,-0.00416548,0.0218872,0.0340724,0,0,3.50802,1
1777327351573,0.0372122,1.0085,-0.113183,-0.00637249,0.0198374,0.0338996,0,0,3.42528,1
1777327351586,0.0363437,1.0088,-0.113312,-0.0078905,0.0178597,0.0332527,0,0,3.48363,3
1777327351600,0.0357567,1.00907,-0.113721,-0.0092891,0.0155905,0.0332201,0,0,3.49374,3
1777327351614,0.0360517,1.00978,-0.113642,-0.0107977,0.013607,0.0326327,0,0,3.4967,3
1777327351627,0.036426,1.01021,-0.113457,-0.0126541,0.0121501,0.0323052,0,0,3.49867,3
1777327351641,0.0366835,1.01029,-0.112653,-0.0143721,0.0108305,0.0319361,0,0,3.40111,3
1777327351654,0.0373099,1.01026,-0.112086,-0.0159937,0.00961071,0.0309882,0,0,3.505,3
1777327351668,0.0379012,1.0098,-0.112358,-0.0176486,0.0084636,0.0296868,0,0,3.42543,3
1777327351682,0.0386374,1.00992,-0.111807,-0.0194033,0.00755639,0.028073,0,0,3.52113,3
1777327351695,0.0390584,1.01002,-0.111287,-0.0210211,0.00689703,0.0262414,0,0,3.4272,3
1777327351709,0.0387162,1.01032,-0.11066,-0.0223982,0.00627466,0.0244098,0,0,3.6185,3
1777327351723,0.0384481,1.0106,-0.110218,-0.023484,0.00585847,0.0230662,0,0,3.4815,3
1777327351736,0.0380854,1.01094,-0.109664,-0.0243933,0.00576535,0.022419,0,0,3.40233,3
1777327351750,0.0371679,1.01174,-0.109292,-0.0248192,0.00631974,0.0226301,0,0,3.48717,3
1777327351763,0.0369181,1.01294,-0.108132,-0.0249685,0.0073697,0.0230992,0,0,3.40202,3
1777327351777,0.0372849,1.0132,-0.107175,-0.0245998,0.00912294,0.0238888,0,0,3.52665,3
1777327351790,0.0374805,1.01406,-0.10649,-0.0235454,0.0114158,0.0249209,0,0,3.41935,3
1777327351804,0.0372269,1.01559,-0.105023,-0.0219121,0.0117475,0.0262506,0,0,3.45594,3
1777327351817,0.0370833,1.0158,-0.103979,-0.0194199,0.011688,0.027617,0,0,3.47567,3
1777327351831,0.0377695,1.01736,-0.101502,-0.0156844,0.0115034,0.0290138,0,0,3.40074,3
1777327351845,0.0364452,1.02108,-0.100369,-0.0105013,0.0115175,0.0317582,0,0,3.48372,3
1777327351858,0.0356197,1.02439,-0.0988473,-0.00344237,0.0112954,0.0364766,0,0,3.39809,3
1777327351872,0.0236385,1.03602,-0.101971,0.00552426,0.0152734,0.0392776,0,0,3.50211,3
1777327351885,-0.0245909,1.04297,-0.108015,0.0246069,0.0401121,0.0218824,0,0,3.41307,3
1777327351899,-0.0340712,1.04093,-0.111446,0.0325183,0.07833,0.0030608,0,0,3.50509,3
1777327351913,-0.0154666,1.03883,-0.113699,0.0415274,0.108101,0.00739791,0,0,3.47713,3
1777327351926,0.00243685,1.02423,-0.112128,0.0436597,0.123413,0.0219309,0,0,3.45487,3
1777327351940,0.0100101,1.01332,-0.108016,0.0418702,0.132513,0.0254151,0,0,3.48089,3
1777327351953,0.00917475,0.995499,-0.103163,0.0360276,0.141317,0.00788114,0,0,3.40578,3
1777327351967,0.0108238,0.980016,-0.0966638,0.0251861,0.148693,-0.011521,0,0,3.47598,3
1777327351981,0.0195015,0.97681,-0.0888451,0.0159461,0.151109,-0.0214467,0,0,3.40931,1
1777327351994,0.0271173,0.980247,-0.0858747,0.016242,0.149634,-0.022907,0,0,3.50148,1
1777327352008,0.0414681,1.00895,-0.113144,-0.00123989,0.148549,0.0048398,0,0,3.43502,1
1777327352021,0.0553152,1.04438,-0.115302,-0.0222371,0.142551,0.0156498,0,0,3.51335,1
1777327352035,0.0812172,1.07732,-0.0987823,-0.0291681,0.132782,0.0125839,0,0,3.48841,1
1777327352049,0.0862066,1.0864,-0.090927,-0.0286025,0.122247,0.00500995,0,0,3.4527,1
1777327352062,0.0827816,1.08121,-0.0918249,-0.0299355,0.11166,-0.000315105,0,0,3.48489,1
1777327352076,0.0780149,1.07793,-0.0903991,-0.0289114,0.1032,-0.00300357,0,0,3.41037,1
1777327352089,0.0762682,1.0773,-0.089738,-0.025547,0.0955488,-0.00569966,0,0,3.50039,1
1777327352103,0.0720175,1.07503,-0.0901821,-0.0220801,0.0885235,-0.00761936,0,0,3.43359,1
1777327352116,0.0686215,1.07199,-0.0910122,-0.0185722,0.0821879,-0.00814683,0,0,3.51774,1
1777327352130,0.0649504,1.06815,-0.0917546,-0.0156636,0.0765458,-0.00724882,0,0,3.42696,1
1777327352144,0.061896,1.06466,-0.0921541,-0.0132435,0.0711903,-0.00563045,0,0,3.43543,1
1777327352157,0.0594375,1.06075,-0.0934488,-0.0115415,0.0660837,-0.00309234,0,0,3.50024,1
1777327352171,0.057966,1.05685,-0.0942326,-0.0105815,0.0612851,-0.000366892,0,0,3.38113,1
1777327352184,0.0572754,1.05346,-0.0949724,-0.0100608,0.0564944,0.0016105,0,0,3.49555,1
1777327352198,0.0563222,1.05029,-0.0951777,-0.0101987,0.0519638,0.0029289,0,0,3.41774,1
1777327352211,0.0554774,1.04736,-0.0956043,-0.0105943,0.0477431,0.00369377,0,0,3.51467,1
1777327352225,0.0542964,1.04437,-0.0961576,-0.0113702,0.043742,0.00393189,0,0,3.49965,1
1777327352239,0.0532091,1.04202,-0.0958856,-0.0121583,0.0401837,0.00381411,0,0,3.51167,1
1777327352252,0.0520595,1.04009,-0.096026,-0.012945,0.0369662,0.0036387,0,0,3.50305,1
1777327352266,0.0509334,1.03851,-0.0964598,-0.0137175,0.034062,0.00325476,0,0,3.41363,1
1777327352280,0.0500621,1.0374,-0.0968693,-0.0143568,0.0315134,0.00293089,0,0,3.51319,1
1777327352293,0.0486919,1.03606,-0.0970915,-0.0147033,0.029309,0.00244963,0,0,3.41804,1
1777327352307,0.0477409,1.03508,-0.0964932,-0.0147949,0.0273096,0.00213239,0,0,3.51443,5
1777327352320,0.0467885,1.03395,-0.0962435,-0.0145388,0.0253881,0.00193999,0,0,3.49859,5
1777327352334,0.0452733,1.03251,-0.0963775,-0.0142499,0.0236129,0.00200672,0,0,3.54818,5
1777327352348,0.044788,1.03081,-0.0962986,-0.0141058,0.0218388,0.0023095,0,0,3.44905,5
1777327352361,0.0440834,1.02971,-0.0962926,-0.0138797,0.0200914,0.00256961,0,0,3.55033,5
1777327352375,0.0437333,1.02819,-0.0961637,-0.0136022,0.0182708,0.00274661,0,0,3.49768,5
1777327352388,0.0437452,1.02684,-0.0963706,-0.0134558,0.0164024,0.00280236,0,0,3.41015,5
1777327352402,0.0433319,1.02575,-0.0965386,-0.013399,0.0145532,0.00285926,0,0,3.51226,5
1777327352416,0.0427911,1.02495,-0.0960535,-0.0131355,0.0128248,0.00310137,0,0,3.75198,5
1777327352430,0.0424039,1.02396,-0.0957189,-0.0126856,0.0113347,0.00322714,0,0,3.53291,5
1777327352443,0.0418467,1.02323,-0.0959782,-0.0119398,0.0100438,0.00321311,0,0,3.40894,5
1777327352457,0.0412797,1.02242,-0.0961271,-0.0111501,0.00902654,0.00329408,0,0,3.47415,1
1777327352470,0.0409089,1.02216,-0.0955418,-0.00998948,0.00798927,0.00310502,0,0,3.45117,1
1777327352484,0.0398193,1.02169,-0.0951127,-0.0085428,0.00730135,0.0031792,0,0,3.43181,1
1777327352497,0.0392565,1.02085,-0.0948993,-0.00714301,0.00702882,0.00315502,0,0,3.48393,1
1777327352511,0.0390539,1.02001,-0.0949992,-0.005689,0.00690003,0.00285387,0,0,3.40089,5
1777327352524,0.0388215,1.01882,-0.0952441,-0.00443216,0.00667142,0.00236409,0,0,3.49367,5
1777327352538,0.0381503,1.018,-0.0953109,-0.00334859,0.00670398,0.00203023,0,0,3.41846,5
1777327352552,0.0375852,1.01737,-0.0953877,-0.00227013,0.00677753,0.00175364,0,0,3.52011,5
1777327352565,0.0365589,1.01686,-0.0956245,-0.00135493,0.00654295,0.00196785,0,0,3.40446,5
1777327352579,0.0361378,1.01611,-0.0954235,-0.000619524,0.00617166,0.00246978,0,0,3.42452,5
1777327352592,0.0356993,1.01578,-0.0950831,7.03518e-05,0.00574412,0.003072,0,0,3.4635,5
1777327352606,0.0351348,1.01536,-0.0951727,0.000918496,0.00543476,0.00380316,0,0,3.37343,5
1777327352620,0.0353003,1.01464,-0.0953257,0.00132942,0.00497577,0.00467743,0,0,3.79465,5
1777327352633,0.0352101,1.01339,-0.0956892,0.00160168,0.00447829,0.00588374,0,0,3.38804,5
1777327352647,0.0348236,1.0127,-0.0958406,0.00169596,0.00394449,0.00716797,0,0,3.48165,5
1777327352660,0.0348423,1.01235,-0.0961205,0.0018192,0.0032351,0.00816179,0,0,3.40313,1
1777327352674,0.0352022,1.01118,-0.0964668,0.00178567,0.00244989,0.00843189,0,0,3.45757,1
1777327352688,0.0348984,1.01058,-0.096917,0.00178827,0.00161881,0.00843849,0,0,3.46213,1
1777327352701,0.0355565,1.01022,-0.0959998,0.00208189,0.0009628,0.0078838,0,0,3.52685,1
1777327352715,0.0363009,1.01017,-0.0959284,0.00270588,0.000322179,0.00610136,0,0,3.46809,1
1777327352728,0.0373323,1.00983,-0.0959706,0.0033334,-8.46869e-06,0.00339125,0,0,3.45733,1
1777327352742,0.0374978,1.01015,-0.095983,0.00448664,-0.00025206,-0.000104576,0,0,3.46098,1
1777327352755,0.0369282,1.00998,-0.0960357,0.00549384,-0.000537652,-0.00363981,0,0,3.38622,1
1777327352769,0.0364317,1.01053,-0.0962088,0.00641457,-0.000871452,-0.00694677,0,0,3.48617,1
1777327352783,0.035292,1.01132,-0.0967145,0.00715092,-0.00122935,-0.00943024,0,0,3.39211,1
1777327352796,0.0336137,1.01196,-0.0966304,0.00759334,-0.00143871,-0.0105241,0,0,3.42115,1
1777327352810,0.0326457,1.01284,-0.0971809,0.00780541,-0.00160636,-0.0107687,0,0,3.46285,1
1777327352824,0.0314308,1.01309,-0.0976047,0.00782574,-0.00187165,-0.0101947,0,0,3.46231,1
1777327352837,0.0301334,1.01348,-0.0979363,0.0078064,-0.00213919,-0.00884353,0,0,3.47002,1
1777327352851,0.0290594,1.01387,-0.0980712,0.00752695,-0.00243453,-0.00675034,0,0,3.42974,1
1777327352864,0.0292096,1.0141,-0.0977604,0.00739163,-0.00259342,-0.00477456,0,0,3.47846,1
1777327352878,0.0293789,1.01441,-0.0977545,0.00753794,-0.00285045,-0.00354333,0,0,3.40174,1
1777327352892,0.0297851,1.0138,-0.0981325,0.00777881,-0.00305452,-0.00325037,0,0,3.52672,1
1777327352905,0.0301822,1.01323,-0.0982701,0.00817744,-0.0032086,-0.00393299,0,0,3.45991,1
1777327352919,0.0309132,1.01234,-0.0981535,0.00877208,-0.00350391,-0.00547222,0,0,3.42187,1
1777327352932,0.0305212,1.0116,-0.0988651,0.00905934,-0.00376553,-0.00729764,0,0,3.48828,1
1777327352946,0.0303567,1.01105,-0.0995094,0.00933048,-0.00414949,-0.00927758,0,0,3.39187,1
1777327352959,0.0296262,1.01095,-0.0997341,0.0096121,-0.00449907,-0.010911,0,0,3.47998,1
1777327352973,0.0291147,1.01087,-0.0995902,0.00990789,-0.0049789,-0.0123414,0,0,3.40541,1
1777327352987,0.028317,1.01046,-0.0992763,0.0100886,-0.00540613,-0.0132719,0,0,3.49141,1
1777327353000,0.0275092,1.00985,-0.0997195,0.0103662,-0.00573232,-0.0140518,0,0,3.39987,1
1777327353014,0.026733,1.0098,-0.0997955,0.010791,-0.00598027,-0.0148222,0,0,3.4285,1
1777327353027,0.0267262,1.01019,-0.099607,0.0114018,-0.00631279,-0.0154723,0,0,3.48868,1
1777327353041,0.0265554,1.01041,-0.0995934,0.0121367,-0.00674228,-0.0160175,0,0,3.36743,1
1777327353054,0.0256821,1.01054,-0.099745,0.0128861,-0.00729753,-0.0162195,0,0,3.47744,1
1777327353068,0.0246387,1.01025,-0.100449,0.0134949,-0.00791584,-0.0161618,0,0,3.39711,1
1777327353081,0.0227226,1.01,-0.100936,0.0137271,-0.00848663,-0.0150625,0,0,3.48054,1
1777327353095,0.0213247,1.00934,-0.10167,0.0134195,-0.00893119,-0.0137081,0,0,3.42711,1
1777327353109,0.0195808,1.00912,-0.102499,0.0130522,-0.00903396,-0.011676,0,0,3.5367,1
1777327353122,0.018729,1.00957,-0.102926,0.0124913,-0.00901964,-0.00915847,0,0,3.44626,1
1777327353136,0.0180482,1.01031,-0.102918,0.0121417,-0.00887766,-0.00664084,0,0,3.47002,1
1777327353149,0.0176794,1.01049,-0.103349,0.0120858,-0.00845677,-0.00414025,0,0,3.47859,1
1777327353163,0.0171808,1.0108,-0.103577,0.0121101,-0.0080081,-0.00157868,0,0,3.40361,1
1777327353177,0.0169839,1.01081,-0.104149,0.0119575,-0.00734909,0.00119888,0,0,3.48428,1
1777327353190,0.0167708,1.01168,-0.104894,0.0116893,-0.00651296,0.00454,0,0,3.41111,1
1777327353204,0.0178157,1.01212,-0.105159,0.0113976,-0.00591641,0.00745392,0,0,3.51352,1
1777327353217,0.0187747,1.01238,-0.104957,0.0112078,-0.00538758,0.010046,0,0,3.41876,1
1777327353231,0.0191184,1.01246,-0.105068,0.0109474,-0.00489269,0.0120858,0,0,3.48415,1
1777327353244,0.0198263,1.01289,-0.105406,0.0109071,-0.00457543,0.0137287,0,0,3.46704,1
1777327353258,0.0201521,1.01334,-0.105313,0.0111945,-0.00424599,0.0150053,0,0,3.38659,1
1777327353272,0.0206788,1.01404,-0.105473,0.0120224,-0.00378945,0.0163217,0,0,3.48231,1
1777327353285,0.0209568,1.01466,-0.104829,0.013793,-0.00317868,0.0173887,0,0,3.40415,1
1777327353299,0.0203701,1.01567,-0.104865,0.0165604,-0.0024994,0.018687,0,0,3.50404,1
1777327353312,0.0203778,1.01729,-0.105501,0.02047,-0.00164841,0.0204991,0,0,3.41348,1
1777327353326,0.0190842,1.01928,-0.105951,0.0256889,-0.00038272,0.0234041,0,0,3.53941,1
1777327353340,0.0181232,1.02277,-0.105773,0.0312017,-0.000459735,0.0270027,0,0,3.46465,1
1777327353353,0.0168328,1.02753,-0.105387,0.0392656,-0.000729396,0.0313584,0,0,3.56787,5
1777327353367,0.0185179,1.03696,-0.104337,0.0521309,-0.00148919,0.0357739,0,0,3.47818,5
1777327353380,0.0194238,1.04463,-0.101771,0.068047,-0.00263455,0.0405112,0,0,3.39074,5
1777327353394,0.0202515,1.0565,-0.0995681,0.0891591,-0.00448212,0.0459933,0,0,3.5032,1
1777327353407,0.0193073,1.07225,-0.0990638,0.113664,-0.00626888,0.0565673,0,0,3.40678,1
1777327353421,0.0194568,1.08962,-0.0969854,0.142593,-0.00923997,0.0710056,0,0,3.52193,1
1777327353435,0.0230352,1.0977,-0.095503,0.173615,-0.0124983,0.0839575,0,0,3.47763,1
1777327353448,0.0257556,1.10658,-0.0954457,0.208022,-0.0157708,0.0933483,0,0,3.47918,1
1777327353462,0.0299119,1.11335,-0.0964188,0.24533,-0.02011,0.101776,0,0,3.48228,1
1777327353475,0.0313016,1.11972,-0.0990901,0.285113,-0.0245099,0.109169,0,0,3.39991,1
1777327353489,0.0350373,1.12504,-0.100858,0.328095,-0.0288942,0.113622,0,0,3.48968,1
1777327353503,0.0396864,1.1279,-0.105677,0.372973,-0.0337433,0.116857,0,0,3.41289,1
1777327353516,0.0448827,1.12876,-0.111184,0.419641,-0.0381021,0.117115,0,0,3.50441,1
1777327353530,0.0504859,1.13543,-0.115342,0.467931,-0.0422678,0.114797,0,0,3.74,1
1777327353544,0.0582809,1.14552,-0.121115,0.519862,-0.047981,0.11145,0,0,3.54483,1
1777327353557,0.0644062,1.15625,-0.123401,0.574891,-0.0563454,0.108654,0,0,3.45093,1
1777327353571,0.0719134,1.18009,-0.124928,0.63315,-0.0673835,0.108258,0,0,3.45457,1
1777327353585,0.0768631,1.20209,-0.131218,0.694915,-0.0811509,0.114205,0,0,3.51135,1
1777327353598,0.0843152,1.23126,-0.139524,0.760695,-0.0972889,0.130921,0,0,3.42578,1
1777327353612,0.0938691,1.26598,-0.153308,0.833251,-0.11766,0.164692,0,0,3.51442,1
1777327353625,0.0914248,1.26424,-0.159704,0.892942,-0.138344,0.174534,0,0,3.41074,1
1777327353639,0.0915004,1.29462,-0.154607,0.971383,-0.152944,0.149736,0,0,3.53646,1
1777327353652,0.0788634,1.29063,-0.156466,1.0572,-0.160084,0.111638,0,0,3.42124,1
1777327353666,0.0957072,1.31386,-0.157837,1.13541,-0.179309,0.113665,0,0,3.49406,1
1777327353680,0.102061,1.31422,-0.151202,1.21203,-0.201408,0.146773,0,0,3.50581,1
1777327353693,0.110003,1.29019,-0.147719,1.28435,-0.228626,0.181401,0,0,3.47061,1
1777327353707,0.116774,1.28187,-0.132504,1.35261,-0.26005,0.206329,0,0,3.52046,1
1777327353720,0.113442,1.24106,-0.138396,1.41704,-0.293857,0.231177,0,0,3.4365,1
1777327353734,0.098027,1.20054,-0.13948,1.47119,-0.321854,0.253929,0,0,3.51131,1
1777327353748,0.0762321,1.1461,-0.14279,1.49792,-0.339314,0.261253,0,0,3.42985,1
1777327353761,0.0463748,1.06695,-0.150241,1.48737,-0.340081,0.247001,0,0,3.507,1
1777327353775,0.0225883,0.947381,-0.156946,1.43243,-0.323518,0.201949,0,0,3.40717,4
1777327353788,0.00470989,0.848843,-0.15918,1.32871,-0.295977,0.139701,0,0,3.43965,4
1777327353802,-0.00288083,0.796039,-0.16018,1.19838,-0.262723,0.082191,0,0,3.48757,4
1777327353815,-0.00463645,0.754469,-0.157851,1.0504,-0.229951,0.041643,0,0,3.38156,4
1777327353829,-0.000309137,0.719201,-0.15468,0.889141,-0.200379,0.0186514,0,0,3.49991,4
1777327353843,0.00581592,0.696471,-0.150112,0.720386,-0.174713,0.00809521,0,0,3.49483,4
1777327353856,0.0118987,0.676795,-0.145143,0.547128,-0.151391,0.00154804,0,0,3.50128,4
1777327353870,0.0157641,0.659346,-0.142054,0.376131,-0.129043,-0.00215269,0,0,3.42837,4
1777327353883,0.0167834,0.64808,-0.137893,0.214724,-0.106116,-0.00476805,0,0,3.5202,4
1777327353897,0.0169238,0.649237,-0.131213,0.0623719,-0.0820899,-0.0109405,0,0,3.42343,4
1777327353911,0.0170701,0.663393,-0.123264,-0.0814348,-0.0568424,-0.021738,0,0,3.53472,4
1777327353924,0.0177833,0.682329,-0.117651,-0.217175,-0.0309001,-0.0331459,0,0,3.48939,4
1777327353938,0.020497,0.698888,-0.115037,-0.345301,-0.00467462,-0.0454767,0,0,3.47589,4
1777327353952,0.0235789,0.720421,-0.114075,-0.466241,0.0216427,-0.0577068,0,0,3.49702,4
1777327353965,0.0277477,0.743553,-0.114757,-0.580396,0.0479055,-0.0692295,0,0,3.41985,4
1777327353979,0.0336821,0.771125,-0.115975,-0.688148,0.073423,-0.0794422,0,0,3.43159,4
1777327353992,0.0417624,0.804149,-0.117618,-0.789857,0.097462,-0.0869539,0,0,3.50156,4
1777327354006,0.0504302,0.837648,-0.120141,-0.88586,0.120427,-0.0950076,0,0,3.49956,4
1777327354019,0.0566397,0.871063,-0.122632,-0.976478,0.1437,-0.104768,0,0,3.50722,4
1777327354033,0.0609124,0.904862,-0.125517,-1.06201,0.168336,-0.112362,0,0,3.40517,0
1777327354047,0.0683965,0.939176,-0.128748,-1.14275,0.192935,-0.113989,0,0,3.49178,0
1777327354060,0.0805688,0.97844,-0.133385,-1.21896,0.21337,-0.106319,0,0,3.4452,0
1777327354074,0.0935783,1.02458,-0.139529,-1.29089,0.225372,-0.0901347,0,0,3.502,0
1777327354087,0.105023,1.07546,-0.151669,-1.35879,0.227027,-0.0736848,0,0,3.41674,0
1777327354101,0.11247,1.12228,-0.172701,-1.41864,0.219105,-0.0635613,0,0,3.53585,0
1777327354115,0.114556,1.16217,-0.198153,-1.46137,0.207094,-0.0612249,0,0,3.43015,0
1777327354128,0.11013,1.18964,-0.225054,-1.49159,0.196017,-0.0624579,0,0,3.53481,0
1777327354142,0.101528,1.21438,-0.250309,-1.50953,0.190224,-0.0657926,0,0,3.48904,0
1777327354155,0.0885891,1.2402,-0.274887,-1.51013,0.192524,-0.0666452,0,0,3.38102,0
1777327354169,0.0769097,1.26038,-0.303674,-1.49168,0.203215,-0.0649793,0,0,3.49733,0
1777327354183,0.0692953,1.27263,-0.336953,-1.45565,0.221156,-0.0618783,0,0,3.42168,0
1777327354196,0.0685581,1.28437,-0.371927,-1.4023,0.242723,-0.0589897,0,0,3.53315,0
1777327354210,0.0734084,1.28792,-0.408786,-1.33468,0.263466,-0.0524866,0,0,3.43102,5
1777327354223,0.0796164,1.27949,-0.442839,-1.26235,0.281606,-0.0433809,0,0,3.47505,5
1777327354237,0.0847914,1.28711,-0.470463,-1.18085,0.296969,-0.0377447,0,0,3.58417,5
1777327354251,0.0887723,1.30064,-0.492661,-1.08335,0.306632,-0.0339019,0,0,3.4795,5
1777327354264,0.104677,1.14934,-0.446799,-0.990633,0.309527,-0.0313195,0,0,3.54817,5
1777327354278,0.113595,1.17899,-0.355264,-0.863306,0.303611,-0.0358013,0,0,3.43322,5
1777327354292,0.0964048,1.16313,-0.323258,-0.740193,0.276364,-0.0317978,0,0,3.52785,5
1777327354305,0.0911068,1.14995,-0.28846,-0.617879,0.259984,-0.0232917,0,0,3.44854,5
1777327354319,0.0863251,1.13821,-0.260447,-0.507586,0.243851,-0.0161833,0,0,3.57274,5
1777327354332,0.0799491,1.12452,-0.23921,-0.408044,0.222594,-0.00907537,0,0,3.44213,5
1777327354346,0.0698362,1.11393,-0.217315,-0.3185,0.199733,0.00240811,0,0,3.52746,5
1777327354360,0.0637004,1.10602,-0.198402,-0.238796,0.178056,0.0166087,0,0,3.51555,5
1777327354373,0.0601547,1.09775,-0.181193,-0.168341,0.158957,0.0310618,0,0,3.41115,5
1777327354387,0.0565613,1.09118,-0.167181,-0.106908,0.141871,0.0438179,0,0,3.51665,1
1777327354400,0.054676,1.08452,-0.154585,-0.0553394,0.126702,0.0568861,0,0,3.4362,1
1777327354414,0.0547999,1.07845,-0.143723,-0.0106712,0.113583,0.065997,0,0,3.51785,1
1777327354428,0.0584226,1.07323,-0.133196,0.028674,0.103705,0.069206,0,0,3.43981,1
1777327354442,0.060007,1.06871,-0.124164,0.0633372,0.0973145,0.0681929,0,0,3.9943,1
1777327354455,0.0605988,1.06416,-0.116514,0.0939495,0.0919544,0.063383,0,0,3.47863,1
1777327354469,0.061171,1.06012,-0.110417,0.12022,0.0865524,0.0577595,0,0,3.57396,1
1777327354483,0.0601363,1.05523,-0.105648,0.142011,0.0810766,0.0518135,0,0,3.5038,1
1777327354496,0.0572425,1.05272,-0.102748,0.158833,0.0766144,0.047948,0,0,3.41254,1
1777327354510,0.0559899,1.04945,-0.0998742,0.171915,0.0738413,0.0439483,0,0,3.53107,1
1777327354523,0.0528082,1.0474,-0.0972574,0.181241,0.0725853,0.0416458,0,0,3.42824,1
1777327354537,0.0526945,1.04642,-0.0941575,0.189897,0.0698969,0.0405858,0,0,3.54476,1
1777327354551,0.0510945,1.0475,-0.0891499,0.199589,0.0657878,0.040356,0,0,3.49902,1
1777327354564,0.0508989,1.04495,-0.0851763,0.210531,0.0639902,0.0372231,0,0,3.54076,1
1777327354578,0.0528643,1.04344,-0.0822199,0.222704,0.0641603,0.0297186,0,0,3.49168,1
1777327354592,0.0524051,1.03699,-0.0894948,0.233099,0.0686113,0.0166362,0,0,3.44691,1
1777327354605,0.0550666,1.03744,-0.0922669,0.232133,0.0637308,0.00450592,0,0,3.51398,1
1777327354619,0.0598658,1.03458,-0.093117,0.230322,0.0600575,-0.00584774,0,0,3.41487,1
1777327354632,0.0574937,1.03138,-0.0947137,0.227645,0.0587397,-0.0155521,0,0,3.50506,1
1777327354646,0.0548576,1.03072,-0.0959195,0.224154,0.0553592,-0.0216378,0,0,3.50037,1
1777327354660,0.050863,1.02965,-0.0948255,0.219811,0.0509352,-0.0264187,0,0,3.52802,1
1777327354673,0.0457504,1.02936,-0.0952993,0.215501,0.0470762,-0.0280326,0,0,3.44943,1
1777327354687,0.0446084,1.02655,-0.0976911,0.210183,0.0435792,-0.0286396,0,0,3.45926,1
1777327354700,0.0443247,1.02462,-0.0978945,0.205612,0.0412632,-0.030039,0,0,3.50715,1
1777327354714,0.0441391,1.02331,-0.0993465,0.201482,0.0400491,-0.0334709,0,0,3.41474,1
1777327354728,0.0441282,1.02318,-0.0996077,0.197807,0.0397209,-0.0381918,0,0,3.50619,1
1777327354741,0.044652,1.02223,-0.100142,0.19459,0.0399164,-0.0448787,0,0,3.42194,1
1777327354755,0.0420652,1.02132,-0.101769,0.191228,0.0401437,-0.0508951,0,0,3.53681,1
1777327354768,0.0389251,1.01935,-0.104469,0.187836,0.0410049,-0.0561459,0,0,3.43435,1
1777327354782,0.0330305,1.01908,-0.10584,0.183513,0.0413125,-0.0587385,0,0,3.47448,4
1777327354795,0.0296303,1.01939,-0.108407,0.178418,0.0408192,-0.0585695,0,0,3.49339,4
1777327354809,0.0253663,1.01908,-0.110447,0.17276,0.0398141,-0.0558537,0,0,3.42176,4
1777327354823,0.0221632,1.01889,-0.111743,0.167394,0.0388954,-0.05195,0,0,3.50089,4
1777327354836,0.0197286,1.01854,-0.11276,0.162282,0.0375101,-0.0470534,0,0,3.43513,4
1777327354850,0.0190054,1.01812,-0.113639,0.157753,0.036104,-0.0426029,0,0,3.51418,4
1777327354863,0.0201304,1.01805,-0.114481,0.153648,0.0345456,-0.0396565,0,0,3.4212,4
