timestamp,ax,ay,az,gx,gy,gz,roll_k,pitch_k,delay_ms,classe_prevista
1774536091995,0.0537072,0.919125,-0.502162,0.816737,-2.09146,-2.93873,0,0,3.29781,-1
1774536092009,0.0422371,0.927734,-0.501221,1.16028,-1.87024,-2.78627,0,0,4.10088,-1
1774536092022,0.0468747,0.936279,-0.491212,1.16031,-1.45041,-2.25195,0,0,3.26223,-1
1774536092036,0.0524898,0.942627,-0.504394,1.40456,-1.29772,-1.68706,0,0,3.27464,-1
1774536092049,0.0498049,0.929444,-0.494385,1.687,-1.22138,-1.32827,0,0,3.25174,-1
1774536092062,0.0349132,0.928955,-0.490967,1.77862,-0.992382,-0.213818,0,0,3.26279,-1
1774536092076,0.0515125,0.941894,-0.503417,2.40454,-0.893137,0.13738,0,0,3.26537,-1
1774536092089,0.0466312,0.91675,-0.498535,2.14506,-0.961827,0.442727,0,0,3.26422,-1
1774536092102,0.0505368,0.929442,-0.509277,2.07634,-0.73284,0.778602,0,0,3.26475,-1
1774536092116,0.050293,0.926026,-0.506592,1.87788,-0.450401,0.954186,0,0,3.38501,0
1774536092129,0.0410163,0.912599,-0.504151,1.78627,-0.068729,1.03053,0,0,3.29092,0
1774536092143,0.0500482,0.918212,-0.50293,1.54963,-0.251896,1.1374,0,0,3.26283,0
1774536092156,0.042481,0.916016,-0.512695,1.14507,-0.366404,1.38166,0,0,3.27236,0
1774536092169,0.0498042,0.918701,-0.505372,0.717587,-0.412211,1.71753,0,0,3.27501,5
1774536092183,0.0520018,0.928466,-0.511718,0.671759,-0.0381941,2.04578,0,0,3.24151,5
1774536092196,0.0590815,0.919434,-0.506104,0.526728,-0.503784,1.72521,0,0,3.27427,5
1774536092209,0.0556643,0.921387,-0.504883,0.175597,-0.419853,1.5649,0,0,3.24359,5
1774536092223,0.0568847,0.924804,-0.509277,-0.0686852,-0.320618,1.64885,0,0,3.57748,5
1774536092238,0.045411,0.914063,-0.500977,-0.167932,-0.526703,1.3817,0,0,3.88049,5
1774536092252,0.0456543,0.928466,-0.500732,-0.160306,-0.175597,1.90836,0,0,3.94586,5
1774536092265,0.0463867,0.92627,-0.50293,-0.2977,-0.099242,2.48851,0,0,3.29857,5
1774536092279,0.06079,0.925537,-0.505127,-0.244279,-0.10687,2.50382,0,0,3.5742,5
1774536092292,0.0654294,0.927734,-0.504883,-0.274807,-0.221366,2.41222,0,0,3.27527,5
1774536092306,0.0690915,0.92627,-0.512207,-0.312974,-0.847284,1.53441,0,0,3.27322,5
1774536092319,0.0673829,0.920655,-0.506104,-0.335876,-1.00762,0.626018,0,0,3.28509,5
1774536092333,0.0627445,0.918945,-0.505371,-0.908357,-1.38165,0.450394,0,0,3.26724,5
1774536092348,0.0537116,0.919678,-0.504883,-0.977094,-1.77097,-0.938834,0,0,4.85486,5
1774536092361,0.0771468,0.930175,-0.500489,-1.25952,-2.3511,-2.64874,0,0,3.26874,5
1774536092375,0.0776367,0.919434,-0.503662,-1.24428,-3.03812,-4.68688,0,0,3.79672,5
1774536092388,0.0734866,0.926269,-0.49585,-0.83209,-3.74041,-7.18303,0,0,3.26435,5
1774536092402,0.0732422,0.91919,-0.49585,-1.10685,-4.08395,-8.94644,0,0,3.3477,5
1774536092415,0.0588389,0.920654,-0.502197,-1.00001,-4.2748,-10.5724,0,0,3.27835,5
1774536092429,0.045167,0.916504,-0.503662,-1.25952,-4.25191,-11.374,0,0,3.29866,5
1774536092442,0.0358893,0.940184,-0.501953,-0.992385,-4.14505,-10.9771,0,0,3.2867,3
1774536092456,0.0192883,0.947265,-0.504883,-0.473319,-3.56493,-9.48865,0,0,3.45344,3
1774536092469,0.0175782,0.947998,-0.500733,0.35872,-3.18323,-8.03827,0,0,3.31549,3
1774536092483,0.0273431,0.944336,-0.502197,0.885459,-2.89315,-6.67948,0,0,3.26685,3
1774536092496,0.0261231,0.930665,-0.51123,1.17555,-2.55728,-5.24438,0,0,3.61012,3
1774536092510,0.0332026,0.931885,-0.500733,1.58776,-2.69465,-4.14512,0,0,3.28294,3
1774536092523,0.0192881,0.920167,-0.504638,1.51909,-2.39697,-2.93138,0,0,3.25524,3
1774536092536,0.0239255,0.923095,-0.501953,1.52672,-2.14506,-2.04586,0,0,3.28822,3
1774536092550,0.0190433,0.917969,-0.494874,1.50382,-1.78628,-1.1451,0,0,3.26485,3
1774536092563,0.01709,0.921142,-0.498779,1.29772,-1.24431,-0.17564,0,0,3.2892,3
1774536092577,0.0195311,0.922119,-0.495606,1.26718,-0.679429,0.648797,0,0,3.28227,3
1774536092591,0.0256343,0.925537,-0.50122,1.70226,-0.48093,1.18317,0,0,3.73336,3
1774536092604,0.022217,0.922608,-0.503906,1.12218,-0.114529,1.78622,0,0,3.27044,3
1774536092617,0.0373525,0.923828,-0.494874,1.16794,0.251883,1.38934,0,0,3.26168,3
1774536092631,0.0280768,0.922852,-0.506591,1.08398,0.137413,1.43511,0,0,3.30664,3
1774536092644,0.0168465,0.922852,-0.506348,0.923675,-0.0152565,2.03813,0,0,3.25525,3
1774536092657,0.0322255,0.917725,-0.499268,0.694673,0.160293,2.28243,0,0,3.34162,3
1774536092671,0.0266117,0.921631,-0.506835,1.02288,0.389297,2.91599,0,0,3.26444,5
1774536092685,0.023926,0.927246,-0.510498,0.87024,0.7557,3.77857,0,0,3.78388,5
1774536092698,0.0185551,0.928711,-0.506348,0.625971,1.19081,4.45033,0,0,3.27105,5
1774536092712,0.0117192,0.916505,-0.510742,0.381696,1.21374,4.67174,0,0,3.27677,5
1774536092725,0.0336899,0.92041,-0.505371,0.160321,1.64882,5.3511,0,0,3.27677,5
1774536092738,0.0280766,0.907227,-0.505127,-0.236613,1.83968,5.12215,0,0,3.30407,5
1774536092752,0.0368646,0.897706,-0.504883,-1.21367,2.39691,5.229,0,0,3.41849,5
1774536092765,0.0283209,0.895508,-0.508789,-2.19077,2.35115,5.35877,0,0,3.39151,5
1774536092779,0.0468737,0.923582,-0.503907,-2.58776,2.27481,4.56494,0,0,3.32883,5
1774536092792,0.0554193,0.915772,-0.50415,-2.70992,2.21374,3.70235,0,0,3.32322,5
1774536092806,0.0500492,0.909668,-0.500489,-3.53429,1.86262,3.20614,0,0,3.64918,5
1774536092820,0.014895,0.919189,-0.503662,-3.2214,2.44271,5.38916,0,0,3.31755,5
1774536092833,0.0375961,0.925781,-0.498291,-2.67179,3.71747,7.61053,0,0,3.28266,5
1774536092850,0.0217296,0.918946,-0.498047,-2.87022,4.57246,10.5647,0,0,6.85727,5
1774536092864,0.0505351,0.936278,-0.506103,-2.17562,4.36643,11.0458,0,0,3.25277,5
1774536092877,0.0646963,0.933594,-0.497559,-1.04588,3.67944,10.5726,0,0,3.29359,5
1774536092891,0.0756828,0.935058,-0.494873,-0.435157,2.54206,8.96958,0,0,3.26449,5
1774536092904,0.0703129,0.945312,-0.503906,-0.572509,1.48862,7.62605,0,0,3.27148,5
1774536092917,0.0866688,0.948974,-0.505859,-0.221399,0.778676,5.52686,0,0,3.36374,5
1774536092931,0.0681165,0.954589,-0.506103,0.86252,0.244312,4.1146,0,0,3.65786,5
1774536092945,0.0742183,0.962158,-0.493165,1.97702,0.0839807,3.80155,0,0,3.2792,5
1774536092958,0.0571301,0.955567,-0.499511,2.9923,0.725146,4.16791,0,0,3.26703,5
1774536092972,0.0512699,0.944337,-0.502197,3.8091,1.03051,4.88545,0,0,3.26038,5
1774536092985,0.0539549,0.946289,-0.517333,4.12975,-0.0533592,5.14502,0,0,3.24624,5
1774536092998,0.0646965,0.933106,-0.502442,5.29,1.11442,4.87788,0,0,3.3147,5
1774536093012,0.0783682,0.931885,-0.498047,5.45037,0.511493,4.07639,0,0,3.27277,5
1774536093025,0.0812986,0.923096,-0.504394,5.70227,-0.137359,3.01534,0,0,3.28136,5
1774536093038,0.0952139,0.913331,-0.500733,5.36644,-0.816746,1.32073,0,0,3.28307,5
1774536093052,0.0981443,0.906006,-0.508544,5.52671,-1.73276,-1.25936,0,0,3.24831,5
1774536093065,0.104003,0.914062,-0.496827,5.29009,-2.74802,-3.87005,0,0,3.2644,5
1774536093079,0.0888682,0.920654,-0.508056,5.53433,-4.09914,-6.64866,0,0,3.3644,5
1774536093092,0.0917967,0.91211,-0.513671,5.46565,-4.96177,-9.038,0,0,3.29951,5
1774536093105,0.0910645,0.90918,-0.496827,6.32818,-6.03046,-11.8777,0,0,3.30798,5
1774536093119,0.0659197,0.921874,-0.520018,6.76333,-6.53432,-13.1144,0,0,3.26244,5
1774536093132,0.0483411,0.904542,-0.509278,6.80916,-6.58015,-12.8702,0,0,3.25611,5
1774536093145,0.0405279,0.927733,-0.516845,8.38157,-6.2672,-11.9161,0,0,3.26014,5
1774536093159,0.0432127,0.934326,-0.514893,9.36634,-6.13741,-11.2062,0,0,3.26307,5
1774536093172,0.0126974,0.922608,-0.526855,9.32061,-5.20617,-8.24448,0,0,3.3259,5
1774536093186,0.0124512,0.928711,-0.529785,9.69463,-4.09168,-4.9468,0,0,3.26351,5
1774536093199,0.025878,0.947264,-0.535156,9.93128,-3.50386,-2.42766,0,0,3.24087,5
1774536093212,0.00659315,0.935304,-0.522218,10.0992,-2.67181,0.465446,0,0,3.27109,5
1774536093226,0.0329571,0.968992,-0.527099,11.7556,-2.4275,2.59527,0,0,3.29635,5
1774536093239,0.0209969,0.946779,-0.537597,12.0534,-1.58021,5.09906,0,0,3.27401,5
1774536093252,0.0390612,0.965575,-0.540039,14.038,-0.694718,7.56471,0,0,3.24042,3
1774536093266,0.0266122,0.997068,-0.541992,17.4425,-0.22904,8.9999,0,0,3.27801,3
1774536093279,0.0473618,1.04321,-0.546386,20.6868,-0.686991,12.038,0,0,3.44146,3
1774536093294,0.180166,1.11596,-0.593503,29.32,-6.06833,14.3357,0,0,3.3077,3
1774536093308,-0.0126818,1.00855,-0.708244,31.8166,-4.50393,16.9693,0,0,3.35412,3
1774536093321,0.057124,1.45895,-0.684572,64.7916,0.0607492,32.0524,0,0,3.35483,3
1774536093335,0.0678703,0.993197,-0.571541,63.0765,-0.473245,42.4573,0,0,3.30046,3
1774536093348,-0.0156192,1.5422,-0.666497,77.6402,-1.13736,21.7419,0,0,3.27507,3
1774536093361,-0.0300283,1.41993,-0.59522,104.326,1.08381,25.1448,0,0,3.24686,3
1774536093375,0.0170865,1.20119,-0.55347,121.434,2.61821,19.4279,0,0,3.27033,5
1774536093388,0.0673793,1.21313,-0.621821,129.847,2.60305,22.4044,0,0,3.25405,5
1774536093402,0.0893539,1.45116,-0.611329,145.945,1.65655,20.9696,0,0,3.28923,5
1774536093415,0.171625,1.44434,-0.600098,167.228,-1.2975,18.9238,0,0,3.25061,5
1774536093428,0.220944,1.2527,-0.572023,180.114,-5.95387,12.4279,0,0,3.28918,5
1774536093442,0.270016,1.22266,-0.650629,189.847,-11.7477,6.19891,0,0,3.33083,5
1774536093455,0.3103,1.43309,-0.661376,207.907,-21.2283,-5.53353,0,0,3.27931,5
1774536093469,0.41967,1.38599,-0.697995,225.258,-33.6556,-17.9915,0,0,3.36377,5
1774536093482,0.40918,1.47314,-0.758541,247.281,-43.9,-28.5107,0,0,3.24699,5
1774536093495,0.414795,1.44995,-0.773436,250.13,-53.0604,-41.2968,0,0,3.28583,5
1774536093509,0.340093,1.58349,-0.931141,250.13,-57.8699,-44.9158,0,0,3.24405,5
1774536093522,0.641825,1.38063,-0.978024,250.13,-66.4956,-22.0016,0,0,3.28012,5
1774536093535,0.138951,1.36328,-1.08642,250.13,-66.2061,-27.3279,0,0,3.28351,5
1774536093549,0.277578,1.33814,-1.05664,250.13,-53.7261,12.3865,0,0,3.2652,5
1774536093562,0.495102,1.83029,-0.732689,250.13,-59.8698,37.7921,0,0,3.2735,5
1774536093575,0.357676,1.93847,-0.492448,250.13,-66.1599,39.1144,0,0,3.25811,5
1774536093589,0.0205314,2.23069,1.14344,250.13,-80.9532,18.7266,0,0,3.29066,5
1774536093602,0.15087,-3.99956,0.534222,171.944,-40.7662,12.7256,0,0,3.38431,3
1774536093616,-0.315397,1.03236,0.219016,-9.15526,-1.81189,39.9065,0,0,3.27268,3
1774536093629,-0.224127,1.15575,-0.16013,-53.9282,31.1962,45.8469,0,0,3.27994,3
1774536093642,0.0178053,0.841331,0.0134156,-55.2747,30.7863,47.6869,0,0,3.30431,3
1774536093656,0.00488372,0.720712,-0.0202613,-66.7168,21.7869,55.572,0,0,3.27101,3
1774536093669,-0.0646924,0.306425,0.0998451,-97.6162,14.9089,61.4881,0,0,3.25825,3
1774536093683,-0.0334495,0.11891,0.227774,-148.111,8.02338,47.0773,0,0,3.27375,3
1774536093696,0.00170652,0.256582,0.273434,-202.828,-3.6633,23.391,0,0,3.25251,3
1774536093709,0.0666458,0.543437,0.239748,-244.501,-17.4799,15.3441,0,0,3.33598,2
1774536093723,0.0798331,0.800031,0.18726,-250.137,-26.9535,26.3046,0,0,3.27094,2
1774536093736,0.0595717,0.92089,0.125981,-250.137,-29.2517,43.8537,0,0,3.30748,2
1774536093750,-0.00805191,1.0017,0.0432187,-250.137,-25.6949,56.0831,0,0,3.27679,5
1774536093763,-0.0458958,1.04297,-0.0937404,-250.137,-20.0386,54.8398,0,0,3.27925,5
1774536093777,-0.0485838,1.16283,-0.199211,-250.137,-14.7179,40.5583,0,0,3.26846,5
1774536093790,-0.0810524,1.28905,-0.327872,-250.137,-3.39774,33.8631,0,0,3.29594,1
1774536093804,-0.0400419,1.30322,-0.430413,-250.137,12.6401,42.8238,0,0,3.4269,5
1774536093818,-0.0214857,1.3313,-0.492916,-250.137,31.0216,53.1901,0,0,3.28086,5
1774536093831,-0.0629854,1.4536,-0.560542,-250.137,49.9223,51.3131,0,0,3.28388,5
1774536093844,-0.0488291,1.58031,-0.642572,-250.137,69.0292,40.2832,0,0,3.33755,5
1774536093858,-0.0205098,1.70946,-0.729486,-250.137,88.0139,35.6339,0,0,3.25553,5
1774536093871,0.0512645,1.73852,-0.788814,-250.137,107.212,37.1068,0,0,3.26581,5
1774536093885,0.164543,1.72388,-0.8623,-250.137,119.083,38.7022,0,0,3.31159,5
1774536093898,0.282707,1.7041,-0.986319,-250.137,122.824,38.6183,0,0,3.29394,5
1774536093911,0.386223,1.66529,-1.11059,-250.137,116.871,31.0769,0,0,3.26531,5
1774536093925,0.457759,1.74999,-1.27953,-250.137,103.428,20.7641,0,0,3.29266,5
1774536093938,0.429201,1.72363,-1.38964,-250.137,88.8026,19.107,0,0,3.28038,5
1774536093952,0.397219,1.5796,-1.4143,-247.275,73.4744,14.8934,0,0,3.27187,5
1774536093965,0.343021,1.47071,-1.47558,-224.36,61.3138,14.3207,0,0,3.31112,5
1774536093978,0.345215,1.38941,-1.62548,-199.269,51.6037,22.0911,0,0,3.28085,5
1774536093992,0.34375,1.30006,-1.83251,-166.422,41.7182,33.045,0,0,3.29494,5
1774536094005,0.134048,1.21046,-2.02684,-127.697,36.2065,53.6779,0,0,3.27907,5
1774536094019,-0.25925,1.03761,-2.15429,-85.7205,37.1984,53.6107,0,0,3.28003,5
1774536094032,-0.480942,0.958746,-2.1792,-38.6445,37.9389,16.1324,0,0,3.27827,5
1774536094045,-0.457033,0.921145,-2.13477,10.592,34.9315,-31.7524,0,0,3.31146,5
1774536094059,-0.229264,0.910645,-1.98634,53.768,30.0996,-55.6243,0,0,3.26235,5
1774536094072,-0.0288226,0.961178,-1.79054,88.1961,23.2448,-59.2593,0,0,3.25664,5
1774536094086,-1.44595,3.99967,0.231548,250.118,-34.8051,31.1692,0,0,3.26644,5
1774536094099,1.46195,0.951385,-0.0966567,215.674,-112.292,-89.8541,0,0,3.29251,5
1774536094112,-0.0357838,0.625023,-0.0791028,250.127,-78.5749,-101.465,0,0,3.33364,5
1774536094126,-0.35862,1.09689,-0.221426,250.13,-37.4685,-60.7738,0,0,3.33309,5
1774536094139,0.0312227,1.0586,-0.302973,250.13,-17.1846,-53.0845,0,0,3.31318,5
1774536094153,-0.012204,0.889904,-0.437491,215.834,-12.0004,-45.4891,0,0,3.34718,5
1774536094166,0.0495562,0.798834,-0.491451,185.147,-14.9845,-37.8555,0,0,3.25575,5
1774536094179,-0.116443,0.831541,-0.462649,146.972,-9.42024,-16.3298,0,0,3.27735,5
1774536094193,-0.18066,0.788821,-0.541254,119.643,-2.71039,-1.18427,0,0,3.29092,5
1774536094206,-0.0861883,0.798095,-0.537354,98.1694,4.72467,11.5029,0,0,3.2822,5
1774536094220,-0.0595722,0.872309,-0.521974,79.009,10.6484,23.3961,0,0,3.27188,2
1774536094233,0.0126903,0.691175,-0.542967,53.6201,9.00012,25.9006,0,0,3.27607,2
1774536094246,-0.0612741,0.849842,-0.486576,43.1229,13.5722,27.3587,0,0,3.26612,2
1774536094260,0.0378349,0.899899,-0.486084,39.3438,14.8472,26.7634,0,0,3.27033,2
1774536094273,0.127923,0.885743,-0.5498,34.1836,12.13,22.8094,0,0,3.27088,2
1774536094286,0.125977,0.778084,-0.545166,24.6724,8.27508,8.61931,0,0,3.25829,5
1774536094300,0.15576,0.795653,-0.565428,16.054,3.82474,-0.319985,0,0,3.28451,5
1774536094313,0.10059,0.8623,-0.525149,7.46625,0.908601,-2.69449,0,0,3.28448,5
1774536094327,0.0822767,0.9082,-0.520996,5.51922,0.0687611,-4.56475,0,0,3.33977,5
1774536094340,0.0625014,0.922851,-0.508302,2.4735,-0.389281,-4.35879,0,0,3.28359,5
1774536094354,0.0510262,0.994136,-0.49585,4.88533,-0.290083,-2.17573,0,0,3.31088,5
1774536094367,0.0485842,0.960696,-0.501464,7.28991,-0.114516,-0.732925,0,0,3.2831,5
1774536094380,0.0310071,0.950928,-0.495362,7.70226,1.28234,2.56465,0,0,3.26635,5
1774536094394,0.0515122,0.924074,-0.494629,9.48842,2.75562,4.22126,0,0,3.27942,5
1774536094407,0.0590815,0.921631,-0.505614,8.1375,2.75573,4.85492,0,0,3.27061,5
1774536094420,0.0710441,0.929443,-0.486085,8.39693,3.65643,3.7787,0,0,3.28055,5
1774536094434,0.0917954,0.906252,-0.502196,7.39702,1.82456,1.84746,0,0,3.2809,5
1774536094447,0.103515,0.935057,-0.506103,7.25955,0.374147,0.0840929,0,0,3.27312,5
1774536094461,0.0998538,0.9292,-0.508301,6.19855,-1.06097,-1.40448,0,0,3.28194,5
1774536094474,0.0825207,0.911378,-0.517822,5.97711,-2.70981,-2.83959,0,0,3.25949,5
1774536094487,0.0786136,0.910889,-0.515381,4.75581,-3.57246,-3.37401,0,0,3.28038,5
1774536094501,0.0727543,0.926024,-0.520996,4.6336,-3.97707,-3.55724,0,0,3.27646,5
1774536094514,0.0622566,0.913331,-0.509766,3.67946,-3.82444,-3.84731,0,0,3.29259,5
1774536094528,0.0656736,0.901612,-0.520995,4.15264,-3.00769,-3.69467,0,0,3.27242,5
1774536094541,0.0737299,0.938474,-0.515625,4.83201,-2.27486,-3.88548,0,0,3.33657,5
1774536094554,0.0937486,0.917238,-0.519043,3.35888,-2.86255,-5.13732,0,0,3.32048,5
1774536094568,0.0615257,0.898683,-0.511231,3.17559,-2.7252,-5.29007,0,0,3.32329,5
1774536094584,0.0522467,0.920409,-0.511963,2.93895,-2.32064,-4.83973,0,0,3.34648,5
1774536094598,0.0375987,0.922607,-0.522704,2.75574,-1.90079,-2.72534,0,0,3.28012,5
1774536094612,0.0463861,0.915284,-0.519287,2.58016,-1.04586,-1.11462,0,0,3.27825,5
1774536094625,0.0522457,0.899415,-0.515869,2.77098,-1.64118,-0.259602,0,0,3.24337,5
1774536094639,0.0510255,0.914794,-0.508301,2.08402,-1.74808,-0.122147,0,0,3.26514,5
1774536094652,0.0717759,0.910889,-0.519775,2.63355,-2.58773,-1.51135,0,0,3.2757,5
1774536094666,0.0764157,0.91748,-0.512696,2.61832,-2.90837,-2.76327,0,0,3.27266,5
1774536094679,0.0773925,0.923828,-0.515869,3.03814,-3.39691,-4.39683,0,0,3.27992,3
1774536094692,0.0639658,0.939208,-0.524658,3.68698,-3.09926,-5.00759,0,0,3.25833,3
1774536094706,0.0617677,0.941406,-0.529052,4.74802,-2.15274,-5.1145,0,0,3.2731,3
1774536094719,0.0456554,0.9292,-0.52002,5.87778,-3.2213,-4.65652,0,0,3.25425,3
1774536094733,0.0407718,0.941894,-0.533446,7.51134,-3.74805,-3.73289,0,0,3.29179,3
1774536094746,0.0546865,0.956786,-0.52002,8.16789,-3.25194,-2.41231,0,0,3.25944,3
1774536094759,0.0385753,0.943604,-0.531982,9.35106,-3.19848,-0.442886,0,0,3.30222,5
1774536094773,0.0327153,0.937256,-0.535156,7.7711,-2.87025,3.12189,0,0,3.26712,5
1774536094786,0.0271,0.948241,-0.532715,13.74,-1.00013,5.8624,0,0,3.25805,5
1774536094800,0.023926,1.00268,-0.553221,16.641,-0.763375,7.77849,0,0,3.27085,5
1774536094813,0.0375967,1.04199,-0.551514,21.3737,-0.213779,9.80902,0,0,3.25485,5
1774536094826,0.0195325,1.09936,-0.563476,20.1528,1.02281,15.7935,0,0,3.37883,5
1774536094840,-0.132069,1.41087,-0.595213,30.2741,5.74776,17.1907,0,0,3.35412,5
1774536094853,-0.0180744,1.35425,-0.562746,52.174,8.09907,29.5946,0,0,3.36792,5
1774536094867,0.134511,1.24952,-0.674553,67.6859,8.1603,46.9682,0,0,3.27718,5
1774536094880,0.0244218,1.31445,-0.634768,78.9458,7.35883,37.4129,0,0,3.26616,5
1774536094894,0.0749476,1.76926,-0.637207,109.57,4.85514,24.9627,0,0,3.28516,5
1774536094907,0.171868,1.44338,-0.560796,131.54,1.23689,28.2059,0,0,3.25818,5
1774536094921,0.14551,1.26368,-0.558838,147.564,-1.2441,20.8478,0,0,3.27918,5
1774536094934,0.203365,1.56858,-0.587156,169.914,-6.28972,19.4657,0,0,3.26272,5
1774536094947,0.347158,1.67626,-0.611571,198.525,-14.9154,15.3514,0,0,3.3357,5
1774536094961,0.377439,1.65698,-0.577883,223.288,-25.2894,8.78672,0,0,3.2979,5
1774536094974,0.293951,1.87425,-0.61572,250.128,-33.2437,1.67225,0,0,3.30564,5
1774536094988,0.404533,2.17185,-0.59424,250.13,-44.4496,-8.71683,0,0,3.27229,5
1774536095001,0.354252,1.91091,-0.639889,250.13,-51.3201,-14.5721,0,0,3.25307,5
1774536095015,0.253181,1.96606,-0.711421,250.13,-53.4731,-19.6103,0,0,3.38007,5
1774536095028,0.298093,1.91162,-0.666263,250.13,-52.5649,-5.35978,0,0,3.2899,5
1774536095041,0.202643,2.10887,-0.885483,250.13,-57.8546,-19.8158,0,0,3.31388,5
1774536095055,0.144779,2.30126,-0.756113,250.13,-42.3599,1.98321,0,0,3.2604,5
1774536095068,0.23266,1.99001,-0.444358,250.13,-38.6949,60.9959,0,0,3.27012,5
1774536095082,0.184085,2.15795,0.14034,250.13,-43.1829,88.3263,0,0,3.27422,5
1774536095095,0.198729,-0.44928,2.50179,250.13,-58.2661,27.3783,0,0,3.24962,5
1774536095108,-0.486036,-3.99975,0.986922,119.314,-60.3968,32.0836,0,0,3.27935,5
1774536095122,-0.44971,0.652751,-0.204995,38.5171,-49.3977,-11.6076,0,0,3.25883,5
1774536095135,-0.312021,0.221222,0.388386,-54.711,-18.5899,-9.71006,0,0,3.29483,3
1774536095148,-0.169932,0.522196,0.0671612,-101.195,-6.34437,8.09036,0,0,3.2632,2
1774536095162,0.00462645,0.681874,-0.0336843,-114.449,-4.93903,11.099,0,0,3.31596,2
1774536095175,-0.134268,0.225862,0.139636,-141.319,-2.54979,14.2975,0,0,3.27544,2
1774536095189,-0.200923,-0.0759066,0.240227,-190.119,1.55696,6.80205,0,0,3.25433,2
1774536095202,-0.11817,-0.128414,0.31518,-250.133,0.961874,-10.7392,0,0,3.27672,2
1774536095215,0.0141509,0.193825,0.288088,-250.137,-4.80876,-16.1905,0,0,3.25857,2
1774536095229,0.0974063,0.630829,0.166268,-250.137,-10.9003,-4.68019,0,0,3.30238,2
1774536095242,0.118651,0.863753,-0.00902093,-250.137,-15.305,15.4108,0,0,3.27668,2
1774536095256,0.0734895,0.91943,-0.138907,-250.137,-15.9007,29.625,0,0,3.27429,2
1774536095269,-0.0251396,1.01342,-0.258781,-250.137,-11.9697,31.5266,0,0,3.2724,2
1774536095282,-0.0307613,1.1018,-0.430652,-250.137,-7.02325,25.321,0,0,3.26227,2
1774536095296,-0.0227056,1.2307,-0.588856,-250.137,-1.13782,18.4585,0,0,3.27716,2
1774536095309,-0.0373525,1.2417,-0.65771,-250.137,7.21316,18.2061,0,0,3.25964,2
1774536095322,-0.111323,1.30737,-0.679442,-250.137,21.5333,21.5189,0,0,3.28142,2
1774536095336,-0.160641,1.41747,-0.741695,-250.137,41.0444,17.5117,0,0,3.25755,2
1774536095349,-0.143312,1.49902,-0.778562,-250.137,61.8764,8.35179,0,0,3.3625,5
1774536095363,-0.0456611,1.56933,-0.756105,-250.137,79.5102,3.43546,0,0,3.36472,5
1774536095376,0.106679,1.61181,-0.769286,-250.137,92.4113,8.20577,0,0,3.38803,5
1774536095390,0.231925,1.65185,-0.848383,-250.137,97.7248,10.6487,0,0,3.27485,5
1774536095403,0.322015,1.67798,-0.975821,-250.137,95.8475,17.3049,0,0,3.25773,5
1774536095417,0.448722,1.64258,-1.10058,-250.137,85.8786,28.1366,0,0,3.27588,5
1774536095430,0.46411,1.60742,-1.24267,-250.137,69.8866,40.1976,0,0,3.26044,5
1774536095443,0.414066,1.71777,-1.4492,-250.137,48.9099,47.5262,0,0,3.28994,5
1774536095457,0.428954,0.555013,-0.918738,-222.025,25.0322,39.4738,0,0,3.26446,5
1774536095470,0.33155,2.4984,-1.67915,-222.985,3.47479,36.2521,0,0,3.2742,5
1774536095484,0.213631,1.83452,-2.00486,-181.667,-11.3196,46.61,0,0,3.26873,5
1774536095497,0.175784,1.09038,-2.07202,-146.422,-33.1053,63.9301,0,0,3.2477,5
1774536095510,-0.133767,1.03565,-2.32103,-101.644,-49.1439,55.7487,0,0,3.27653,5
1774536095524,-0.464821,0.877941,-2.39453,-52.0722,-51.6181,25.8418,0,0,3.25498,5
1774536095540,-0.466553,0.841799,-2.3169,13.4687,-35.9935,-33.0875,0,0,3.32244,5
1774536095553,1.45006,1.79119,-1.67021,250.113,-99.9879,-28.0843,0,0,3.28246,5
1774536095566,0.9058,2.1699,-0.0552888,214.178,-130.601,-84.4159,0,0,3.28718,5
1774536095580,0.201465,0.10366,0.209454,243.685,-86.9191,-64.9861,0,0,3.2749,5
1774536095593,-0.146704,0.953554,-0.0485659,250.129,-23.8517,-61.9162,0,0,3.28712,5
1774536095607,-0.0300375,1.14086,-0.349832,250.13,-13.1458,-57.4812,0,0,3.26686,5
1774536095620,0.0900795,1.05494,-0.399411,229.169,-5.31353,-51.9851,0,0,3.25229,3
1774536095633,0.0393102,0.81862,-0.578357,191.659,-19.0143,-36.9476,0,0,3.28057,3
1774536095647,-0.140124,0.728278,-0.634029,152.056,-16.1605,-14.3069,0,0,3.25603,3
1774536095660,-0.16577,0.758055,-0.68652,118.125,-1.23769,-0.375021,0,0,3.29503,3
1774536095674,0.0295273,0.691655,-0.960918,85.01,11.8617,-1.45031,0,0,3.26844,3
1774536095687,-0.0690849,0.947004,-0.580593,54.4373,8.42009,4.15991,0,0,3.26194,3
1774536095700,-0.0778802,0.804697,-0.456063,42.4436,13.7706,20.0523,0,0,3.27477,3
1774536095714,-0.00830565,0.88891,-0.479979,38.5881,14.3358,27.6941,0,0,3.26151,3
1774536095727,0.108634,0.731945,-0.589348,29.0846,14.1908,22.1225,0,0,3.28659,3
1774536095740,0.134276,0.710939,-0.524174,12.4286,8.96983,12.4358,0,0,3.2584,3
1774536095754,0.122071,0.928207,-0.495363,9.33609,9.9694,9.69485,0,0,3.30949,3
1774536095767,0.0966815,0.869633,-0.499511,6.74064,8.9619,8.05355,0,0,3.2572,3
1774536095781,0.0947267,0.898191,-0.500732,3.7941,5.26743,4.00028,0,0,3.3132,5
1774536095794,0.0937501,0.909179,-0.496094,1.7635,1.87047,0.702521,0,0,3.28694,5
1774536095807,0.097656,0.93701,-0.509521,1.99998,-1.24406,-0.831954,0,0,3.26161,5
1774536095821,0.093262,0.947021,-0.507813,0.732913,-4.2517,-3.80895,0,0,3.2759,5
1774536095834,0.0480989,0.952392,-0.497803,1.99228,-5.3816,-3.93129,0,0,3.26242,5
1774536095848,0.0192891,0.963134,-0.502197,3.32052,-4.49625,-1.77878,0,0,3.30649,5
1774536095861,0.0371081,0.957032,-0.512206,5.61053,-1.47349,0.0609399,0,0,3.26038,5
1774536095876,0.0424801,0.96289,-0.51416,6.88541,0.992194,1.70218,0,0,3.32209,5
1774536095891,0.041504,0.940187,-0.506592,7.81673,2.31288,2.16027,0,0,4.26503,5
1774536095905,0.051513,0.910158,-0.509521,7.40461,2.55723,1.15274,0,0,3.58775,5
1774536095919,0.0808085,0.909424,-0.50293,6.29015,1.2978,-0.839555,0,0,3.27205,5
1774536095932,0.0978992,0.899659,-0.516845,4.69477,-0.274699,-2.25181,0,0,3.66379,5
1774536095946,0.0771499,0.922362,-0.50464,4.24431,-2.09911,-3.65639,0,0,3.27694,5
1774536095959,0.0693365,0.904298,-0.511474,2.58027,-4.02277,-4.62589,0,0,3.24444,5
1774536095973,0.0668947,0.904297,-0.501954,1.93898,-4.81674,-6.09913,0,0,3.44677,5
1774536095986,0.0649415,0.891847,-0.504883,1.40462,-5.41217,-7.40449,0,0,3.25624,5
1774536095999,0.0466321,0.917235,-0.50708,1.16796,-5.55724,-8.64113,0,0,3.33812,5
1774536096013,0.0539546,0.898439,-0.516113,0.755754,-4.83974,-8.93891,0,0,3.26723,5
1774536096027,0.0563963,0.897705,-0.512696,0.473302,-3.97716,-9.93123,0,0,3.74762,5
1774536096040,0.0576171,0.894776,-0.496339,-0.847236,-5.10679,-11.6182,0,0,3.26546,5
1774536096053,0.0515141,0.89624,-0.509276,-1.6946,-6.35106,-12.6946,0,0,3.28259,5
1774536096067,0.0158716,0.952145,-0.519286,-1.03821,-5.65654,-12.4504,0,0,3.28064,5
1774536096080,0.0151368,0.983396,-0.498537,1.42731,-5.09164,-11.5191,0,0,3.27716,3
1774536096094,0.0241693,0.958254,-0.508788,4.40437,-4.91604,-10.9237,0,0,3.2969,3
1774536096107,0.000978186,0.943605,-0.509521,5.10682,-4.47331,-8.60322,0,0,3.25525,3
1774536096120,-0.00292941,0.942627,-0.51001,5.52669,-3.42755,-5.87805,0,0,3.28062,3
1774536096134,-0.0156241,0.946777,-0.517333,6.63351,-2.41992,-2.65671,0,0,3.26824,3
1774536096148,-0.0263664,0.947998,-0.519531,6.55726,-0.473419,2.46529,0,0,3.59261,3
1774536096161,-0.00561669,0.947266,-0.544432,7.46559,0.954099,6.43484,0,0,3.27786,3
1774536096174,-0.000976887,0.938477,-0.52881,7.61068,2.7098,9.74786,0,0,3.29029,3
1774536096188,0.0214828,0.928712,-0.527588,8.70985,3.03051,10.4122,0,0,3.28946,3
1774536096201,0.0390613,0.921143,-0.518555,8.3817,2.83207,9.72524,0,0,3.25733,3
1774536096215,0.0849577,0.930175,-0.524902,9.90066,0.343686,6.31322,0,0,3.34627,3
1774536096228,0.0380892,0.950682,-0.517579,10.3435,-0.33583,6.18322,0,0,3.27223,3
1774536096242,0.000246789,0.948486,-0.529296,10.2672,0.305299,8.93111,0,0,3.67279,3
1774536096255,0.00659135,0.912844,-0.526367,9.35884,0.977052,11.7097,0,0,3.27603,5
1774536096269,0.0654256,0.978267,-0.5354,8.6489,-0.12206,12.8625,0,0,3.24675,5
1774536096282,0.093748,0.998778,-0.579099,18.7703,-0.366395,12.3588,0,0,3.2877,5
1774536096295,0.0153863,1.00269,-0.554933,22.8699,-0.664101,14.1067,0,0,3.26809,5
1774536096309,0.0585907,1.19164,-0.573973,27.6791,-1.33583,19.5569,0,0,3.3969,5
1774536096322,0.0107455,1.45897,-0.66015,46.4643,-0.198553,31.5946,0,0,3.27046,5
1774536096336,0.272931,1.19216,-0.607181,72.6699,4.82408,52.1436,0,0,3.77768,5
1774536096350,0.0268727,1.2434,-0.625487,74.0839,5.91595,45.7562,0,0,3.27429,5
1774536096363,0.0280761,1.84395,-0.606447,105.227,4.02303,25.6732,0,0,3.26642,5
1774536096377,0.134758,1.51467,-0.60376,130.96,1.44293,31.7324,0,0,3.61966,5
1774536096390,0.139892,1.28859,-0.550541,149.609,-2.84703,19.1841,0,0,3.34266,5
1774536096404,0.290273,1.41357,-0.601315,168.411,-9.8621,14.5881,0,0,3.32157,5
1774536096417,0.412101,1.58934,-0.565432,194.96,-20.9534,8.13022,0,0,3.31135,5
1774536096431,0.4021,1.75097,-0.602781,226.494,-31.2054,-1.38865,0,0,3.31401,5
1774536096444,0.250499,1.87401,-0.622313,250.128,-41.6023,-5.89281,0,0,3.27612,5
1774536096458,0.160651,2.03075,-0.592531,250.13,-45.7325,-11.0531,0,0,3.57177,5
1774536096471,0.240229,2.15185,-0.583985,250.13,-46.7175,-6.60336,0,0,3.27735,5
1774536096484,-0.0102364,1.78567,-0.662348,250.13,-42.9545,5.20528,0,0,3.2752,5
1774536096498,0.217269,1.7915,-0.597661,250.13,-40.0307,0.618642,0,0,3.29801,5
1774536096511,0.110359,1.92333,-0.802476,250.13,-45.1828,-19.6551,0,0,3.25185,5
1774536096525,0.310533,1.96533,-0.589126,250.13,-39.5424,-19.3054,0,0,3.26931,5
1774536096538,0.225104,2.00366,-0.413098,250.13,-40.9541,20.2644,0,0,3.27151,5
1774536096552,0.250731,2.09106,0.015595,250.13,-47.2973,28.8086,0,0,3.67446,5
1774536096565,0.147712,1.57474,1.10661,250.13,-63.8767,-28.912,0,0,3.27922,5
1774536096578,0.281973,-3.54871,1.33324,250.13,-81.1896,-95.5908,0,0,3.28523,3
1774536096592,0.0691067,0.514364,-0.0357928,114.758,-81.1298,-93.0307,0,0,3.38522,3
1774536096605,0.00879328,-0.441828,0.244365,8.02274,-51.0861,-51.6823,0,0,3.2552,3
1774536096619,0.0900822,-0.422609,0.378653,-86.856,-31.5052,31.0095,0,0,3.30638,3
1774536096632,0.160884,-0.170672,0.253427,-164.788,-5.89492,93.2094,0,0,3.25431,3
1774536096646,0.0109968,-0.455058,0.504621,-250.131,9.73936,120.876,0,0,3.31172,3
1774536096659,-0.216781,-0.0444623,0.517821,-250.137,29.1589,109.367,0,0,3.27807,3
1774536096672,-0.192873,0.434293,0.468021,-250.137,40.877,71.3538,0,0,3.25309,3
1774536096686,-0.0254023,0.860322,0.299328,-250.137,42.8854,44.6355,0,0,3.28235,3
1774536096699,0.0402786,1.21433,0.0193067,-250.137,39.0613,39.0462,0,0,3.26235,3
1774536096712,0.110347,1.29345,-0.157214,-250.137,33.6111,50.4267,0,0,3.2992,3
1774536096726,0.204339,1.14967,-0.19531,-250.137,24.535,66.5409,0,0,3.26144,3
1774536096739,0.215331,1.09717,-0.236325,-250.137,11.2452,69.4349,0,0,3.38007,3
1774536096753,0.165531,1.17504,-0.276364,-250.137,-2.83108,62.7562,0,0,3.28451,5
1774536096767,0.135988,1.26952,-0.355219,-250.137,-14.6633,56.7103,0,0,3.59486,5
1774536096780,-0.0224498,1.4829,-0.490225,-250.137,-20.137,54.7482,0,0,3.27779,5
1774536096794,-0.272443,1.60668,-0.633291,-250.137,-12.2448,45.5045,0,0,3.30924,5
1774536096807,-0.446521,1.57764,-0.69189,-250.137,8.01385,27.7035,0,0,3.29723,5
1774536096820,-0.462645,1.69872,-0.76977,-250.137,34.8302,6.37554,0,0,3.26088,5
1774536096834,-0.353279,1.87426,-0.884513,-250.137,60.9829,-8.61727,0,0,3.27816,5
1774536096847,-0.159682,1.83667,-0.981683,-250.137,84.5709,-12.7936,0,0,3.26305,5
1774536096861,-0.000499423,1.64699,-1.0891,-250.137,105.266,-4.91658,0,0,3.65775,5
1774536096874,0.172351,1.53297,-1.2473,-250.137,119.503,8.14412,0,0,3.28253,5
1774536096888,0.361315,1.63818,-1.47313,-250.137,123.755,19.6328,0,0,3.26727,5
1774536096901,0.387205,1.73608,-1.78001,-243.184,120.87,39.3727,0,0,3.2789,5
1774536096914,0.288581,1.73462,-1.97728,-199.286,114.619,54.2967,0,0,3.28309,5
1774536096928,0.164559,1.43825,-2.00561,-159.232,102.054,40.2376,0,0,3.29318,5
1774536096941,0.18579,1.07376,-2.01269,-130.849,81.1694,-1.3177,0,0,3.48388,5
1774536096955,0.409652,0.929942,-2.04394,-102.445,50.7808,-34.7458,0,0,3.60773,5
1774536096968,0.601793,0.739515,-2.12255,-77.8262,18.1931,-28.0539,0,0,3.2772,5
1774536096982,0.579591,0.733155,-2.20483,-48.0097,-11.1964,-3.5208,0,0,3.26674,5
1774536096995,0.290303,0.790035,-2.18262,-9.13249,-30.7696,7.25879,0,0,3.28286,5
1774536097009,2.65242,3.99965,-3.99987,13.5099,-104.537,-132.219,0,0,3.31622,5
1774536097022,-0.0559628,-3.39987,1.3031,210.643,-64.8654,-92.6135,0,0,3.29155,5
1774536097036,-1.19352,2.75714,-0.099023,250.127,-52.0009,-62.1014,0,0,3.25377,5
1774536097049,-0.456595,2.09184,-0.0896003,231.368,-12.0715,-42.0472,0,0,3.30401,5
1774536097062,-0.019806,0.893394,-0.313949,227.611,-4.58831,-30.3596,0,0,3.26374,5
1774536097076,-0.050535,0.56057,-0.385249,210.818,-3.24437,-19.2832,0,0,3.56101,5
1774536097090,-0.0253924,0.636713,-0.518057,178.613,-6.92341,-12.344,0,0,3.57425,3
1774536097103,-0.0449205,0.870345,-0.516358,149.223,-7.15266,-1.26795,0,0,3.31316,3
1774536097117,-0.125239,0.803227,-0.608636,117.804,1.64824,9.5107,0,0,3.30787,3
1774536097130,-0.00415887,0.784425,-0.571292,88.4524,9.04528,13.1295,0,0,3.29855,3
1774536097144,0.0458949,0.563492,-0.54883,50.392,10.2213,13.3435,0,0,3.34155,3
1774536097157,-0.030024,0.830548,-0.52466,43.2066,13.1067,17.5875,0,0,3.29455,2
1774536097171,0.0532168,0.887447,-0.477298,36.8859,14.3434,22.8928,0,0,4.01829,2
1774536097185,0.0766585,0.825932,-0.479736,33.7025,13.9313,23.2977,0,0,3.30061,2
1774536097198,0.171136,0.7544,-0.581292,23.016,9.43543,13.5198,0,0,3.3055,2
1774536097211,0.132327,0.845208,-0.513432,10.6803,6.06894,5.64177,0,0,3.3291,2
1774536097225,0.12085,0.844971,-0.517578,10.2138,3.93908,0.290451,0,0,3.31862,5
1774536097238,0.0805692,0.881345,-0.49756,2.81731,1.72535,-0.106842,0,0,3.34033,5
1774536097252,0.119138,0.899657,-0.49292,1.04593,-1.53412,-3.19826,0,0,3.27955,5
1774536097265,0.082278,0.953854,-0.491455,-1.37388,-2.16789,-2.83972,0,0,3.36072,5
1774536097279,0.0678721,0.918704,-0.485596,-1.88546,-2.11451,-1.76343,0,0,3.29038,5
1774536097293,0.0544443,0.9873,-0.490478,-1.04586,-1.36646,0.152538,0,0,4.04186,5
1774536097306,0.0383312,0.95801,-0.493408,0.870095,0.144932,2.70974,0,0,3.29949,5
1774536097320,0.030274,0.955811,-0.489014,0.618338,2.01514,6.68674,0,0,3.29196,5
1774536097333,-0.00878633,0.966552,-0.599113,2.12203,3.02283,9.2212,0,0,3.29073,5
1774536097347,0.0144027,0.949464,-0.517584,3.06864,4.61058,9.73279,0,0,3.25246,5
1774536097360,0.0998475,0.929689,-0.478274,4.96933,1.6338,8.70236,0,0,3.35353,5
1774536097373,0.103027,0.974118,-0.47876,4.48858,2.26713,7.89319,0,0,3.26296,5
1774536097387,0.096436,0.922855,-0.487792,3.77868,-0.373861,6.35889,0,0,3.76216,5
1774536097401,0.0976562,0.958738,-0.490234,5.2976,-1.60297,5.46571,0,0,3.27611,5
1774536097414,0.0993651,0.93506,-0.486084,5.54197,-2.75564,3.65662,0,0,3.25679,5
1774536097428,0.104248,0.921632,-0.490966,5.0611,-3.99228,1.63373,0,0,3.28231,5
1774536097441,0.108886,0.935058,-0.485108,6.22893,-4.42745,-1.22881,0,0,3.31485,5
1774536097455,0.0954599,0.90674,-0.487549,6.26717,-4.64121,-3.09911,0,0,3.40268,5
1774536097468,0.095459,0.920165,-0.495361,5.90079,-4.07638,-5.02277,0,0,3.2834,5
1774536097482,0.104003,0.908936,-0.496094,5.7939,-3.76338,-7.71737,0,0,3.31379,5
1774536097495,0.10376,0.923339,-0.503173,6.02288,-3.59543,-9.58766,0,0,3.31814,5
1774536097509,0.0954596,0.937011,-0.500733,6.1145,-3.52672,-11.7174,0,0,3.5901,5
1774536097522,0.0771497,0.925782,-0.50293,5.58019,-4.13736,-12.1755,0,0,3.27592,5
1774536097535,0.0729983,0.930908,-0.487794,6.22133,-4.52669,-13.0915,0,0,3.25031,5
1774536097549,0.0424826,0.930176,-0.503173,6.37404,-5.8854,-13.2519,0,0,3.30251,5
1774536097562,0.0620104,0.957029,-0.492677,7.01522,-6.41981,-12.542,0,0,3.2574,5
1774536097576,0.0468761,0.921145,-0.514403,7.57248,-6.44275,-11.2367,0,0,3.27307,5
1774536097589,0.0227068,0.920166,-0.504395,7.72518,-5.54205,-8.8475,0,0,3.26259,3
1774536097603,0.0295405,0.933593,-0.516601,7.96182,-4.51916,-5.49642,0,0,3.67857,3
1774536097616,0.000978562,0.930908,-0.515137,7.54201,-2.67952,-1.25221,0,0,3.28255,3
1774536097630,0.00634728,0.927002,-0.524169,6.96951,-1.14515,2.61805,0,0,3.27612,3
1774536097643,0.00732415,0.913575,-0.518555,7.79384,-0.801551,5.19066,0,0,3.3667,3
1774536097656,0.0710405,0.942137,-0.510499,6.25965,-0.862591,6.2671,0,0,3.25472,3
1774536097670,0.0290557,1.07787,-0.51831,12.0607,-0.801531,6.02292,0,0,3.29529,3
1774536097683,0.0681125,0.995611,-0.526611,13.7632,-2.3205,5.20616,0,0,3.25486,3
1774536097697,0.0864245,0.982911,-0.511232,17.099,-3.6564,3.90849,0,0,3.37475,3
1774536097710,0.0900876,0.942874,-0.520019,17.4198,-4.90831,8.74775,0,0,3.26979,3
1774536097723,0.148678,1.06298,-0.535888,24.5415,-8.25167,12.9768,0,0,3.24948,3
1774536097737,0.044685,1.27367,-0.57324,40.892,-5.12999,14.0457,0,0,3.27707,3
1774536097750,-0.264139,1.25879,-0.486578,48.5033,-1.61857,5.97003,0,0,3.25248,3
1774536097763,0.121555,1.13819,-0.637441,58.6939,-0.54206,39.4328,0,0,3.28561,3
1774536097777,-0.074205,1.35252,-0.675046,73.0601,0.152623,31.9776,0,0,3.29046,3
1774536097790,-0.00220231,1.74851,-0.643801,100.052,0.656453,21.6572,0,0,3.3024,3
1774536097804,0.0322242,1.36038,-0.572027,118.564,1.85488,26.389,0,0,3.28079,5
1774536097817,0.0617655,1.2959,-0.558595,137.754,2.43507,20.9469,0,0,3.59568,5
1774536097831,0.219227,1.19288,-0.533693,154.235,-2.13708,15.5424,0,0,3.2809,5
1774536097844,0.240477,1.39574,-0.568601,169.663,-6.92333,9.30578,0,0,3.24766,5
1774536097857,0.279538,1.73582,-0.625728,196.777,-12.908,9.44274,0,0,3.29288,5
1774536097871,0.248293,2.03025,-0.625244,230.517,-19.4652,11.4579,0,0,3.25605,5
1774536097884,0.339593,2.25194,-0.610108,250.128,-29.1825,7.54989,0,0,3.27548,5
1774536097898,0.267583,2.41356,-0.646726,250.13,-35.7095,6.05354,0,0,3.27157,5
1774536097911,0.230227,2.00247,-0.651855,250.13,-39.5722,4.05358,0,0,3.68449,5
1774536097925,0.112801,2.10326,-0.934306,250.13,-37.8093,7.33565,0,0,3.27242,5
1774536097938,0.299059,1.40093,-0.696306,250.13,-39.9159,16.4192,0,0,3.24585,5
1774536097952,0.00978587,2.25018,-0.810295,250.13,-33.8936,-10.9752,0,0,3.28735,5
1774536097965,0.25926,1.86526,-0.399687,250.13,-28.4355,26.6997,0,0,3.27735,5
1774536097978,0.259033,2.24314,-0.0571529,250.13,-32.3203,68.3482,0,0,3.32273,5
1774536097992,0.11793,2.14649,0.486778,250.13,-38.2362,80.4037,0,0,3.28127,5
1774536098006,0.708211,-0.813514,1.61662,250.13,-57.7009,9.92096,0,0,3.77299,5
1774536098019,-0.147889,-3.3426,0.56233,84.8894,-63.9843,20.4191,0,0,3.27288,5
1774536098033,-0.345933,-1.68664,0.266134,-17.9012,-31.5977,-10.0895,0,0,3.2477,5
1774536098046,-0.271001,-0.542805,0.611304,-131.946,-6.65823,-18.6635,0,0,3.27746,3
1774536098059,-0.0393229,0.400813,0.220975,-190.965,10.3958,-18.3893,0,0,3.25903,3
1774536098073,0.124256,0.281502,0.220947,-227.746,3.56536,-21.9921,0,0,3.29079,3
1774536098086,0.0615278,0.0952279,0.405993,-250.136,2.00774,-5.94005,0,0,3.2602,3
1774536098100,0.0739737,0.385966,0.30738,-250.137,4.49601,9.48747,0,0,3.30398,2
1774536098113,0.134273,0.49633,0.257328,-250.137,3.41229,11.0991,0,0,3.28929,2
1774536098127,0.132324,0.624503,0.204349,-250.137,-3.26671,8.77116,0,0,3.61464,3
1774536098140,0.12085,0.852523,0.0805751,-250.137,-10.946,8.64886,0,0,3.27364,2
1774536098154,0.167721,0.952141,-0.000970855,-250.137,-14.9234,14.5721,0,0,3.25781,2
1774536098167,0.180907,1.05615,-0.128897,-250.137,-19.2363,23.2055,0,0,3.27785,2
1774536098181,0.119877,1.1582,-0.24755,-250.137,-20.7251,29.5186,0,0,3.25788,3
1774536098194,0.0896017,1.31005,-0.384268,-250.137,-20.5038,32.7631,0,0,3.3401,3
1774536098208,-0.0117117,1.46605,-0.575914,-250.137,-14.9317,37.4043,0,0,3.69085,3
1774536098222,-0.18822,1.53564,-0.707266,-250.137,-0.909378,30.6951,0,0,3.81668,3
1774536098236,-0.367663,1.50659,-0.747312,-250.137,22.235,13.2226,0,0,3.27114,3
1774536098249,-0.372558,1.5769,-0.759521,-250.137,51.8758,-5.22008,0,0,3.26003,1
1774536098262,-0.232676,1.7119,-0.761963,-250.137,79.54,-17.106,0,0,3.28242,1
1774536098276,-0.0786241,1.81518,-0.784666,-250.137,102.029,-16.1451,0,0,3.25922,1
1774536098289,0.123277,1.86743,-0.817625,-250.137,114.304,-13.3513,0,0,3.30696,1
1774536098303,0.253897,1.88476,-0.865231,-250.137,115.794,-10.5498,0,0,3.26294,5
1774536098316,0.367912,1.86865,-0.943842,-250.137,108.336,-10.0687,0,0,3.32901,5
1774536098330,0.253914,3.84483,-1.66597,-116.361,105.596,-23.3731,0,0,3.27092,5
1774536098343,0.977244,1.86366,-1.8286,-250.128,67.4454,-12.7717,0,0,3.58722,5
1774536098357,1.01513,2.15379,-1.68751,-242.932,59.6723,12.3265,0,0,3.27818,5
1774536098370,1.05224,1.81887,-1.60377,-169.509,33.1698,65.0421,0,0,3.26064,5
1774536098384,0.665554,1.11113,-1.5459,-144.132,11.887,109.165,0,0,3.2816,5
1774536098397,0.0569274,0.973642,-1.56738,-128.635,6.62632,124.655,0,0,3.26388,5
1774536098411,-0.431851,1.08031,-1.68969,-101.269,10.5341,101.399,0,0,3.56424,5
1774536098424,-0.602527,1.04834,-1.79491,-53.5988,10.9847,35.6764,0,0,3.26916,5
1774536098438,-0.292502,0.781025,-1.74683,-9.90382,2.13039,-24.5683,0,0,3.77627,5
1774536098452,0.227747,0.832272,-1.70118,26.7837,-9.24348,-22.565,0,0,3.27548,5
1774536098465,0.381337,0.823487,-1.55567,56.8758,-24.9684,0.341908,0,0,3.27079,5
1774536098478,0.188246,0.855222,-1.4048,79.7312,-37.19,-2.73261,0,0,3.28503,5
1774536098492,2.55086,3.99966,-1.12966,35.4611,-96.2936,-141.937,0,0,3.30336,5
1774536098505,1.43196,-3.55636,1.15218,225.002,-40.3627,-120.314,0,0,3.28977,5
1774536098519,-0.529404,3.94918,0.314024,250.128,-45.7095,-136.167,0,0,3.31679,5
1774536098532,-0.698719,1.67789,-0.202601,250.13,-4.20901,-76.2027,0,0,3.30705,5
1774536098546,-0.197789,0.770083,-0.204101,250.13,18.2198,-43.0863,0,0,3.26205,3
1774536098560,0.0256191,0.64869,-0.254391,239.886,19.0076,-33.1228,0,0,3.58942,3
1774536098573,0.0371086,0.731195,-0.506086,211.849,5.13074,-17.1462,0,0,3.26586,3
1774536098586,-0.156481,0.84423,-0.579096,172.842,6.80904,15.0512,0,0,3.27985,3
1774536098600,-0.0351647,0.842529,-0.565187,140.056,4.0002,27.2205,0,0,3.27292,3
1774536098613,0.00829774,0.763189,-0.61816,108.384,8.38137,31.6485,0,0,3.28668,3
1774536098627,0.0964294,0.580823,-0.710687,75.3764,13.6256,27.901,0,0,3.27546,3
1774536098640,0.00122737,0.828352,-0.609382,52.5283,18.4424,28.832,0,0,3.24053,3
1774536098654,0.0534631,0.870114,-0.510505,43.6953,20.1373,29.4045,0,0,3.7541,3
1774536098668,0.120845,0.8999,-0.488527,41.5956,17.0537,24.5423,0,0,3.30418,3
1774536098681,0.289051,0.765634,-0.527829,33.7181,9.25245,7.17679,0,0,3.28079,3
1774536098694,0.210699,0.788817,-0.563718,22.4893,2.59589,-5.66322,0,0,3.29401,5
1774536098708,0.108406,0.854488,-0.518558,12.2221,-2.96908,-13.9155,0,0,3.27477,5
1774536098721,0.0832537,0.885496,-0.516358,11.9771,-6.33564,-13.7405,0,0,3.28492,5
1774536098735,0.0158739,0.906981,-0.521484,7.80182,-5.40465,-8.62631,0,0,3.27925,5
1774536098748,0.0363755,0.943845,-0.514649,9.5266,-4.29779,-3.71027,0,0,3.28688,5
1774536098762,0.0239267,0.964842,-0.541502,9.38169,-0.992598,0.640917,0,0,3.30238,5
1774536098775,0.0436998,0.940187,-0.520998,9.25192,1.89293,3.90817,0,0,3.60499,5
1774536098789,0.084958,0.919191,-0.516114,10.7327,2.94649,2.31309,0,0,3.29768,5
1774536098802,0.0947259,0.919922,-0.525634,9.87792,2.99236,0.565008,0,0,3.26757,5
1774536098816,0.117674,0.936034,-0.510499,9.94656,1.43522,-3.86992,0,0,3.49384,5
1774536098829,0.119141,0.894534,-0.524657,9.20616,-1.92343,-9.23627,0,0,3.26331,5
1774536098843,0.128417,0.897461,-0.501466,7.79399,-4.90055,-13.9233,0,0,3.29827,5
1774536098856,0.096926,0.900879,-0.520018,7.42751,-7.24411,-16.0304,0,0,3.26729,5
1774536098870,0.0573758,0.92993,-0.514649,7.96179,-7.21374,-16.8244,0,0,3.80349,5
1774536098884,0.0419933,0.920655,-0.521484,8.49615,-6.50387,-15.8092,0,0,3.26805,5
1774536098897,0.0371097,0.918213,-0.523193,8.58015,-5.22146,-13.4505,0,0,3.2604,5
1774536098910,0.0239267,0.941893,-0.536376,10.4121,-3.33601,-11.2597,0,0,3.27894,5
1774536098924,-0.00268368,0.89722,-0.528809,8.32076,-3.41984,-8.34372,0,0,3.27918,5
1774536098937,0.012206,0.903564,-0.529785,9.05338,-2.19093,-6.66424,0,0,3.29183,5
1774536098951,0.0163571,0.913085,-0.532471,8.10694,-3.25947,-5.09935,0,0,3.25829,5
1774536098964,0.037352,0.896486,-0.551268,6.61842,-3.16795,-3.83978,0,0,3.31044,5
1774536098978,0.0283209,0.902099,-0.537354,6.16797,-3.07634,-2.48101,0,0,3.26909,5
1774536098991,0.0285644,0.906738,-0.540771,6.07634,-2.89314,-1.40466,0,0,3.5704,5
1774536099005,0.0290527,0.902588,-0.536621,5.52676,-2.62597,0.0151678,0,0,3.28629,5
1774536099018,0.0205084,0.898682,-0.547851,4.81684,-2.36643,1.59531,0,0,3.72346,5
1774536099032,0.0156253,0.893799,-0.548096,4.20615,-2.19085,3.0228,0,0,3.29585,3
1774536099045,0.0344225,0.91992,-0.547363,3.71759,-2.09161,4.72507,0,0,3.26461,3
1774536099059,0.0107438,0.917481,-0.538087,6.00747,-1.01534,7.16013,0,0,3.35053,3
1774536099072,-0.00952007,0.926757,-0.553222,5.84734,-0.0153372,9.96164,0,0,3.27301,3
1774536099086,-0.0200188,0.902345,-0.57202,4.22149,2.19069,14.8623,0,0,3.76694,3
1774536099100,-0.0207519,0.941404,-0.547853,4.74042,4.44259,17.0533,0,0,3.27024,3
1774536099113,0.0356406,0.927247,-0.548584,7.16777,4.11453,18.0839,0,0,3.25373,3
1774536099126,0.0441889,0.945799,-0.55664,11.473,4.12977,17.1985,0,0,3.28161,5
1774536099140,0.0834933,1.05737,-0.577147,13.7403,3.76338,14.9696,0,0,3.25574,5
1774536099153,0.00562069,0.998783,-0.589599,20.0606,4.91595,21.4118,0,0,3.2967,5
1774536099167,0.175769,1.08007,-0.59375,31.5106,3.0383,19.3437,0,0,3.2637,5
1774536099180,0.124271,1.1748,-0.494636,42.2893,4.36632,33.0067,0,0,3.33699,5
1774536099194,0.111817,1.32079,-0.598381,53.2893,1.83224,34.1679,0,0,3.28996,5
1774536099207,0.167477,1.37158,-0.651852,67.686,-5.38117,25.3518,0,0,3.59722,5
1774536099221,0.0947317,1.67698,-0.659423,100.074,-6.62587,14.413,0,0,3.35464,5
1774536099234,0.152584,1.35696,-0.589604,115.739,-9.24409,15.977,0,0,3.25622,5
1774536099247,0.0109962,1.42529,-0.623533,136.319,-8.24434,14.4123,0,0,3.29816,5
1774536099261,0.207262,1.41846,-0.596926,158.006,-9.93881,7.51193,0,0,3.25753,5
1774536099274,0.269039,1.43188,-0.630369,173.984,-16.5873,1.66453,0,0,3.27857,5
1774536099288,0.345942,1.66624,-0.621583,198.464,-25.7398,-4.38126,0,0,3.26975,5
1774536099301,0.374754,2.18209,-0.663083,234.7,-36.755,-9.29737,0,0,3.65772,5
1774536099315,0.215831,2.26,-0.670166,250.129,-42.3279,-9.65646,0,0,3.27196,5
1774536099328,0.226806,2.1709,-0.641848,250.13,-46.5799,-5.09192,0,0,3.27792,5
1774536099342,0.194338,1.96657,-0.713618,250.13,-47.1984,6.5488,0,0,3.28653,5
1774536099355,0.25317,1.84718,-0.63233,250.13,-49.2518,11.3279,0,0,3.26181,5
1774536099369,-0.0553983,2.16917,-0.948952,250.13,-47.5803,-8.56349,0,0,3.32225,5
1774536099382,0.230937,2.13599,-0.712907,250.13,-39.2143,5.12118,0,0,3.26283,5
1774536099396,0.314691,2.28954,-0.289092,250.13,-40.5419,42.0356,0,0,3.59075,3
1774536099409,0.310791,2.01052,1.23012,250.13,-53.3884,10.0099,0,0,3.26936,3
1774536099422,0.658179,-2.55705,2.12836,250.13,-76.4717,-62.8804,0,0,3.2816,3
1774536099436,-0.009963,-0.426907,-0.100918,55.3113,-50.2461,18.8645,0,0,3.2844,3
1774536099449,-0.267804,-0.418213,0.112778,-19.9489,-7.5984,23.2058,0,0,3.25385,3
1774536099463,-0.00831894,0.0544103,0.387676,-86.3618,2.85423,34.7091,0,0,3.28112,3
1774536099476,0.0747012,0.785593,-0.177451,-92.5797,8.84691,30.5957,0,0,3.26957,3
1774536099489,0.00439945,0.334748,-0.0254013,-99.1598,9.87779,27.3437,0,0,3.32577,3
1774536099503,-0.0851988,0.0334684,0.135975,-135.059,13.9234,24.6719,0,0,3.26744,3
1774536099517,-0.101805,0.00195533,0.193844,-176.921,21.3354,11.3139,0,0,3.61616,3
1774536099530,-0.0888681,-0.119865,0.302483,-232.469,24.3891,-3.44935,0,0,3.30799,3
1774536099543,0.0134206,0.145733,0.340085,-250.136,24.0535,-9.03014,0,0,3.29577,2
1774536099557,0.116692,0.581024,0.238777,-250.137,20.527,-4.33621,0,0,3.31879,2
1774536099570,0.206537,0.858623,0.103037,-250.137,16.4965,12.4492,0,0,3.26703,2
1774536099584,0.243161,0.866943,0.0197812,-250.137,11.3744,32.8917,0,0,3.36433,2
1774536099597,0.206057,1.04174,-0.102042,-250.137,3.35934,43.7244,0,0,3.27272,2
1774536099611,0.131841,1.16161,-0.300279,-250.137,-5.06811,39.0614,0,0,3.8066,5
1774536099625,0.0102624,1.31029,-0.446767,-250.137,-11.9003,24.7873,0,0,3.28362,5
1774536099638,-0.0834895,1.38037,-0.559074,-250.137,-11.9389,15.9701,0,0,3.27281,5
1774536099652,-0.13403,1.4519,-0.637202,-250.137,-6.30574,15.5267,0,0,3.28062,5
1774536099665,-0.235833,1.51611,-0.693844,-250.137,7.23569,13.8093,0,0,3.26823,5
1774536099678,-0.319818,1.5664,-0.718016,-250.137,27.1131,6.80202,0,0,3.29005,5
1774536099692,-0.304444,1.67236,-0.750242,-250.137,48.9298,-6.41892,0,0,3.26135,5
1774536099706,-0.172128,1.7373,-0.742188,-250.137,67.0293,-18.8312,0,0,3.84151,5
1774536099719,0.0846988,1.73169,-0.737061,-250.137,79.0221,-20.2976,0,0,3.27727,5
1774536099733,0.300278,1.73462,-0.784665,-250.137,83.5188,-5.64225,0,0,3.62773,5
1774536099746,0.407219,1.76977,-0.938466,-250.137,81.5345,17.8533,0,0,3.27605,5
1774536099760,0.279306,1.76294,-1.11107,-250.137,78.5422,30.1594,0,0,3.26023,5
1774536099773,0.129405,1.86694,-1.3347,-250.137,80.0075,29.2901,0,0,3.28199,5
1774536099787,0.0407777,1.79493,-1.54588,-246.451,80.2061,23.4355,0,0,3.26344,5
1774536099800,0.100338,1.66456,-1.68725,-215.079,78.2597,22.168,0,0,3.35462,5
1774536099814,0.245107,1.56788,-1.82934,-173.636,67.3443,25.4044,0,0,3.27036,5
1774536099828,0.511456,1.35622,-1.94775,-125.927,39.5439,38.938,0,0,3.81372,5
1774536099841,0.433355,1.10964,-2.1035,-87.1783,8.78078,62.9144,0,0,3.27886,5
1774536099854,0.0571552,0.970469,-2.13379,-49.0943,-19.5782,53.6953,0,0,3.25744,5
1774536099868,-0.229472,0.999998,-2.08741,-1.76667,-38.7544,15.5141,0,0,3.28196,5
1774536099881,-0.251952,0.987061,-1.91383,45.2791,-49.4725,-26.5543,0,0,3.26342,5
1774536099895,-0.0344391,0.949221,-1.6863,80.4098,-56.3965,-46.1666,0,0,3.29609,5
1774536099908,3.9996,3.99966,2.4272,18.5005,-130.125,19.5832,0,0,3.25977,5
1774536099921,2.87239,-3.11571,0.495008,137.45,-97.3763,-42.0949,0,0,3.32048,5
1774536099935,0.517011,2.94025,0.493897,250.122,-89.199,-97.9579,0,0,3.28044,5
1774536099949,-0.475761,2.00544,-0.421323,243.573,-78.8099,-73.5742,0,0,3.5902,5
1774536099962,-0.256119,0.818931,-0.301034,223.704,-24.8816,-31.7968,0,0,3.27681,5
1774536099975,0.14963,0.694345,-0.302734,202.879,-12.4665,-35.4807,0,0,3.25975,3
1774536099989,-0.030505,0.836904,-0.29004,188.238,-6.48897,-31.2827,0,0,3.28812,3
1774536100002,0.0300251,0.869627,-0.368891,167.261,-9.53414,-20.8023,0,0,3.26049,3
1774536100016,0.0419913,0.879882,-0.454828,139.536,-12.3891,-4.62709,0,0,3.28027,3
1774536100029,-0.0649339,0.863771,-0.435548,120.49,-10.3742,5.51074,0,0,3.26807,3
1774536100043,-0.137934,0.852052,-0.451903,103.391,0.243532,16.4878,0,0,3.7026,3
1774536100057,-0.0564022,0.81885,-0.502194,85.7417,9.88482,25.5261,0,0,3.76416,3
1774536100070,0.0195259,0.858884,-0.477053,71.0545,12.725,29.9234,0,0,3.28264,3
1774536100084,0.181629,0.755378,-0.565912,57.0773,7.9927,20.0847,0,0,3.28099,3
1774536100097,0.0949768,0.80029,-0.521976,41.192,10.1296,13.5806,0,0,3.26703,3
1774536100110,0.117186,0.874507,-0.481204,34.1303,8.65659,10.8246,0,0,3.30897,3
1774536100124,0.076663,0.913083,-0.462404,30.5041,6.48107,9.98479,0,0,3.26099,3
1774536100137,0.0554214,0.889162,-0.45044,29.6031,7.22132,9.22143,0,0,3.57035,3
1774536100151,0.15429,0.8252,-0.504635,24.1073,4.46584,7.565,0,0,3.27066,5
1774536100164,0.104007,0.869138,-0.527342,17.7485,3.49625,5.3971,0,0,3.2617,5
1774536100178,0.0454143,0.882812,-0.512452,10.573,3.63358,5.58777,0,0,3.28079,5
1774536100191,0.054931,0.948726,-0.50293,10.9389,5.10677,8.9387,0,0,3.25686,5
1774536100204,0.0434578,0.985105,-0.496094,10.8244,7.16779,14.8698,0,0,3.2967,5
1774536100218,0.0700665,0.93555,-0.5,10.7557,7.67935,17.3204,0,0,3.75379,5
1774536100232,0.0942366,0.932617,-0.497315,11.0992,7.58779,17.0077,0,0,3.35229,5
1774536100245,0.119139,0.932129,-0.489502,9.00778,6.05354,15.71,0,0,3.28999,5
1774536100259,0.147947,0.930176,-0.486572,9.29769,4.3589,12.0155,0,0,3.55314,5
1774536100272,0.145264,0.942626,-0.486816,7.82453,1.83224,8.20637,0,0,3.28209,5
1774536100286,0.160155,0.918947,-0.491699,7.70993,-0.282295,3.85527,0,0,3.24686,5
1774536100299,0.125491,0.938963,-0.495361,6.90082,-1.38924,2.18332,0,0,3.29199,5
1774536100312,0.108156,0.936279,-0.500488,6.58018,-2.5419,0.946651,0,0,3.25444,5
1774536100326,0.095704,0.9292,-0.491944,7.22133,-2.50382,0.98473,0,0,3.29814,5
1774536100339,0.0913089,0.937499,-0.501708,6.83209,-2.50382,2.43501,0,0,3.33846,5
1774536100353,0.103271,0.943603,-0.487306,7.6946,-2.0153,2.30535,0,0,3.75557,5
1774536100366,0.11621,0.90967,-0.495117,7.62596,-2.48088,1.11459,0,0,3.27433,5
1774536100380,0.125244,0.918212,-0.487305,7.53436,-2.57251,-0.534236,0,0,3.26959,5
1774536100393,0.129638,0.886721,-0.494628,6.64892,-2.69465,-2.89296,0,0,3.28257,5
1774536100407,0.124268,0.901122,-0.501708,5.5268,-3.09921,-5.04565,0,0,3.26225,5
1774536100420,0.125488,0.897217,-0.499024,4.14513,-3.76331,-7.61051,0,0,3.29994,5
1774536100433,0.126465,0.911864,-0.505859,3.88551,-4.70222,-9.65635,0,0,3.25149,5
1774536100447,0.1001,0.913818,-0.510254,3.35882,-4.87785,-10.3587,0,0,3.56688,5
1774536100460,0.109863,0.920898,-0.498536,2.96949,-5.51141,-11.4198,0,0,3.26523,5
1774536100474,0.0854509,0.894533,-0.498779,1.95427,-5.37406,-11.5038,0,0,3.24301,5
1774536100487,0.0974113,0.910888,-0.519774,2.06869,-5.38168,-11.2138,0,0,3.27538,5
1774536100500,0.100342,0.918945,-0.521484,2.229,-4.79393,-11.6717,0,0,3.2467,5
1774536100514,0.0654321,0.933837,-0.504152,2.67172,-4.36644,-9.57267,0,0,3.2794,5
1774536100527,0.070068,0.93042,-0.509033,2.15271,-3.27489,-7.02308,0,0,3.25062,5
1774536100541,0.0471207,0.920167,-0.514404,2.4122,-1.80163,-4.31317,0,0,3.32461,3
1774536100554,0.0698226,0.920654,-0.484133,2.7099,-0.98479,-2.51158,0,0,3.26774,3
1774536100568,0.0710448,0.898195,-0.504149,2.87022,-1.27479,-1.35123,0,0,3.58662,3
1774536100581,0.0903307,0.924315,-0.513183,3.52667,-1.29771,-1.35115,0,0,3.32377,3
1774536100594,0.0798347,0.934814,-0.520751,3.59542,-0.778662,-1.27481,0,0,3.27909,3
1774536100608,0.0856929,0.955809,-0.507081,2.72525,-0.709928,-1.39694,0,0,3.28283,3
1774536100621,0.0820315,0.908695,-0.5,4.3663,-0.465666,-1.57251,0,0,3.25846,3
1774536100635,0.0742193,0.92993,-0.526121,4.09162,-0.419851,-1.21377,0,0,3.33231,3
1774536100648,0.0725099,0.914064,-0.509034,3.73285,-1.35871,-0.839721,0,0,3.27496,3
1774536100662,0.0793452,0.967037,-0.519775,6.1296,-1.42748,-0.534373,0,0,3.79971,3
1774536100676,0.075928,0.912846,-0.520752,4.19098,-1.54198,0.251853,0,0,3.27149,3
1774536100689,0.0712894,0.945798,-0.521484,6.77844,-1.35116,0.702259,0,0,3.25027,3
1774536100702,0.0600594,0.900882,-0.51709,7.08395,-1.33588,0.572528,0,0,3.27559,3
1774536100716,0.0776355,0.988519,-0.543699,9.38915,-1.46564,2.07623,0,0,3.25496,5
1774536100729,0.0710454,0.904303,-0.526857,9.61067,-1.1069,3.77087,0,0,3.29209,5
1774536100743,0.00879342,0.995843,-0.555662,11.2594,0.885357,9.07596,0,0,3.27568,5
1774536100756,0.083735,1.01977,-0.558838,17.7095,1.67933,14.2515,0,0,3.32112,5
1774536100769,0.0505394,1.20409,-0.553711,32.8997,3.73268,18.473,0,0,3.27653,5
1774536100783,0.0986294,1.15625,-0.530763,33.0992,-0.785943,17.0917,0,0,3.5892,5
1774536100797,0.0854501,0.96266,-0.567868,50.5484,3.70961,28.7778,0,0,3.2799,5
1774536100810,0.101317,1.04052,-0.567627,58.5949,1.25971,27.8398,0,0,3.25342,5
1774536100823,0.0886239,1.25975,-0.604978,69.2817,-0.328133,24.8475,0,0,3.28785,5
1774536100837,0.166498,1.61887,-0.608154,91.3725,-4.76305,12.7795,0,0,3.2616,5
1774536100850,0.239741,1.39333,-0.588869,110.22,-9.56455,14.0915,0,0,3.30562,5
1774536100864,0.213381,1.3689,-0.597656,127.251,-13.0837,10.7407,0,0,3.27679,5
1774536100877,0.263668,1.39184,-0.598144,146.739,-17.7325,8.83983,0,0,3.6884,5
1774536100891,0.230227,1.34668,-0.568606,163.541,-22.3432,9.51904,0,0,3.27649,5
1774536100904,0.206056,1.40258,-0.629879,180.907,-25.7021,15.2515,0,0,3.27886,5
1774536100918,0.162601,1.47875,-0.567143,199.747,-27.0457,27.8464,0,0,3.28127,5
1774536100931,0.0939989,1.65111,-0.648432,224.685,-27.3664,42.7928,0,0,3.28775,5
1774536100944,0.0485872,1.7412,-0.677976,246.434,-25.8627,62.9681,0,0,3.30349,5
1774536100958,-0.00463495,2.06175,-0.721188,250.13,-22.0842,89.2653,0,0,3.29831,5
1774536100972,0.0400359,1.59842,-0.650151,250.13,-22.6488,94.0684,0,0,3.61175,5
1774536100985,-0.0107386,1.72436,-0.721919,250.13,-22.3893,82.4359,0,0,3.27177,5
1774536100998,0.224105,1.29129,-0.559582,250.13,-19.9925,101.678,0,0,3.26816,5
1774536101012,0.378407,1.69089,-1.03073,250.13,-21.9083,146.844,0,0,3.28153,5
1774536101025,0.204602,1.02104,-0.361131,250.13,-28.3736,170.998,0,0,3.26496,5
1774536101039,0.0766691,1.47922,-0.480705,250.13,-34.9385,206.333,0,0,3.29583,5
1774536101052,-0.018548,2.07882,-0.317882,250.13,-39.6104,242.547,0,0,3.29438,5
1774536101066,-0.407199,-1.15016,0.19015,250.13,-46.2972,192.981,0,0,3.32125,5
1774536101079,-0.980917,-3.9998,1.89197,43.3961,-71.5631,113.853,0,0,3.36499,5
1774536101093,-1.00659,0.17671,0.030892,-135.3,-54.4592,-5.61759,0,0,3.51144,5
1774536101108,-0.459999,0.542699,0.495329,-200.637,-15.7432,-66.9804,0,0,3.33335,5
1774536101122,-0.0449509,0.690908,0.181418,-223.456,-13.7177,-61.5729,0,0,3.26879,5
1774536101136,0.0700603,0.456559,0.204344,-240.464,-22.8162,-42.0319,0,0,3.30709,5
1774536101149,0.0185583,0.184589,0.374744,-250.137,-24.2518,-26.566,0,0,3.27347,2
1774536101166,0.108392,0.354236,0.393309,-250.137,-33.9535,-39.3731,0,0,6.66208,2
1774536101180,0.344222,0.72263,0.353763,-250.137,-54.1436,-43.3356,0,0,3.24036,2
1774536101195,0.472403,1.14328,0.155043,-250.137,-81.6011,-20.7497,0,0,4.86286,2
1774536101208,0.379401,1.14941,0.0302822,-250.137,-97.8386,10.2192,0,0,3.25544,2
1774536101221,0.153092,1.0669,0.0258792,-250.137,-100.962,29.8918,0,0,3.32888,2
1774536101235,-0.131084,0.999761,-0.103507,-250.137,-89.2909,29.8168,0,0,3.26842,2
1774536101248,-0.202876,1.2971,-0.230704,-250.137,-68.6503,24.0386,0,0,3.2602,2
1774536101262,-0.379626,1.50755,-0.519511,-250.137,-40.1623,32.5567,0,0,3.36166,2
1774536101275,-0.497306,1.71312,-0.755843,-250.137,-1.54469,30.7788,0,0,3.26862,2
1774536101289,-0.59594,1.85546,-0.951646,-250.137,45.4929,15.4973,0,0,3.2829,2
1774536101302,-0.514166,1.80079,-0.994626,-250.137,92.4395,-1.27364,0,0,3.26846,2
1774536101317,-0.315444,1.79688,-1.05883,-250.137,136.226,-3.96164,0,0,4.79699,2
1774536101330,-0.104507,1.91161,-1.18163,-250.137,175.684,-5.69454,0,0,3.28666,3
1774536101344,0.0173255,1.78419,-1.24194,-224.429,202.166,-3.50397,0,0,3.8391,3
1774536101358,0.145011,1.6941,-1.26391,-205.207,217.778,0.0760853,0,0,3.29601,3
1774536101371,0.298817,1.69653,-1.27661,-177.445,221.572,-1.51134,0,0,3.25057,5
1774536101384,0.494615,1.44704,-1.19166,-158.612,207.062,-12.3428,0,0,3.27866,5
1774536101398,0.678454,1.32447,-1.12915,-147.734,181.162,-23.3504,0,0,3.25955,5
1774536101412,0.91429,1.24976,-1.07618,-136.337,143.384,-20.0537,0,0,3.28886,5
1774536101425,0.960446,1.16163,-1.06616,-129.001,105.132,-3.41338,0,0,3.27857,5
1774536101439,0.707049,1.20874,-1.13256,-113.108,71.3153,12.8309,0,0,3.28649,5
1774536101452,0.392844,1.16309,-1.21777,-92.3221,48.2688,18.0989,0,0,3.27848,5
1774536101466,0.162858,1.17065,-1.2583,-66.8491,35.6726,9.39756,0,0,3.28248,5
1774536101479,0.0642159,1.11036,-1.24927,-39.8721,30.695,-1.55649,0,0,3.25975,5
1774536101492,0.0759269,0.95216,-1.16871,-20.6273,30.8473,-4.69444,0,0,3.23835,5
1774536101506,0.038821,0.947754,-1.09058,-5.13849,33.0227,-5.29767,0,0,3.25636,5
1774536101519,-0.00780924,0.947022,-0.981697,10.5791,36.9234,-11.0225,0,0,3.2459,5
1774536101532,-0.0415015,0.964843,-0.898687,23.9609,42.763,-13.2594,0,0,3.26962,5
1774536101546,-0.0102561,1.01318,-0.777108,38.686,47.1905,-16.6334,0,0,3.26818,5
1774536101560,0.0495564,0.904304,-0.632334,46.2895,47.3511,-21.7706,0,0,3.68907,5
1774536101573,0.181387,0.947018,-0.543219,50.8546,41.4432,-24.5265,0,0,3.25235,5
1774536101586,-0.644718,1.01879,1.96296,139.024,51.0833,-47.0977,0,0,3.23999,5
1774536101600,-0.231962,2.43496,0.385364,85.3778,6.92675,-45.2368,0,0,3.94403,5
1774536101614,-0.274899,0.593879,-0.125941,88.7402,-0.68649,-15.1777,0,0,3.34068,5
1774536101627,-0.0818006,0.561037,-0.118409,94.7324,-5.19816,1.0752,0,0,3.3981,5
1774536101641,0.122056,0.850322,-0.109132,100.137,-15.0985,-0.175485,0,0,3.28196,5
1774536101654,-0.0151271,1.01342,-0.197015,94.8324,-12.2063,5.70188,0,0,3.3139,5
1774536101668,-0.0607878,1.03711,-0.22534,87.3059,-8.46591,13.7094,0,0,3.27807,5
1774536101681,0.0214786,1.0271,-0.223145,78.8708,-2.28288,15.122,0,0,3.24777,5
1774536101694,0.0544411,1.00342,-0.222412,74.4278,-2.17558,14.168,0,0,3.26207,5
1774536101708,0.0417489,0.984865,-0.242674,70.9621,-1.90078,13.5497,0,0,3.23792,5
1774536101721,0.0729959,1.00342,-0.246094,69.023,-2.70987,10.5117,0,0,3.28499,5
1774536101735,0.0678715,0.976076,-0.258056,67.2673,-2.06875,6.58043,0,0,3.24442,5
1774536101748,0.0771478,0.985839,-0.343744,66.8779,-1.02297,1.25991,0,0,3.30627,5
1774536101762,0.155756,1.02221,-0.299075,29.224,-2.26709,-1.34333,0,0,3.2729,5
1774536101776,0.0688537,0.684594,-0.343991,20.8021,-1.16038,-1.00766,0,0,3.89566,5
1774536101792,0.0642093,1.02073,-0.322267,18.7177,-2.98461,-7.79342,0,0,3.3536,5
1774536101807,0.0354024,0.936529,-0.338866,12.2753,-4.21365,-6.39704,0,0,4.50777,5
1774536101820,0.0344239,0.912599,-0.332276,7.91634,-3.64889,-5.64891,0,0,3.27351,5
1774536101834,0.0197764,0.930419,-0.327149,6.0612,-3.09928,-4.4352,0,0,3.26172,5
1774536101847,0.0192871,0.955565,-0.297365,5.29013,-1.23677,-2.2368,0,0,3.27661,5
1774536101860,0.00415145,0.953369,-0.331052,2.74827,-0.213812,0.213569,0,0,3.25985,5
1774536101875,0.0158683,0.989011,-0.303957,2.41987,1.49606,2.45023,0,0,4.93419,5
1774536101889,0.0270988,1.00049,-0.325682,2.61831,2.15263,3.40451,0,0,3.25405,5
1774536101904,0.0266114,0.994629,-0.320801,2.83205,2.40456,4.16789,0,0,4.66669,5
1774536101918,0.0495589,0.97754,-0.313965,2.92366,2.44275,4.71752,0,0,3.25751,5
1774536101932,0.0432133,0.970704,-0.314453,3.07633,2.65647,4.28247,0,0,4.46788,5
1774536101946,0.0471189,0.981689,-0.313721,4.11443,2.3588,3.02299,0,0,3.75127,5
1774536101959,0.0598136,0.988525,-0.303223,4.50379,1.38938,1.69475,0,0,3.26303,5
1774536101973,0.0473642,0.992187,-0.317382,5.52665,0.274887,0.70236,0,0,3.27829,5
1774536101986,0.0363777,0.986817,-0.314942,6.38925,-0.0686782,0.52673,0,0,3.24918,5
1774536102001,0.0429683,0.989258,-0.304444,7.29765,-0.931237,0.00766992,0,0,4.66175,5
1774536102018,0.0327156,0.984131,-0.323729,7.00765,-0.671774,0.984664,0,0,3.27501,5
1774536102032,0.0520006,0.977784,-0.336425,6.25196,-0.45803,0.740475,0,0,3.27942,5
1774536102045,0.0412605,0.987304,-0.33374,5.66416,-0.351153,1.12974,0,0,3.25192,5
1774536102058,0.0427245,0.974122,-0.332031,4.93898,0.2366,1.3435,0,0,3.28523,5
1774536102072,0.0449217,0.973389,-0.334717,4.25959,0.343504,1.05346,0,0,3.40023,5
1774536102086,0.0478514,0.984618,-0.331055,4.80149,0.0305563,0.961838,0,0,3.80427,5
1774536102099,0.0412602,0.985596,-0.333496,4.84733,0.00763519,0.580179,0,0,3.2717,5
1774536102112,0.0517571,0.966554,-0.336426,4.45041,-0.0915961,0.687015,0,0,3.24561,5
1774536102128,0.0458988,0.976806,-0.333496,3.51915,-0.73278,0.450398,0,0,3.29868,5
1774536102143,0.0144065,0.980468,-0.342285,2.86264,-0.183245,3.62573,0,0,4.46179,5
1774536102156,0.0148925,1.00439,-0.334229,2.40461,0.602998,7.12953,0,0,3.27459,5
1774536102169,0.0163573,0.984865,-0.353758,2.50381,1.46559,9.70211,0,0,3.26272,5
1774536102183,0.0300283,1.00342,-0.343995,2.54962,2.22895,11.6411,0,0,3.35577,5
1774536102196,0.0588359,0.992188,-0.350341,2.86257,2.09925,10.7329,0,0,3.27555,5
1774536102210,0.0461435,0.978028,-0.352295,1.9619,3.13733,11.5114,0,0,3.35668,5
1774536102223,0.0681137,0.978516,-0.342774,1.57255,3.229,9.99247,0,0,3.27727,5
1774536102237,0.0744624,0.97876,-0.342773,1.12217,2.87025,8.35889,0,0,3.28551,5
1774536102250,0.0883779,1.20921,-0.327394,9.11394,1.62604,9.22131,0,0,3.28831,5
1774536102263,0.0322305,1.10548,-0.327637,9.2519,0.824484,7.35128,0,0,3.25779,5
1774536102278,0.0854455,1.00977,-0.454825,3.87061,-0.59532,4.54218,0,0,3.29272,5
1774536102292,0.0881346,1.02344,-0.313731,2.19859,-0.39696,1.74065,0,0,3.26905,5
1774536102305,0.0947261,0.964604,-0.36816,2.80148,-1.54954,-0.557091,0,0,3.31514,5
1774536102318,0.0771497,1.00268,-0.32056,3.15265,-1.97707,-0.534353,0,0,3.29907,5
1774536102333,0.0886222,0.98755,-0.315918,4.66402,-2.9465,-1.94647,0,0,4.71634,5
1774536102347,0.0600606,0.932865,-0.365231,5.80908,-3.15266,-1.94656,0,0,3.31959,5
1774536102360,0.0620116,0.9624,-0.353516,5.30538,-3.14504,-2.06106,0,0,3.28883,5
1774536102374,0.0617676,0.987547,-0.345948,5.03055,-3.2977,-2.1603,0,0,3.46388,5
1774536102387,0.052735,1.00342,-0.388425,5.41219,-2.57257,-1.19854,0,0,3.28248,5
1774536102402,0.073729,0.999024,-0.389648,4.07643,-3.0992,-1.75569,0,0,5.09682,5
1774536102416,0.0888661,0.994141,-0.394043,2.65659,-3.33586,-3.13731,0,0,3.29199,5
1774536102432,0.0847171,0.984376,-0.370119,0.557399,-4.10682,-6.35092,0,0,4.84008,5
1774536102445,0.0546896,0.96753,-0.377197,-2.74023,-4.44272,-6.91599,0,0,3.28131,5
1774536102459,0.0722644,0.971924,-0.365235,-4.82428,-4.47328,-8.06099,0,0,4.02023,5
1774536102473,0.0410178,0.954103,-0.367676,-5.38164,-3.89317,-7.61835,0,0,3.29088,5
1774536102486,0.0356449,0.946045,-0.354493,-7.54183,-3.07639,-5.56503,0,0,3.30649,5
1774536102499,0.0310062,0.984128,-0.346436,-7.79388,-2.2138,-3.49633,0,0,3.30075,3
1774536102513,0.0256351,0.942142,-0.357665,-9.60293,-1.29014,-1.67188,0,0,3.29646,3
1774536102531,0.0471176,0.962157,-0.357666,-10.229,-0.809194,0.16781,0,0,8.01891,3
1774536102544,0.0476074,0.968017,-0.324465,-11.1373,-0.412242,0.358765,0,0,3.27436,3
1774536102562,0.0437014,0.967285,-0.328369,-9.91612,-1.25948,-0.541922,0,0,7.73617,3
1774536102576,0.0488278,0.968506,-0.328125,-9.7252,-1.96178,-1.90067,0,0,3.71586,3
1774536102589,0.0529782,0.974609,-0.317628,-8.83976,-2.73277,-3.27471,0,0,3.28255,3
1774536102603,0.0563962,0.982665,-0.318359,-7.80923,-3.08394,-4.12971,0,0,3.25222,3
1774536102616,0.0483404,0.985595,-0.318603,-6.22912,-2.87788,-4.1832,0,0,3.27174,3
1774536102630,0.036866,0.986572,-0.325927,-5.38937,-2.771,-3.78629,0,0,3.25905,3
1774536102644,0.0263679,0.994872,-0.320313,-3.61081,-2.03822,-2.08409,0,0,3.96396,3
1774536102657,0.0290525,1.00122,-0.307862,-1.56503,-1.22906,-0.190972,0,0,3.3617,3
1774536102671,0.0231938,0.962893,-0.332518,-1.84731,-0.427537,1.66399,0,0,3.3877,3
1774536102692,0.0339348,0.980712,-0.330811,-2.35874,0.152631,2.74038,0,0,7.11817,3
1774536102706,0.0397945,0.98291,-0.322999,-2.01529,0.00764374,2.73282,0,0,3.4892,3
1774536102719,0.0412597,0.978516,-0.322266,-2.42745,-0.366386,2.67176,0,0,3.50201,3
1774536102733,0.0502923,0.982666,-0.324219,-2.52671,-0.96179,2.07638,0,0,3.42898,3
1774536102747,0.0620109,0.983643,-0.313721,-2.03057,-1.22899,1.05351,0,0,3.45625,3
1774536102761,0.0603029,0.972901,-0.334227,-1.70995,-1.90835,-0.366313,0,0,3.51755,3
1774536102774,0.0507819,0.983398,-0.314455,-1.29774,-2.6488,-1.45794,0,0,3.44859,3
1774536102788,0.0534666,0.981445,-0.319824,-0.893158,-2.92364,-1.97706,0,0,3.48307,3
1774536102802,0.0468755,0.993163,-0.316406,-0.160357,-2.80154,-2.42745,0,0,3.43283,3
1774536102818,0.0375983,0.982423,-0.325927,-0.167938,-2.53437,-2.21376,0,0,3.36514,3
1774536102833,0.0346682,0.985107,-0.330566,-0.633555,-2.20613,-1.92368,0,0,3.95296,3
1774536102847,0.0417476,0.991699,-0.32129,-0.21377,-1.93895,-1.48095,0,0,3.57279,3
1774536102860,0.0388186,0.978028,-0.324463,-0.526696,-1.26722,-0.572583,0,0,3.2836,3
1774536102874,0.0295417,0.982666,-0.325439,-1.06866,-1.03055,-0.0305723,0,0,3.28709,3
1774536102887,0.0449208,0.988037,-0.332031,-1.73278,-1.29006,-0.221361,0,0,3.26833,3
1774536102901,0.0417483,0.976319,-0.331543,-2.54193,-1.65646,-0.748055,0,0,3.28523,3
1774536102914,0.0410157,0.964112,-0.324708,-3.89304,-1.70992,-1.58009,0,0,3.26066,3
1774536102928,0.0568837,0.975829,-0.332519,-4.86253,-2.22134,-2.54955,0,0,3.28727,3
1774536102941,0.0495611,0.986572,-0.320069,-5.15265,-2.74805,-3.51138,0,0,3.27605,3
1774536102955,0.0434575,0.993164,-0.325683,-5.25953,-2.93892,-4.22132,0,0,3.26949,3
1774536102968,0.0368657,0.982179,-0.331543,-6.14498,-3.09923,-4.85492,0,0,3.74353,3
1774536102982,0.0434566,0.995605,-0.325684,-7.69455,-1.4963,-6.10678,0,0,3.26883,3
1774536102995,0.0026884,0.969728,-0.331543,-9.21363,2.36614,-6.59539,0,0,3.29318,3
1774536103009,0.00610328,0.985839,-0.332275,-10.7938,5.59519,-8.00753,0,0,3.27542,3
1774536103022,0.0468721,0.993408,-0.335693,-12.6258,5.22903,-9.03046,0,0,3.26325,3
1774536103036,0.0710432,1.00073,-0.322511,-14.2671,1.75597,-9.05343,0,0,3.28066,3
1774536103049,0.0556651,0.966799,-0.321533,-14.7023,-2.04554,-10.3282,0,0,3.25337,3
1774536103062,0.029787,0.947267,-0.299806,-15.8167,-5.96919,-11.1831,0,0,3.28925,3
1774536103076,0.0595682,0.987302,-0.31494,-12.8399,-12.2133,-10.3588,0,0,3.24875,3
1774536103089,0.088621,1.03198,-0.332274,-10.2903,-20.1216,-8.49631,0,0,3.28772,3
1774536103103,0.116697,1.01343,-0.489735,-3.01578,-24.618,-1.90122,0,0,3.25964,3
1774536103116,0.147215,0.929693,-0.576166,0.0913856,-27.3739,9.67858,0,0,3.25053,3
1774536103129,0.327624,0.988765,-0.774156,9.29707,-27.8015,36.3951,0,0,3.27188,3
1774536103143,0.109879,1.42111,-0.790038,21.4419,-27.7786,61.0822,0,0,3.25348,3
1774536103156,-0.0710323,0.840617,-0.667977,32.297,-26.9314,31.7578,0,0,3.27666,3
1774536103170,-0.0478532,0.94384,-0.68579,36.2745,-24.0994,13.2456,0,0,4.05842,3
1774536103184,0.0725013,0.926271,-0.641361,40.5417,-21.9238,20.6102,0,0,3.37025,3
1774536103202,0.152094,0.956297,-0.597171,46.6484,-27.2821,22.7327,0,0,3.33572,3
1774536103216,0.169677,0.912845,-0.567385,48.3205,-34.0682,19.6109,0,0,3.32844,3
1774536103229,0.221432,0.927733,-0.53467,48.2672,-41.7018,20.0687,0,0,3.26457,3
1774536103243,0.257322,0.943847,-0.489749,48.6412,-50.1673,22.809,0,0,3.30829,3
1774536103256,0.247559,0.952636,-0.474366,49.6641,-59.0146,26.0074,0,0,3.27181,3
1774536103269,0.179448,0.95874,-0.452882,50.4656,-64.6714,29.6104,0,0,3.25133,3
1774536103283,0.102056,0.985594,-0.43506,52.1449,-66.2136,30.5343,0,0,3.27468,3
1774536103296,0.0410199,0.972901,-0.408449,53.809,-65.4046,28.9314,0,0,3.2749,5
1774536103310,0.0319831,0.974121,-0.395265,55.6106,-62.4659,27.9695,0,0,3.2914,5
1774536103323,0.0363766,0.992674,-0.384278,57.9235,-57.9774,30.5265,0,0,3.25447,5
1774536103337,0.056151,1.00098,-0.385742,60.0609,-52.8782,35.7172,0,0,3.26272,5
1774536103350,0.0781235,1.01123,-0.378663,63.5799,-48.2828,42.0988,0,0,3.27179,5
1774536103364,0.0407741,0.915778,-0.37915,62.2291,-43.5194,43.374,0,0,3.62253,5
1774536103377,0.031983,0.891603,-0.375733,54.9623,-42.0688,33.8022,0,0,3.28688,5
1774536103391,0.025147,0.954341,-0.401121,52.2903,-41.3817,23.4587,0,0,3.26877,5
1774536103404,0.0441881,0.886479,-0.401367,46.5348,-41.8168,19.0919,0,0,3.29805,5
1774536103418,0.0681136,0.891113,-0.388429,40.3821,-43.0915,14.5576,0,0,3.25953,5
1774536103431,0.0939923,0.886475,-0.382081,33.3364,-45.6487,9.12252,0,0,3.26753,5
1774536103444,0.130857,0.922361,-0.378662,29.0308,-49.9921,6.00022,0,0,3.26722,1
1774536103458,0.136962,0.903078,-0.360597,25.2827,-54.3203,7.94643,0,0,3.27307,1
1774536103471,0.0869176,0.909668,-0.361328,21.9621,-55.6259,10.038,0,0,3.27323,1
1774536103485,0.0585957,0.901124,-0.338381,19.1223,-55.4046,10.1908,0,0,3.24964,1
1774536103498,0.0375991,0.892823,-0.317628,16.7635,-53.0002,9.58783,0,0,3.29264,1
1774536103511,0.270247,-0.0524241,0.0341551,-28.6762,-41.413,38.1125,0,0,3.25812,1
1774536103525,0.0332197,1.0966,-0.0842202,-22.863,-33.0082,18.8334,0,0,3.36016,1
1774536103538,-0.0334426,0.650666,0.202373,-39.1439,-22.1229,17.0994,0,0,3.26673,1
1774536103552,0.00488013,0.864243,-0.0407545,-60.2352,-13.5044,7.41289,0,0,3.3009,1
1774536103565,0.0100094,1.54487,-0.644245,-28.5824,-13.1527,-14.7847,0,0,3.26827,1
1774536103578,-0.0632273,0.846729,-0.542976,-33.8241,-7.9164,-16.9464,0,0,3.25036,3
1774536103592,0.00829577,1.11839,-0.544189,-35.3739,-7.32065,-13.0384,0,0,3.27022,3
1774536103605,0.0144039,1.00977,-0.520021,-30.2523,-3.1835,-11.3207,0,0,3.26951,3
1774536103618,-0.0317351,1.08447,-0.525878,-26.443,-1.34364,-7.44302,0,0,3.30036,3
1774536103632,-0.0849572,1.06177,-0.576657,-25.4657,1.41965,4.00683,0,0,3.25285,3
1774536103645,0.0688369,1.11181,-0.523441,2.3263,3.79373,0.336135,0,0,3.27744,3
1774536103659,0.0170935,1.19799,-0.522461,-2.51874,3.09165,2.03805,0,0,3.26698,3
1774536103672,0.0532201,0.886008,-0.494875,-4.22125,2.22143,5.51121,0,0,3.24429,3
1774536103685,0.0561521,0.927487,-0.492188,0.0913012,2.80912,5.78624,0,0,3.26948,3
1774536103699,0.0700674,0.960691,-0.49292,1.11443,1.71763,3.95433,0,0,3.37759,3
1774536103713,0.0927718,0.915042,-0.493896,0.778649,0.0153863,1.80931,0,0,4.11318,3
1774536103727,0.0783701,0.90503,-0.491699,0.511469,-1.42738,-0.434957,0,0,3.2834,3
1774536103740,0.0795898,0.930174,-0.500244,0.78624,-2.37398,-2.41971,0,0,3.31047,3
1774536103753,0.0615247,0.924805,-0.494141,1.14501,-2.83966,-3.49611,0,0,3.2764,3
1774536103767,0.0393082,0.939696,-0.496338,0.580192,-2.57254,-2.9695,0,0,3.25899,3
1774536103780,0.0456539,0.919435,-0.48462,-0.0304916,-1.74815,-2.01533,0,0,3.27744,3
1774536103794,0.0493161,0.937743,-0.502684,0.961763,-1.18325,-1.58782,0,0,3.26107,3
1774536103807,0.0456546,0.927247,-0.494874,1.26715,-1.51906,-1.53435,0,0,3.29038,5
1774536103820,0.0346687,0.921875,-0.502929,1.60303,-1.37406,-1.64121,0,0,3.25879,5
1774536103834,0.0407711,0.927734,-0.501221,1.58779,-1.25192,-1.313,0,0,3.2697,5
1774536103847,0.0524894,0.929199,-0.50415,1.00004,-1.09925,-1.08399,0,0,3.27834,5
1774536103860,0.0451665,0.924561,-0.510253,0.618347,-1.1603,-0.717583,0,0,3.26525,5
1774536103874,0.0390629,0.922363,-0.499757,0.572522,-1.3664,-0.229042,0,0,3.28536,5
1774536103888,0.0441891,0.918946,-0.49585,0.190866,-1.25955,0.183177,0,0,3.66933,5
1774536103901,0.0297862,0.916748,-0.507079,-0.885421,-0.412273,2.09147,0,0,3.51283,5
1774536103915,0.0168466,0.927245,-0.499512,-1.6717,1.14493,4.41205,0,0,3.25423,5
1774536103928,0.0366197,0.922119,-0.506103,-1.99998,1.80911,5.64877,0,0,3.29553,5
1774536103941,0.0588363,0.910889,-0.496583,-2.20609,1.76336,5.74808,0,0,3.25599,5
1774536103955,0.0529789,0.921874,-0.501709,-2.30534,1.91602,5.67176,0,0,3.53214,5
1774536103968,0.0747055,0.924804,-0.492188,-2.07635,1.57254,4.65656,0,0,3.26423,5
1774536103982,0.0769041,0.93457,-0.493652,-1.70232,0.664186,2.78639,0,0,3.25392,5
1774536103995,0.070313,0.924073,-0.493408,-1.65649,-0.144982,1.25965,0,0,3.27927,5
1774536104008,0.0727537,0.922608,-0.487305,-1.86258,-0.213736,0.320676,0,0,3.27073,5
1774536104022,0.0559094,0.92334,-0.502196,-1.83206,-0.366402,0.0610869,0,0,3.29372,5
1774536104035,0.0505375,0.932617,-0.502197,-1.96946,-0.557239,0.381657,0,0,3.25627,5
1774536104049,0.0520019,0.926026,-0.503174,-2.10686,-0.52672,0.717534,0,0,3.46155,5
1774536104062,0.0549314,0.919434,-0.492677,-2.3206,-0.549617,0.908384,0,0,3.30668,5
1774536104076,0.0458991,0.922607,-0.493408,-2.45037,-0.366425,1.06869,0,0,3.61303,5
1774536104089,0.049072,0.927734,-0.5,-2.68701,-0.244283,1.73278,0,0,3.29103,5
1774536104103,0.0590813,0.925537,-0.500244,-2.55726,-0.160311,2.02288,0,0,3.28848,5
1774536104116,0.0581055,0.922364,-0.490723,-2.77861,0.122118,1.86261,0,0,3.28936,5
1774536104130,0.0612791,0.926758,-0.487305,-3.03052,-0.0305237,1.70993,0,0,3.25481,5
1774536104143,0.0615234,0.924072,-0.482178,-3.19846,-0.0686996,1.87785,0,0,3.27142,5
1774536104156,0.0673824,0.924072,-0.49121,-3.15267,0.145023,1.75573,0,0,3.27873,5
1774536104170,0.0615238,0.922608,-0.494873,-3.17557,-0.0686873,1.28248,0,0,3.49555,5
1774536104183,0.0654294,0.933837,-0.497803,-3.05344,-0.648814,1.11452,0,0,3.27138,5
1774536104197,0.075927,0.936279,-0.484376,-2.64888,-0.992342,0.381731,0,0,3.24983,5
1774536104210,0.0673834,0.940185,-0.473878,-2.01531,-1.46562,-0.732746,0,0,3.28057,5
1774536104223,0.0610356,0.930421,-0.488036,-1.89314,-1.57251,-0.916018,0,0,3.27725,5
1774536104237,0.0556644,0.927979,-0.486084,-1.9084,-1.33589,-1.09922,0,0,3.57473,5
1774536104251,0.0566406,0.925293,-0.493408,-1.59544,-1.6641,-1.02291,0,0,3.28257,5
1774536104264,0.0571289,0.932861,-0.48584,-1.70228,-1.44276,-1.19083,0,0,3.29297,5
1774536104277,0.0615231,0.936767,-0.48706,-1.86258,-1.74807,-0.961848,0,0,3.27451,5
1774536104291,0.0603028,0.9292,-0.48169,-1.88549,-1.62596,-0.687042,0,0,3.26338,5
1774536104305,0.0488289,0.932617,-0.485107,-2.12212,-1.19087,0.312907,0,0,3.71568,5
1774536104318,0.0549312,0.942382,-0.48291,-1.89315,-1.17557,0.5954,0,0,3.23825,5
1774536104331,0.0668937,0.944092,-0.486816,-1.55728,-1.63356,0.0840053,0,0,3.31261,5
1774536104345,0.0607914,0.928224,-0.485352,-1.68701,-1.87021,-0.427445,0,0,3.25444,3
1774536104358,0.0590822,0.931396,-0.489502,-1.58016,-1.83206,-0.473279,0,0,3.28783,3
1774536104371,0.0537113,0.939697,-0.486572,-1.55725,-2.11448,-0.450383,0,0,3.27153,3
1774536104385,0.0664054,0.942139,-0.484863,-1.11453,-2.25953,-0.915998,0,0,3.25536,3
1774536104398,0.0546883,0.934571,-0.480225,-1.09924,-2.19084,-0.816801,0,0,3.28751,3
1774536104412,0.0549316,0.93872,-0.481201,-0.648886,-2.00001,-0.404609,0,0,3.29097,3
1774536104425,0.0549316,0.931397,-0.486328,-0.717552,-1.92367,-0.786233,0,0,3.29238,3
1774536104439,0.0405284,0.933594,-0.485352,-0.748089,-1.771,-0.152716,0,0,3.30072,3
1774536104453,0.049804,0.937744,-0.486572,-0.709926,-1.96182,-0.526691,0,0,3.31725,3
1774536104466,0.060302,0.933838,-0.478028,-0.519097,-1.99236,-0.999967,0,0,3.27255,3
1774536104480,0.0590821,0.936767,-0.486816,-0.549616,-2.22136,-1.70987,0,0,3.63712,3
1774536104493,0.0603026,0.933106,-0.491943,-0.0840021,-2.74042,-2.64879,0,0,3.27677,3
1774536104507,0.0544438,0.9375,-0.479249,-0.0458042,-2.86259,-2.79388,0,0,3.52344,3
1774536104521,0.0224632,0.9458,-0.490234,0.0381621,-2.6336,-1.63367,0,0,3.2742,3
1774536104534,0.0327141,0.939698,-0.48584,0.183196,-2.44276,-0.206207,0,0,3.26075,3
1774536104549,0.0278324,0.953856,-0.493408,0.732786,-1.31306,2.21357,0,0,4.79575,3
1774536104563,0.0546856,0.945557,-0.491455,1.06105,-1.19085,2.46563,0,0,3.86649,3
1774536104576,0.0585935,0.943848,-0.485352,1.36639,-1.2977,2.084,0,0,3.30731,3
1774536104590,0.0576173,0.931153,-0.487305,1.69463,-1.86256,1.41226,0,0,3.27664,3
1774536104604,0.047364,0.939697,-0.488037,1.87785,-1.97709,1.12216,0,0,3.55759,3
1774536104617,0.050781,0.92212,-0.478028,1.68704,-2.08396,0.793916,0,0,3.27872,3
1774536104630,0.0605462,0.922852,-0.488525,1.62596,-2.41219,0.06112,0,0,3.27033,3
1774536104644,0.0563968,0.918946,-0.491943,1.3588,-2.93126,-0.580108,0,0,3.29535,3
1774536104657,0.0700674,0.926757,-0.477296,0.954227,-3.38928,-1.85487,0,0,3.26831,3
1774536104671,0.0659183,0.913331,-0.481445,0.717574,-3.67174,-2.46561,0,0,3.27303,3
1774536104684,0.0466322,0.917724,-0.490234,0.137445,-3.73282,-2.68701,0,0,3.27218,3
1774536104698,0.0324717,0.918213,-0.481202,0.17557,-2.90082,-2.70992,0,0,3.6786,3
1774536104711,0.0417474,0.919189,-0.487304,-0.374007,-2.82443,-2.84732,0,0,3.58675,3
1774536104725,0.0388186,0.93994,-0.493164,-0.351147,-2.25958,-1.90846,0,0,3.26468,3
1774536104738,0.0314947,0.943847,-0.48462,-0.0152907,-1.61073,-1.18326,0,0,3.27731,3
1774536104752,0.029297,0.945312,-0.491455,0.450349,-1.61832,-0.931315,0,0,3.39586,3
1774536104766,0.0400383,0.938477,-0.486328,0.572511,-1.34353,-0.450415,0,0,3.38031,3
1774536104780,0.0393067,0.936035,-0.479004,1.06867,-1.24428,-0.419849,0,0,3.25262,3
1774536104793,0.0388184,0.942626,-0.489989,1.49615,-1.17558,-0.267186,0,0,3.30481,3
1774536104806,0.0522452,0.934327,-0.490967,1.54961,-1.52669,-0.572498,0,0,3.27398,3
1774536104820,0.0444341,0.932129,-0.474366,1.52672,-1.75571,-0.641217,0,0,3.27122,3
1774536104833,0.0437012,0.93335,-0.497069,1.68701,-1.81679,-1.06104,0,0,3.26875,3
1774536104846,0.0483395,0.932861,-0.490479,1.58016,-1.89312,-1.03817,0,0,3.24262,3
1774536104860,0.0454104,0.932861,-0.487549,1.86258,-2.25952,-1.22899,0,0,3.28247,3
1774536104873,0.0473631,0.932129,-0.482666,2.00762,-2.37404,-1.37404,0,0,3.23914,3
1774536104887,0.0366218,0.931885,-0.489746,1.96184,-2.28245,-1.38168,0,0,3.31731,3
1774536104900,0.036377,0.923096,-0.48999,2.00763,-2.21375,-1.38931,0,0,3.2617,3
1774536104913,0.0239267,0.930664,-0.498046,1.76338,-2.00765,-1.12216,0,0,3.28294,5
1774536104927,0.0383291,0.927979,-0.489991,1.6336,-2.18319,-1.12977,0,0,3.27925,5
1774536104940,0.0388183,0.934326,-0.489746,1.65649,-2.44273,-1.28243,0,0,3.2776,5
1774536104954,0.0422361,0.937012,-0.490478,1.57252,-2.35878,-1.458,0,0,3.29694,5
1774536104967,0.0307625,0.931641,-0.495605,1.54962,-2.21375,-1.47328,0,0,3.26035,5
1774536104980,0.0371089,0.925293,-0.494141,1.63358,-2.49616,-1.47328,0,0,3.27936,5
1774536104994,0.0319828,0.936034,-0.488282,1.65649,-2.58778,-1.58015,0,0,3.34446,5
1774536105008,0.039062,0.928956,-0.490722,1.48856,-2.32826,-1.52672,0,0,4.42795,5
1774536105024,0.0290534,0.939697,-0.488281,1.60305,-2.35114,-1.43512,0,0,3.31151,5
1774536105038,0.0336911,0.938965,-0.483399,1.78625,-2.25192,-1.21376,0,0,3.5626,5
1774536105051,0.0302737,0.930665,-0.49414,2.02288,-2.42747,-1.18321,0,0,3.3106,5
1774536105065,0.0327147,0.928223,-0.499267,2.15266,-2.63357,-1.46563,0,0,3.25438,5
1774536105080,0.0444328,0.933593,-0.505127,2.13741,-2.75572,-1.58014,0,0,3.27418,5
1774536105093,0.0449218,0.933838,-0.496827,2.10687,-3.29767,-2.1908,0,0,3.25803,5
1774536105107,0.043213,0.935547,-0.503662,2.31296,-3.86256,-2.67936,0,0,3.27635,5
1774536105120,0.0302743,0.927003,-0.494141,2.03055,-4.30531,-2.96181,0,0,3.26848,5
1774536105134,0.0344235,0.930176,-0.502197,1.86261,-4.80913,-3.55721,0,0,3.29042,5
1774536105147,0.0322267,0.926026,-0.497315,1.48858,-5.64116,-3.64122,0,0,3.25968,5
1774536105160,0.0466299,0.93042,-0.503662,1.69464,-6.41979,-4.11447,0,0,3.25447,5
1774536105174,0.027101,0.931152,-0.495362,1.58779,-6.98469,-4.75568,0,0,3.26331,5
1774536105187,0.0734831,0.918946,-0.499756,1.29773,-8.74797,-4.19851,0,0,3.23455,5
1774536105200,0.0366237,0.916748,-0.490479,0.771029,-9.74039,-5.58769,0,0,3.28568,5
1774536105214,0.036377,0.935301,-0.489014,0.847323,-10.9923,-6.88541,0,0,3.24309,5
1774536105227,0.0283209,0.942138,-0.510497,0.480942,-11.4122,-5.97716,0,0,3.2839,5
1774536105240,0.019776,0.919923,-0.485597,0.0687311,-13.1068,-4.25203,0,0,3.26651,5
1774536105254,0.0292962,0.92749,-0.503173,-0.503777,-14.6793,-1.92383,0,0,3.28018,5
1774536105267,0.106684,0.914308,-0.486085,-1.19079,-18.8012,3.5416,0,0,3.2916,3
1774536105281,0.188715,0.939451,-0.480957,-1.76332,-26.114,9.67133,0,0,3.58733,3
1774536105296,0.256099,0.942138,-0.463136,-2.32057,-38.5411,17.1521,0,0,4.52047,3
1774536105309,0.385245,0.935059,-0.458252,-3.06102,-56.9376,28.6328,0,0,3.24246,3
1774536105322,0.333988,0.959471,-0.485838,-2.00007,-77.4031,34.9996,0,0,3.30723,3
1774536105336,0.297366,0.93921,-0.462892,-3.34342,-97.0215,43.2666,0,0,3.25829,3
1774536105349,0.353023,0.905764,-0.432131,-3.89309,-114.953,52.9917,0,0,3.55218,3
1774536105363,0.10451,0.993402,-0.474606,-1.46582,-127.595,49.5422,0,0,3.26149,3
1774536105376,0.0881359,0.943119,-0.454835,-3.32811,-136.045,51.9617,0,0,3.24881,3
1774536105389,0.0483426,0.959227,-0.47119,-1.49631,-145.038,49.6872,0,0,3.27164,3
1774536105403,0.0344248,0.957276,-0.454591,-1.54961,-153.015,50.9541,0,0,3.25011,3
1774536105416,0.0581038,1.01684,-0.456055,-0.236733,-164.908,51.5648,0,0,3.2852,3
1774536105430,0.138666,0.963383,-0.441651,-1.65639,-180.396,58.3507,0,0,3.27333,3
1774536105443,0.176999,0.935305,-0.434083,-2.22897,-197.495,62.3814,0,0,3.29609,3
1774536105456,0.145266,0.937256,-0.424805,-1.90842,-215.525,66.8546,0,0,3.28644,3
1774536105470,0.14624,0.944335,-0.378421,-1.65651,-233.388,72.7553,0,0,3.59914,3
1774536105483,0.0988803,0.968016,-0.367432,-0.442833,-249.182,78.6637,0,0,3.28016,3
1774536105497,0.069338,0.993651,-0.332278,0.15263,-250.137,84.7629,0,0,3.26201,3
1774536105510,-0.0183044,0.945072,-0.311525,0.519058,-250.137,92.5185,0,0,3.28396,3
1774536105524,-0.0930123,0.94873,-0.295655,-3.12952,-250.137,95.7784,0,0,3.27127,3
1774536105537,-0.105224,0.986081,-0.279298,-4.58768,-250.137,96.5801,0,0,3.27348,3
1774536105550,-0.102783,0.99829,-0.276856,-4.07637,-250.137,98.4579,0,0,3.26149,3
1774536105564,-0.0888682,0.990479,-0.273194,-4.2061,-250.137,100.557,0,0,3.67084,3
1774536105578,-0.0534693,0.995849,-0.270752,-4.86255,-250.137,101.336,0,0,3.36344,3
1774536105591,-0.00830394,1.00708,-0.277587,-4.41225,-250.137,103.832,0,0,3.24435,3
1774536105604,-0.0178216,1.02515,-0.262696,-3.68707,-250.137,104.611,0,0,3.27794,3
1774536105618,0.0046371,1.03613,-0.259033,-2.03065,-250.137,105.366,0,0,3.25566,3
1774536105631,0.013183,1.01929,-0.245362,-1.58018,-250.137,106.565,0,0,3.30449,1
1774536105644,-0.0185525,1.0437,-0.242676,-0.977141,-250.137,107.275,0,0,3.25447,1
1774536105658,-0.032958,1.0354,-0.233643,0.0991613,-250.137,108.313,0,0,3.28751,1
1774536105671,-0.0769012,1.03564,-0.227784,1.32816,-250.137,108.351,0,0,3.25805,1
1774536105684,-0.0847162,1.04126,-0.218507,2.6564,-250.137,108.595,0,0,3.24899,1
1774536105698,-0.0827638,1.0481,-0.222412,4.58765,-250.137,110.282,0,0,3.27131,1
1774536105711,-0.0600602,1.05029,-0.219971,8.23639,-250.137,110.366,0,0,3.24536,1
1774536105725,-0.0209988,1.0769,-0.215576,11.7402,-246.199,106.397,0,0,3.28831,1
1774536105738,-0.00537219,1.0293,-0.234862,14.1525,-239.123,104,0,0,3.28403,1
1774536105751,-0.0314923,1.03784,-0.261229,16.3281,-229.84,99.3744,0,0,3.30455,1
1774536105765,-0.0803188,1.00977,-0.279051,16.458,-216.054,93.8095,0,0,3.26153,1
1774536105778,-0.117429,1.00537,-0.292968,16.084,-199.055,89.5499,0,0,3.58985,1
1774536105792,-0.179927,0.976565,-0.297363,13.7559,-174.78,82.9165,0,0,3.29053,1
1774536105805,-0.133792,0.996825,-0.262942,8.42785,-148.284,69.3521,0,0,3.63136,1
1774536105820,-0.18359,1.0105,-0.361809,8.59541,-115.018,54.398,0,0,3.31301,1
1774536105834,-0.212644,0.959232,-0.45678,11.2288,-83.0938,38.8942,0,0,3.2692,1
1774536105847,-0.203858,0.935793,-0.485105,12.3892,-50.9183,22.6576,0,0,3.3087,1
1774536105860,-0.234861,0.907961,-0.524167,12.4122,-18.1473,5.09283,0,0,3.25559,1
1774536105874,-0.068371,0.883303,-0.476322,11.5039,1.8383,-11.6248,0,0,3.85799,1
1774536105888,0.151596,0.957026,-0.450197,11,0.0688261,-18.1904,0,0,3.27133,1
1774536105901,0.0583561,0.955078,-0.481443,13.267,-1.94642,-14.8247,0,0,3.26153,1
1774536105915,-0.103993,0.905521,-0.47583,-0.151733,-0.106999,-8.83248,0,0,3.27473,1
1774536105928,-0.00879573,0.765635,-0.457033,3.11428,3.22114,-3.93927,0,0,3.27572,1
1774536105942,0.0217264,0.914052,-0.444825,5.32809,2.77866,-4.53431,0,0,3.28544,1
1774536105955,-0.0085428,0.897218,-0.470945,4.58784,2.76336,-1.82462,0,0,3.24385,1
1774536105973,-0.00976554,0.92285,-0.478759,2.11468,3.26714,1.28223,0,0,7.30893,1
1774536105986,0.0307589,0.959226,-0.473633,1.18327,1.59554,2.09155,0,0,3.43751,1
1774536106000,0.0427238,0.956787,-0.455812,0.786287,1.30536,1.96947,0,0,3.30207,5
1774536106013,0.0498042,0.93799,-0.462646,0.984719,0.633635,1.03823,0,0,3.26866,5
1774536106027,0.0537107,0.956298,-0.461182,1.27479,0.129806,-0.160221,0,0,3.27833,5
1774536106040,0.0336928,0.961914,-0.465332,2.35107,0.0763396,-0.2977,0,0,3.2532,5
1774536106054,0.0314943,0.952149,-0.456544,3.12208,0.129767,0.175539,0,0,3.23636,5
1774536106067,0.0507799,0.959472,-0.460693,4.60295,0.290065,0.00764534,0,0,3.25935,5
1774536106080,0.0349132,0.937502,-0.468505,4.32063,0.435104,0.9236,0,0,3.22944,5
1774536106094,0.0292973,0.937744,-0.47705,3.54967,1.32055,2.35105,0,0,3.27257,5
1774536106107,0.045409,0.928956,-0.478027,3.33589,1.47327,2.5496,0,0,3.24403,5
1774536106120,0.0559075,0.925781,-0.47998,2.79393,1.11453,1.2291,0,0,3.2712,5
1774536106134,0.0590818,0.935058,-0.465577,2.76336,0.221437,-1.22884,0,0,3.2776,5
1774536106147,0.0546878,0.944335,-0.479735,2.32064,-0.442702,-2.83958,0,0,3.26388,5
1774536106160,0.0559081,0.936768,-0.47583,2.37404,-0.824401,-4.90825,0,0,3.27283,5
1774536106174,0.041749,0.944335,-0.474121,2.58014,-1.77856,-5.81673,0,0,3.26688,5
1774536106187,0.04956,0.949218,-0.475586,2.87784,-2.35874,-6.54957,0,0,3.26273,5
1774536106200,0.0375985,0.933351,-0.480224,2.22142,-2.28245,-5.62602,0,0,3.24503,5
1774536106214,0.030274,0.9458,-0.472901,1.83209,-1.7634,-4.19094,0,0,3.25072,5
1774536106227,0.00732583,0.940674,-0.4729,1.24432,-1.08402,-1.93146,0,0,3.56357,5
1774536106241,0.0231922,0.940918,-0.484374,0.618364,-1.00764,-0.58788,0,0,3.23011,5
1774536106254,0.0371084,0.925294,-0.47876,0.732816,-0.396989,0.633502,0,0,3.25251,5
1774536106267,0.0290533,0.947752,-0.472413,0.687026,-0.343515,1.48086,0,0,3.23949,5
1774536106281,0.0329587,0.932862,-0.480712,0.381701,0.122105,2.09919,0,0,3.26042,5
1774536106294,0.0441887,0.931397,-0.47046,-0.175534,-0.145019,2.16793,0,0,3.23503,5
1774536106307,0.0395511,0.929688,-0.4729,-0.320601,-0.366397,1.90842,0,0,3.28538,5
1774536106321,0.0295417,0.950682,-0.473877,-0.358776,-0.671734,2.03053,0,0,3.44899,5
1774536106334,0.0385736,0.948731,-0.470703,0.022874,-0.900747,2.14503,0,0,3.3042,5
1774536106348,0.0383301,0.937989,-0.467041,0.00763465,-1.02289,1.4657,0,0,3.27262,5
1774536106361,0.0305181,0.930909,-0.478027,0.328222,-1.16793,1.63358,0,0,3.28523,5
1774536106375,0.0380854,0.950438,-0.475342,0.6183,-1.2748,1.32063,0,0,3.28125,5
1774536106388,0.0446773,0.942872,-0.467774,1.02287,-1.58013,0.763398,0,0,3.24455,5
1774536106402,0.0307627,0.935303,-0.473388,0.977102,-1.084,0.877855,0,0,3.27975,5
1774536106415,0.0407708,0.942138,-0.469727,0.961833,-1.49615,0.549641,0,0,3.27181,5
1774536106429,0.0380861,0.931153,-0.470703,0.938933,-1.65648,0.1527,0,0,3.84218,5
1774536106442,0.0395507,0.928223,-0.466797,0.427517,-1.75572,-0.0534207,0,0,3.27205,5
1774536106456,0.0366213,0.927979,-0.463379,-0.0305023,-1.38934,-0.0992334,0,0,3.2516,5
1774536106469,0.0390623,0.928467,-0.470703,-0.183195,-1.81676,-0.343494,0,0,3.27549,5
1774536106482,0.0363771,0.940673,-0.476074,-0.236637,-1.93892,-0.183217,0,0,3.24451,5
1774536106496,-0.0373484,0.934327,-0.479736,0.0381487,-0.78634,0.938853,0,0,3.32701,5
1774536106510,0.0217244,0.945312,-0.460451,-1.00756,-2.28997,-0.999864,0,0,3.27516,5
1774536106523,0.0393054,0.910647,-0.475585,-1.24426,-1.96949,0.0151961,0,0,3.62671,5
1774536106537,0.0344242,0.925048,-0.474121,-0.687062,-1.66414,0.0305333,0,0,3.27824,5
1774536106550,0.0234383,0.944335,-0.479248,-0.58016,-1.56489,0.129764,0,0,3.25199,5
1774536106564,0.0300288,0.946045,-0.47168,-0.839676,-1.57252,0.0992388,0,0,3.27905,5
1774536106577,0.0354,0.937012,-0.478027,-0.763364,-1.51909,0.366394,0,0,3.26033,5
1774536106590,0.0266119,0.94165,-0.468751,-0.580165,-1.35116,0.687,0,0,3.28936,5
1774536106604,0.0385734,0.947021,-0.469971,-0.343528,-1.54197,1.05341,0,0,3.25759,5
1774536106617,0.0363771,0.929933,-0.478027,-0.19085,-1.31299,1.44272,0,0,3.30294,5
1774536106631,0.0258796,0.937499,-0.473633,-0.412198,-1.4809,1.42748,0,0,3.62284,5
1774536106645,0.0371086,0.93335,-0.468262,-0.389315,-1.38169,1.24429,0,0,3.57588,3
1774536106658,0.0351564,0.939209,-0.477783,-0.366414,-1.54961,1.04582,0,0,3.2774,3
1774536106671,0.0305179,0.9375,-0.465577,-0.572505,-1.53435,1.12977,0,0,3.2586,3
1774536106685,0.0297852,0.936524,-0.474609,-0.404592,-1.54198,1.09161,0,0,3.3156,3
1774536106698,0.0251468,0.935303,-0.473877,-0.488544,-1.38169,1.60302,0,0,3.26192,3
1774536106712,0.026123,0.933838,-0.481445,-0.732807,-1.45801,1.87784,0,0,3.27085,3
1774536106725,0.0310055,0.931885,-0.476807,-0.816788,-1.29772,2.56484,0,0,3.26333,3
1774536106739,0.0266116,0.932129,-0.470948,-0.992354,-1.06872,2.59542,0,0,3.69542,3
1774536106752,0.0134287,0.937256,-0.475341,-1.51141,-1.0229,3.16027,0,0,3.26916,3
1774536106766,0.045652,0.940429,-0.47876,-1.05347,-1.12976,2.54966,0,0,3.24936,3
1774536106779,0.035157,0.94043,-0.472901,-1.19083,-1.15267,2.25193,0,0,3.28025,3
1774536106792,0.0314944,0.942627,-0.474609,-1.46563,-1.14504,2.06872,0,0,3.25922,3
1774536106806,0.0449209,0.939697,-0.479248,-1.79387,-1.24427,2.00764,0,0,3.29109,3
1774536106819,0.0454101,0.949706,-0.47168,-1.36644,-1.64883,1.38172,0,0,3.25587,3
1774536106833,0.0439454,0.95581,-0.470947,-0.931328,-2.22897,0.511511,0,0,4.09166,3
1774536106847,0.029542,0.942872,-0.4729,-0.519113,-2.35877,0.595414,0,0,3.31614,3
1774536106860,0.0336911,0.943848,-0.473633,-0.43512,-2.34351,0.786246,0,0,3.28773,3
1774536106875,0.0290531,0.937989,-0.474609,-0.450381,-2.12215,0.908388,0,0,3.30944,3
1774536106889,0.0317381,0.942138,-0.467042,-0.557244,-2.06871,1.28242,0,0,3.27079,3
1774536106904,0.0397944,0.933838,-0.47705,-0.587784,-1.86261,1.38167,0,0,3.30747,3
1774536106917,0.0383302,0.933106,-0.462892,-0.679383,-2.03052,1.15269,0,0,3.26653,3
1774536106931,0.0356447,0.934814,-0.475829,-0.801518,-1.9771,1.2519,0,0,3.32701,3
1774536106946,0.0368651,0.939697,-0.465577,-0.549636,-1.61835,1.27481,0,0,3.27622,3
1774536106961,0.0283209,0.938477,-0.46582,-0.534352,-2.0763,1.42747,0,0,5.16642,3
1774536106975,0.0349116,0.936524,-0.46997,-0.488553,-2.10687,1.55724,0,0,3.25505,3
1774536106988,0.0363769,0.939941,-0.472168,-0.755706,-2.25953,1.65648,0,0,3.27712,3
1774536107002,0.0295415,0.934327,-0.477539,-0.969451,-2.32061,1.64886,0,0,3.27262,3
1774536107015,0.0405266,0.931641,-0.481689,-1.27479,-2.91599,2.09921,0,0,3.69786,3
1774536107029,0.0390626,0.9375,-0.469972,-1.98468,-3.16029,2.62592,0,0,3.31051,3
1774536107042,0.0478509,0.922853,-0.470215,-3.28998,-3.55722,2.88548,0,0,3.26994,3
1774536107056,0.0498046,0.917237,-0.473633,-4.09155,-4.55718,2.93893,0,0,3.27783,3
1774536107069,0.0778789,0.906495,-0.518796,-4.56485,-7.43491,5.27465,0,0,3.25655,3
1774536107082,0.0988755,0.926756,-0.475101,-5.24423,-14.1598,9.1066,0,0,3.3024,3
1774536107096,0.393046,0.899416,-0.583977,-10.5263,-31.2125,13.3585,0,0,3.26231,3
1774536107109,0.658673,1.04418,-0.518071,-7.67959,-84.2864,29.35,0,0,3.59171,3
1774536107123,0.6438,0.753682,-0.481204,-14.9842,-134.92,50.5329,0,0,3.27436,3
1774536107137,0.506846,0.908436,-0.458254,-21.6942,-176.951,64.3654,0,0,3.65792,3
1774536107150,0.362559,0.955075,-0.4812,-20.2902,-210.616,72.8773,0,0,3.27992,3
1774536107163,0.229257,0.932619,-0.412358,-20.6488,-233.082,73.29,0,0,3.26075,3
1774536107177,0.0297991,1.00781,-0.380862,-21.0763,-243.717,66.0997,0,0,3.30873,3
1774536107190,-0.0549257,0.988771,-0.426022,-17.527,-240.336,67.7556,0,0,3.26607,3
1774536107204,-0.136469,1.06787,-0.530754,-9.39752,-224.955,63.5499,0,0,3.27429,3
1774536107217,-0.235833,1.1582,-0.655021,5.25088,-202.467,55.4204,0,0,3.26768,3
1774536107230,-0.325189,1.12891,-0.699948,24.1742,-171.445,47.199,0,0,3.26455,3
1774536107244,-0.136488,0.888445,-0.59864,25.9617,-146.132,46.5497,0,0,3.28329,3
1774536107257,0.00707003,0.978265,-0.595703,28.5647,-128.139,50.5875,0,0,3.25149,3
1774536107270,0.0632285,0.944827,-0.560305,30.5113,-116.398,53.3433,0,0,3.28705,3
1774536107284,0.0788563,0.939698,-0.536379,31.0534,-108.161,51.8551,0,0,3.25833,3
1774536107297,0.0380888,0.872563,-0.483402,27.7865,-99.7181,49.2521,0,0,3.3199,1
1774536107311,-0.0390571,0.920651,-0.466066,23.7026,-89.5732,46.0918,0,0,3.2711,1
1774536107324,-0.0939903,0.954832,-0.446046,22.8169,-77.7413,38.2296,0,0,3.28448,1
1774536107338,-0.11328,0.933107,-0.418703,21.9237,-66.558,27.6649,0,0,3.26875,1
1774536107351,-0.131835,0.895999,-0.399171,18.6644,-54.0009,23.611,0,0,3.29427,1
1774536107364,-0.133789,0.907714,-0.365725,15.5346,-40.4055,19.5423,0,0,3.28547,1
1774536107378,-0.0908233,0.900635,-0.348878,12.3666,-29.558,14.2065,0,0,3.28373,1
1774536107391,-0.0141655,0.891602,-0.319338,9.99253,-21.9776,11.9086,0,0,3.3159,1
1774536107405,0.0341763,0.864992,-0.266361,6.71015,-17.0156,17.6561,0,0,3.25559,1
1774536107418,0.0556626,0.843019,-0.234133,1.69501,-13.7941,22.0837,0,0,3.27818,1
1774536107431,-0.0351499,0.805911,-0.198489,-4.28202,-10.2674,19.5422,0,0,3.26798,1
1774536107445,-0.0644511,0.823241,-0.180421,-12.3124,-7.42005,13.1989,0,0,3.27901,1
1774536107458,-0.0651855,0.870114,-0.197264,-17.5951,-4.99254,5.94707,0,0,3.27212,1
1774536107471,-0.0402849,0.902341,-0.220946,-21.5646,-2.44293,1.3362,0,0,3.24483,1
1774536107485,0.00170605,0.955319,-0.262937,-23.1907,-0.320759,-1.11433,0,0,3.28433,1
1774536107498,0.0349098,0.966308,-0.323482,-22.4199,1.9922,-0.412263,0,0,3.25449,1
1774536107512,0.0510243,0.979247,-0.365964,-20.7635,4.87766,0.587716,0,0,3.28375,1
1774536107525,0.0766584,0.964112,-0.395262,-19.2825,7.94635,3.17539,0,0,3.26781,1
1774536107538,0.0588391,0.962891,-0.425779,-18.168,11.9081,7.19819,0,0,3.26859,1
1774536107552,0.0734853,1.01001,-0.470456,-13.5652,14.7861,6.20618,0,0,3.27927,1
1774536107565,0.120358,1.09741,-0.526607,-1.60389,12.3132,2.17585,0,0,3.25559,3
1774536107579,0.034674,1.239,-0.692859,7.13679,0.161156,-33.6005,0,0,3.32164,3
1774536107592,0.0839809,0.23884,-0.291776,5.67186,3.15246,-16.2608,0,0,3.2557,3
1774536107605,0.000494125,0.763879,-0.409171,0.63394,-2.92324,0.0293941,0,0,3.29455,3
1774536107619,0.0112297,1.40987,-0.451657,2.54185,0.389081,1.99223,0,0,3.27579,3
1774536107632,0.0563933,0.723925,-0.47412,-9.44191,-0.145001,4.48074,0,0,3.2552,5
1774536107645,0.0561524,0.801996,-0.443606,0.87714,-1.38923,0.954445,0,0,3.3834,5
1774536107659,0.00683939,0.992907,-0.466795,-0.343426,-1.25955,3.04566,0,0,3.26801,5
1774536107672,0.0380838,0.949222,-0.474121,-1.78616,-0.0535195,4.43502,0,0,3.28525,5
1774536107686,0.0571276,0.941407,-0.457765,-2.03815,0.748035,4.38168,0,0,3.26553,5
1774536107699,0.0346695,0.921388,-0.472411,-1.9542,1.09158,4.14505,0,0,3.28568,5
1774536107712,0.0532214,0.933593,-0.467774,-1.84734,1.10687,3.38173,0,0,3.27057,5
1774536107726,0.061767,0.938232,-0.458497,-1.93892,0.992374,2.023,0,0,3.27744,5
1774536107739,0.0695795,0.947753,-0.460937,-2.17556,0.213795,-0.0761889,0,0,3.2967,5
1774536107753,0.0473648,0.937012,-0.466308,-2.40456,-0.206077,-0.88544,0,0,3.30477,5
1774536107766,0.0598136,0.940185,-0.463623,-2.39695,-0.145042,-1.19082,0,0,3.31446,5
1774536107779,0.04712,0.934571,-0.465576,-3.15262,-0.2748,-0.671792,0,0,3.30051,5
1774536107793,0.0595694,0.941162,-0.455567,-3.59539,-0.480902,-0.824417,0,0,3.33025,5
1774536107806,0.0456553,0.941894,-0.457519,-3.41223,-0.435118,-1.03815,0,0,3.29984,5
1774536107820,0.0368658,0.953124,-0.462402,-3.19086,-0.557243,-0.839709,0,0,3.28892,5
1774536107833,0.0356446,0.945801,-0.45752,-2.99238,-0.473288,-0.847328,0,0,3.26605,5
1774536107846,0.0480948,0.944824,-0.449219,-2.91604,-0.480915,-1.29005,0,0,3.25523,5
1774536107860,0.036866,0.935548,-0.457031,-2.54964,-0.488549,-1.30534,0,0,3.2871,5
1774536107873,0.0480949,0.938965,-0.447999,-2.77861,-0.0153003,-0.778663,0,0,3.26622,5
1774536107887,0.0285658,0.929932,-0.44873,-2.83969,0.0457973,-0.511469,0,0,3.31966,5
1774536107901,0.045409,0.945067,-0.448486,-2.09929,0.274793,0.0152303,0,0,4.58642,5
1774536107915,0.0502926,0.912112,-0.440186,-2.41982,-0.274771,-0.50378,0,0,3.2832,5
1774536107928,0.0671375,0.93701,-0.441162,-1.9237,-0.984683,-1.17553,0,0,3.27088,5
1774536107941,0.0261259,0.926759,-0.449951,-2.32822,-1.03816,-1.30533,0,0,3.25757,5
1774536107955,0.0458971,0.9707,-0.447754,-1.70997,-1.45799,-1.84729,0,0,3.29236,5
1774536107968,0.0659166,0.977783,-0.457031,-0.305442,-2.54191,-4.44257,0,0,3.25587,5
1774536107982,0.0412615,0.969483,-0.459228,0.0915753,-2.53435,-5.15262,0,0,3.3007,5
1774536107995,0.0234387,0.950197,-0.46167,0.0458047,-2.49619,-4.11458,0,0,3.25838,5
1774536108008,0.0131843,0.995358,-0.466552,0.709877,-0.481057,-0.618565,0,0,3.26979,5
1774536108022,0.00756875,0.980714,-0.464356,0.862585,1.06096,2.66389,0,0,3.27175,5
1774536108035,0.012695,0.974854,-0.458497,0.92366,2.061,5.8929,0,0,3.25347,5
1774536108048,0.047605,0.960694,-0.452881,1.52668,2,6.45034,0,0,3.25714,5
1774536108062,0.0512693,0.948487,-0.447022,1.03057,1.74811,6.39695,0,0,3.2746,5
1774536108075,0.0593256,0.949707,-0.443116,1.79384,1.38934,4.66424,0,0,3.28253,5
1774536108088,0.0581056,0.922853,-0.460936,1.38171,0.236722,2.57267,0,0,3.24914,5
1774536108102,0.0620114,0.920166,-0.448243,0.73287,-0.671692,0.389466,0,0,3.25583,5
1774536108115,0.0639647,0.933593,-0.444092,0.801522,-1.94648,-2.25172,0,0,3.2457,5
1774536108129,0.0473644,0.932373,-0.446533,-0.0381092,-2.06869,-2.85492,0,0,3.27842,5
1774536108142,0.0378425,0.937988,-0.444336,-0.312958,-2.41982,-2.7252,0,0,3.26807,5
1774536108155,0.0305181,0.956053,-0.456786,-0.160316,-1.9924,-2.32827,0,0,3.3007,5
1774536108169,0.0400384,0.954834,-0.449708,0.167916,-1.83207,-1.93133,0,0,3.26512,5
1774536108182,0.0515129,0.949463,-0.454345,0.549592,-1.96182,-2.47324,0,0,3.24546,5
1774536108195,0.0271013,0.971922,-0.457031,0.984702,-1.32829,-1.29016,0,0,3.2539,5
1774536108209,0.0410147,0.968506,-0.455811,1.64881,-0.648903,-0.442807,0,0,3.2382,5
1774536108222,0.0341802,0.969726,-0.466552,1.97708,-0.564891,0.961734,0,0,3.27553,5
1774536108235,0.0383298,0.967285,-0.439699,2.51141,0.625871,2.19839,0,0,3.24427,5
1774536108249,0.0310064,0.972656,-0.463377,2.87784,0.0534752,4.08384,0,0,3.24627,5
1774536108262,0.0395502,0.953615,-0.453614,3.21372,-0.251887,4.88544,0,0,3.30009,5
1774536108276,0.0363772,0.941895,-0.463622,3.58013,0.00761542,5.32821,0,0,3.30583,5
1774536108289,0.0432124,0.929932,-0.457276,3.42749,-0.0915961,5.19085,0,0,3.29781,5
1774536108302,0.0458982,0.933349,-0.456543,3.03056,-0.343494,4.95422,0,0,3.25972,5
1774536108316,0.0629871,0.932861,-0.447022,3.22899,-0.656467,4.21379,0,0,3.27435,5
1774536108329,0.0578617,0.926758,-0.452148,2.6489,-0.961811,2.90086,0,0,3.24138,5
1774536108342,0.0566407,0.921143,-0.456054,2.20614,-1.36638,1.99243,0,0,3.25642,5
1774536108356,0.0539553,0.932128,-0.451905,2.09161,-1.84729,0.763445,0,0,3.52831,5
1774536108369,0.0520021,0.920899,-0.453613,1.55729,-1.96946,0.122182,0,0,3.23957,5
1774536108383,0.0473636,0.918457,-0.45581,1.03057,-1.72521,-0.160286,0,0,3.25496,5
1774536108396,0.0473633,0.925537,-0.456299,0.442789,-1.73282,-0.541958,0,0,3.35346,5
1774536108410,0.0502928,0.941405,-0.461425,0.0763615,-2.02288,-0.95417,0,0,3.36886,5
1774536108423,0.0422369,0.937744,-0.458496,0.129767,-2.0229,-1.03816,0,0,3.32336,5
1774536108437,0.0402833,0.948486,-0.463623,0.290065,-1.9542,-0.480955,0,0,3.27699,5
1774536108450,0.0407715,0.947998,-0.462402,0.603032,-1.93893,-0.0152998,0,0,3.26868,5
1774536108463,0.0429686,0.94751,-0.460693,1.11447,-1.77864,0.412184,0,0,3.26788,5
1774536108477,0.0378422,0.941651,-0.469238,1.14504,-1.82442,0.763334,0,0,3.25866,5
1774536108490,0.0390624,0.936768,-0.458497,1.2519,-1.6336,0.91602,0,0,3.23716,5
1774536108503,0.0468745,0.934082,-0.45752,1.23664,-1.53436,0.404616,0,0,3.24701,5
1774536108517,0.0385748,0.934082,-0.457031,0.832089,-1.13743,0.389314,0,0,3.23827,5
1774536108530,0.0476068,0.927491,-0.46289,0.465675,-1.03817,-0.274763,0,0,3.25992,5
1774536108543,0.0454103,0.930664,-0.455811,0.0458309,-0.694681,-0.557232,0,0,3.26416,5
1774536108557,0.0427248,0.932129,-0.460205,-0.251888,-0.389334,-0.442756,0,0,3.35714,5
1774536108570,0.0432129,0.9375,-0.46167,-0.335872,-0.534341,-0.656474,0,0,3.25857,5
1774536108584,0.0424805,0.935791,-0.466797,-0.564869,-0.374057,-0.366433,0,0,3.24631,5
1774536108597,0.0402834,0.940429,-0.468017,-0.633583,-0.519074,-0.33588,0,0,3.27485,5
1774536108610,0.0476069,0.94043,-0.464844,-0.778616,-0.656479,-0.419841,0,0,3.24272,5
1774536108624,0.048828,0.952148,-0.455323,-0.251945,-1.06867,-0.908363,0,0,3.25457,5
1774536108637,0.0405279,0.939454,-0.460937,-0.0229168,-1.29769,-1.17555,0,0,3.23862,5
1774536108650,0.0463863,0.938233,-0.463623,-0.14503,-1.69463,-1.53433,0,0,3.23123,5
1774536108664,0.041016,0.938721,-0.460694,0.160284,-1.67939,-2.37399,0,0,3.29727,5
1774536108677,0.0344243,0.947021,-0.459473,0.229003,-1.76335,-2.86256,0,0,3.2646,5
1774536108690,0.0478506,0.960448,-0.452881,1.13734,-1.6107,-2.88549,0,0,3.29903,5
1774536108704,0.0380866,0.949464,-0.463866,1.65645,-1.51146,-2.98473,0,0,3.26129,5
1774536108717,0.0295416,0.942627,-0.466797,1.93891,-0.908439,-1.89321,0,0,3.29275,5
1774536108731,0.0297851,0.945556,-0.462159,1.67177,-0.396982,-1.06113,0,0,3.23497,5
1774536108744,0.0390619,0.965575,-0.466552,2.22897,-0.618305,-0.557287,0,0,3.24409,5
1774536108757,0.0390625,0.959717,-0.461914,3.62586,-1.2595,-0.274829,0,0,3.27514,5
1774536108771,0.0249033,0.966308,-0.462891,3.54962,-1.3893,0.427432,0,0,3.25499,5
1774536108784,0.0288083,0.936526,-0.468505,3.84731,-1.37405,1.25948,0,0,3.24947,5
1774536108797,0.0349117,0.948485,-0.469726,4.08395,-1.01529,1.93125,0,0,3.26027,5
1774536108811,0.0371092,0.940918,-0.46875,4.24426,-1.0458,2.40455,0,0,3.29633,5
1774536108824,0.0334475,0.93335,-0.471191,4.23664,-0.854975,2.687,0,0,3.3216,5
1774536108837,0.0378415,0.942138,-0.474365,4.29771,-0.839696,2.86258,0,0,3.27259,5
1774536108851,0.0310063,0.9375,-0.475098,4.21375,-0.313014,3.07632,0,0,3.25644,5
1774536108864,0.0410149,0.939453,-0.471924,4.60303,-0.488537,3.08397,0,0,3.26185,5
1774536108877,0.0410156,0.932129,-0.479736,4.21377,-0.38932,2.77101,0,0,3.25533,5
1774536108891,0.0412597,0.931397,-0.478027,3.84735,-0.38168,2.62596,0,0,3.23636,5
1774536108904,0.0383303,0.920655,-0.474854,3.46568,0.122102,2.70228,0,0,3.24881,5
1774536108918,0.0334476,0.93286,-0.470459,3.16796,0.0305408,2.51146,0,0,3.26323,5
1774536108931,0.0373532,0.928223,-0.478271,2.80919,0.503784,2.78624,0,0,3.26638,5
1774536108944,0.0380859,0.933837,-0.481201,2.35118,0.755708,3.09158,0,0,3.29794,5
1774536108958,0.0393066,0.925049,-0.476075,1.8092,0.694661,3.23663,0,0,3.2766,5
1774536108971,0.0463862,0.932861,-0.482666,1.85496,0.717556,3.04581,0,0,3.29038,5
1774536108984,0.0439455,0.928223,-0.484619,1.04586,0.358804,3.2061,0,0,3.26242,5
1774536108998,0.0605457,0.922852,-0.473634,1.0916,0.534339,3.07634,0,0,3.25753,5
1774536109011,0.0541997,0.927734,-0.474853,0.664152,0.28246,2.84734,0,0,3.23644,5
1774536109025,0.0483403,0.936035,-0.478271,-0.114449,0.0152859,2.56491,0,0,3.25696,5
1774536109038,0.0456545,0.927003,-0.479492,-0.564854,0.19846,2.65648,0,0,3.24707,5
1774536109051,0.0480955,0.935058,-0.486084,-0.786244,0.0916105,2.86258,0,0,3.23433,5
1774536109065,0.0490722,0.928711,-0.478028,-1.15265,-0.0992233,2.14509,0,0,3.26999,5
1774536109078,0.0336925,0.927979,-0.476074,-1.45799,0.358747,2.70225,0,0,3.27618,5
1774536109091,0.056639,0.939452,-0.486083,-1.52671,0.31298,2.75572,0,0,3.26938,5
1774536109105,0.0541994,0.926515,-0.480225,-1.77861,0.122151,1.90082,0,0,3.29583,5
1774536109118,0.0512697,0.923828,-0.475098,-1.96945,0.343496,1.75574,0,0,3.31557,5
1774536109132,0.0512695,0.927978,-0.473877,-2.03053,0.343511,1.32064,0,0,3.25122,5
1774536109145,0.0610345,0.932861,-0.47168,-1.92367,-0.0228751,0.0993221,0,0,3.23899,5
1774536109158,0.0664059,0.925538,-0.473144,-2.39691,-0.854904,-1.12205,0,0,3.24836,5
1774536109172,0.060059,0.929931,-0.469483,-2.29008,-0.992357,-1.61829,0,0,3.27927,5
1774536109185,0.0449229,0.949217,-0.472412,-2.01529,-0.954201,-1.41223,0,0,3.27396,5
1774536109198,0.037354,0.956298,-0.476806,-1.94657,-0.389353,-0.114595,0,0,3.27314,5
1774536109212,0.046142,0.957031,-0.47583,-1.45805,-0.419845,0.328213,0,0,3.28309,5
1774536109225,0.0500486,0.95874,-0.470215,-0.832105,-0.610674,0.412208,0,0,3.24294,5
1774536109238,0.0468752,0.956299,-0.473388,-0.687033,-0.786247,0.656471,0,0,3.24199,5
1774536109252,0.0463868,0.941163,-0.474121,-0.549628,-0.824425,0.648855,0,0,3.23764,5
1774536109265,0.0478515,0.947021,-0.48413,-0.0305707,-0.900758,1.11447,0,0,3.52755,5
1774536109279,0.0578606,0.945557,-0.472657,-0.122131,-1.04579,1.09924,0,0,3.27259,5
1774536109292,0.053223,0.941162,-0.470459,-0.183202,-1.16793,1.17557,0,0,3.29377,5
1774536109306,0.0595699,0.937989,-0.467774,0.213713,-1.30533,0.809186,0,0,3.30023,5
1774536109319,0.0537113,0.926026,-0.477294,-0.114481,-1.58777,0.267214,0,0,3.23947,5
1774536109332,0.0527344,0.923584,-0.474121,-0.587753,-1.49619,-0.374001,0,0,3.23375,5
1774536109346,0.0739731,0.92334,-0.467286,-0.732814,-2.50375,-2.06858,0,0,3.24475,5
1774536109359,0.0463886,0.931884,-0.473876,-1.16028,-2.70228,-2.85491,0,0,3.23722,5
1774536109372,0.0524898,0.929688,-0.47168,-1.08397,-3.07631,-3.82436,0,0,3.27177,5
1774536109386,0.0451665,0.933593,-0.478027,-1.229,-3.40456,-4.54957,0,0,3.23896,3
1774536109399,0.0388188,0.929932,-0.465089,-1.5496,-3.35115,-5.06103,0,0,3.25344,3
1774536109412,0.0454097,0.919434,-0.4812,-1.99997,-2.91606,-4.69468,0,0,3.23036,3
1774536109426,0.0410159,0.944334,-0.470948,-2.51141,-2.60308,-4.32827,0,0,3.62044,3
1774536109440,0.0351567,0.9292,-0.476318,-3.28239,-2.21377,-3.63364,0,0,3.32112,3
1774536109453,0.0209971,0.950926,-0.471924,-3.63356,-1.93895,-2.51153,0,0,3.27631,3
1774536109468,0.0219726,0.945557,-0.465821,-3.83968,-1.48858,-0.725316,0,0,3.44766,3
1774536109481,0.0334465,0.960936,-0.474609,-3.48857,-1.02293,0.167876,0,0,3.27251,3
1774536109494,0.0373532,0.967041,-0.479248,-2.9924,-1.08397,1.00757,0,0,3.2782,3
1774536109508,0.0346682,0.950685,-0.470215,-2.15273,-0.725216,1.96177,0,0,3.25175,3
1774536109522,0.0341797,0.947998,-0.46875,-1.89315,-0.824421,2.41982,0,0,3.25429,3
1774536109535,0.0397945,0.944824,-0.468506,-1.58781,-0.75573,2.70227,0,0,3.23994,3
1774536109548,0.0429685,0.932862,-0.468994,-1.51909,-1.24424,2.25957,0,0,3.24046,3
1774536109562,0.04541,0.937011,-0.459473,-1.42749,-1.61066,1.6947,0,0,3.24185,3
1774536109575,0.0581046,0.930176,-0.472655,-1.51908,-2.09157,0.786323,0,0,3.25918,3
1774536109589,0.0480964,0.931396,-0.470215,-1.37406,-2.19847,0.175615,0,0,3.25677,3
1774536109602,0.0454103,0.938476,-0.467285,-1.00766,-2.19847,-0.587733,0,0,3.78327,3
1774536109616,0.0412601,0.942383,-0.46045,-0.64888,-2.4122,-1.2137,0,0,3.25216,3
1774536109633,0.0390627,0.946289,-0.466796,-0.0992751,-2.09926,-1.22901,0,0,5.05042,3
1774536109646,0.0366213,0.948242,-0.4646,0.228985,-1.65652,-0.763391,0,0,3.28268,3
1774536109659,0.0297856,0.948975,-0.463623,0.587761,-1.72519,-0.229045,0,0,3.2401,3
1774536109673,0.0344235,0.94458,-0.464355,0.816778,-1.64123,0.198443,0,0,3.26742,3
1774536109686,0.0271001,0.950683,-0.474853,1.28241,-1.3359,0.625924,0,0,3.23535,3
1774536109699,0.029785,0.934571,-0.462159,1.16031,-1.09162,1.05341,0,0,3.22686,3
1774536109713,0.0356441,0.943359,-0.470703,1.21374,-1.00764,1.55722,0,0,3.23094,3
1774536109726,0.0373534,0.942871,-0.467041,1.47326,-1.22136,1.80914,0,0,3.23166,3
1774536109739,0.0412595,0.942139,-0.47705,1.43512,-0.893153,1.96182,0,0,3.24462,3
1774536109753,0.0412598,0.941895,-0.46045,1.40458,-1.00763,1.9313,0,0,3.23077,3
1774536109766,0.0400391,0.930177,-0.464111,1.32825,-0.702311,2.08396,0,0,3.24533,3
1774536109784,0.0344242,0.929932,-0.470703,0.7176,-0.4275,2.10687,0,0,3.58333,3
1774536109797,0.0341797,0.928711,-0.472656,0.4504,-0.412215,1.86261,0,0,3.27646,3
1774536109811,0.0432123,0.927246,-0.46753,0.152693,-0.335883,1.771,0,0,3.30868,3
1774536109824,0.0449218,0.936279,-0.465088,-0.244247,-0.175584,1.48857,0,0,3.25485,3
1774536109838,0.0395512,0.931397,-0.473144,-0.290073,-0.206105,1.23666,0,0,3.24701,5
1774536109851,0.0437009,0.936523,-0.475586,-0.305342,-0.083978,0.793924,0,0,3.2336,5
1774536109864,0.0476071,0.935791,-0.470215,-0.389307,-0.396925,0.427507,0,0,3.22975,5
1774536109878,0.0429691,0.93872,-0.468018,-0.183221,-0.435112,0.221388,0,0,3.25597,5
1774536109891,0.0397951,0.935791,-0.474121,-0.328234,-0.404582,0.129777,0,0,3.24816,5
1774536109904,0.0349125,0.937012,-0.472168,-0.488538,-0.488544,0.198468,0,0,3.23372,5
1774536109918,0.0444329,0.944335,-0.47168,-0.374054,-0.29009,0.427465,0,0,3.22683,5
1774536109931,0.0383305,0.941895,-0.47168,-0.488542,-0.297709,0.343517,0,0,3.23035,5
1774536109944,0.0385742,0.945068,-0.47168,-0.251925,-0.503802,0.419842,0,0,3.22598,5
1774536109961,0.0363771,0.948974,-0.470215,-0.0610821,-0.473285,0.816766,0,0,7.21519,5
1774536109975,0.0412594,0.952881,-0.470703,0.61064,-0.450383,0.954189,0,0,3.28497,5
1774536109988,0.0371097,0.95874,-0.46045,1.04577,-0.59541,1.10686,0,0,3.27557,5
1774536110002,0.0446772,0.947999,-0.462158,1.76331,-0.664117,1.38929,0,0,3.25992,5
1774536110015,0.0417483,0.952392,-0.471191,2.45797,-0.480929,1.67174,0,0,3.70859,5
1774536110029,0.0366215,0.953125,-0.465577,2.70991,-0.343521,2.00761,0,0,3.24936,5
1774536110042,0.0310063,0.939698,-0.468506,2.77099,-0.21375,2.39692,0,0,3.23409,5
1774536110055,0.0400384,0.954101,-0.464112,3.25187,-0.129777,2.99996,0,0,3.23064,5
1774536110069,0.0410156,0.949219,-0.466064,3.4122,-0.206102,3.24426,0,0,3.23272,5
1774536110082,0.0402833,0.947998,-0.457764,3.78623,-0.0534458,3.5725,0,0,3.2632,5
1774536110095,0.039795,0.947266,-0.468993,4.15265,0.0228954,3.93127,0,0,3.23077,5
1774536110109,0.0424803,0.944092,-0.47705,3.89315,0.0229008,4.52668,0,0,3.24372,5
1774536110122,0.0485836,0.946777,-0.47461,4.52667,-0.0305306,4.084,0,0,3.24873,5
1774536110135,0.0488281,0.963134,-0.470948,5.64114,-0.0915988,4.43509,0,0,3.36786,5
1774536110149,0.0668933,0.979003,-0.474853,7.45026,-0.343494,4.06109,0,0,3.32157,5
1774536110162,0.0510265,0.952883,-0.467042,8.60297,-0.343511,4.45035,0,0,3.2647,5
1774536110176,0.0617668,1.00268,-0.471435,11.9616,-0.526705,3.86264,0,0,3.3287,5
1774536110189,0.0871564,0.980714,-0.494139,15.6639,-1.22896,5.5724,0,0,3.26407,5
1774536110202,0.164789,0.97583,-0.393562,17.206,-4.48069,8.43491,0,0,3.24792,5
1774536110216,-0.0678548,1.49093,-0.517569,31.2967,-2.42762,13.9462,0,0,3.23709,5
1774536110229,0.0402756,0.948524,-0.517822,39.7322,1.37378,14.977,0,0,3.24273,5
1774536110242,0.0080589,1.1494,-0.616204,40.5343,2.5877,23.1445,0,0,3.24081,5
1774536110256,0.109368,0.969007,-0.572757,42.8014,0.0612455,38.5867,0,0,3.23401,5
1774536110269,0.0593297,1.13109,-0.613278,52.3047,1.64874,27.039,0,0,3.24005,5
1774536110283,0.116939,1.33226,-0.544438,71.388,1.03058,23.298,0,0,3.26672,5
1774536110296,0.140867,1.15431,-0.563475,81.7932,-0.892995,23.3435,0,0,3.58088,5
1774536110310,0.124757,1.20874,-0.550538,93.5564,-1.85489,18.7102,0,0,3.29925,5
1774536110323,0.156736,1.3496,-0.590085,109.518,-4.22121,15.7865,0,0,3.25655,5
1774536110336,0.174071,1.33911,-0.596435,124.037,-8.09133,11.3744,0,0,3.24942,5
1774536110350,0.195799,1.43578,-0.588868,140.938,-11.2364,6.80185,0,0,3.23981,5
1774536110363,0.185792,1.51953,-0.6062,157.831,-14.8242,2.0385,0,0,3.2366,5
1774536110376,0.232174,1.73021,-0.633543,181.441,-20.2744,-0.953989,0,0,3.24014,5
1774536110390,0.264402,1.57301,-0.614259,201.289,-26.0225,-5.44243,0,0,3.27547,5
1774536110403,0.295652,1.48365,-0.625243,214.793,-31.0607,-10.763,0,0,3.23997,5
1774536110416,0.359126,1.40894,-0.76293,226.213,-37.1446,-11.3587,0,0,3.24162,5
1774536110430,0.376952,1.07595,-0.693364,228.649,-46.5337,-22.1367,0,0,3.24307,5
1774536110443,0.292242,1.44773,-0.768061,228.328,-45.2215,-25.5341,0,0,3.2851,5
1774536110456,0.146983,1.36255,-0.123336,246.312,-43.0841,-12.5811,0,0,3.27055,5
1774536110470,0.141114,-0.490349,0.239232,201.591,-42.4123,-26.3578,0,0,3.28966,5
1774536110484,-0.104719,-0.875461,0.799521,94.0915,-27.3064,-37.4267,0,0,3.76297,3
1774536110497,-0.0107488,0.497218,0.0227594,29.0962,-8.83335,-30.8707,0,0,3.30981,3
1774536110511,0.0756775,0.160668,0.283185,-6.70742,3.38082,-12.6959,0,0,3.32059,3
1774536110524,0.139644,0.770953,0.0988899,-25.2048,6.02272,0.686086,0,0,3.28259,3
1774536110537,0.107912,0.553482,0.133298,-37.2129,6.38165,6.61791,0,0,3.23651,3
1774536110551,0.0327201,0.371107,0.165281,-63.1585,9.69442,9.23646,0,0,3.25433,3
1774536110564,2.29009e-06,0.366944,0.190916,-92.9063,14.0608,9.32824,0,0,3.24118,3
1774536110577,0.00219711,0.419674,0.166994,-122.983,18.2898,7.61844,0,0,3.2397,3
1774536110591,0.0224595,0.513909,0.143556,-149.395,21.5799,6.24437,0,0,3.25925,3
1774536110605,0.0466292,0.613518,0.103763,-172.197,24.2975,9.46542,0,0,3.82681,3
1774536110620,0.0756816,0.673336,0.0632353,-193.93,25.9922,14.0073,0,0,4.86242,3
1774536110634,0.0969223,0.788566,-0.0117135,-217.204,26.2672,15.977,0,0,3.8102,3
1774536110647,0.132322,0.943349,-0.102777,-233.037,24.336,17.1679,0,0,3.32486,3
1774536110660,0.183102,1.04052,-0.211174,-246.091,19.153,20.1067,0,0,3.25114,3
1774536110676,0.206053,1.19774,-0.335441,-250.137,11.4662,21.4121,0,0,3.64429,3
1774536110689,0.202637,1.30956,-0.447502,-250.137,4.41271,26.5645,0,0,3.2579,3
1774536110702,0.215331,1.39355,-0.561515,-250.137,-2.20564,34.8849,0,0,3.25405,5
1774536110716,0.15186,1.46337,-0.671623,-250.137,-7.43475,42.1598,0,0,3.24646,5
1774536110729,0.0114844,1.51489,-0.779289,-250.137,-7.98469,42.5114,0,0,3.24409,5
1774536110742,-0.0671332,1.51978,-0.828854,-249.313,-3.62626,35.4967,0,0,3.23125,5
1774536110756,-0.071777,1.51807,-0.854979,-242.268,3.67124,25.7869,0,0,3.23901,5
1774536110769,-0.0102582,1.50586,-0.850586,-234.237,12.0681,21.3209,0,0,3.23194,5
1774536110782,0.0495564,1.46582,-0.884519,-227.207,20.6941,22.3816,0,0,3.25388,5
1774536110796,-1.87316,3.9997,-1.79413,-33.9296,6.00866,-57.1013,0,0,3.28033,5
1774536110809,0.11363,1.29951,-1.57985,-190.462,-5.28929,-57.7862,0,0,3.24853,5
1774536110822,-0.03539,0.0552629,-1.20047,-150.904,14.1742,-13.0795,0,0,3.29568,5
1774536110836,-0.179433,1.49721,-1.61813,-130.162,24.4649,-6.6722,0,0,3.27599,5
1774536110849,-0.418684,1.32643,-1.59448,-121.146,37.3426,-13.6789,0,0,3.29355,5
1774536110863,-0.376224,1.22486,-1.78661,-86.5749,49.7778,-32.2277,0,0,3.24751,5
1774536110876,-0.0107678,1.44383,-1.98534,-28.9582,50.9846,-46.2204,0,0,3.24047,5
1774536110889,0.370335,1.75755,-2.26951,61.6501,43.5883,-17.9638,0,0,3.27022,5
1774536110903,0.63255,1.57423,-2.23242,162.558,18.8567,4.43355,0,0,3.23903,5
1774536110916,0.392351,1.45484,-0.312146,134.552,-13.2115,18.4036,0,0,3.24736,5
1774536110929,0.225842,1.05276,-0.149425,118.65,-21.6864,5.55815,0,0,3.24292,5
1774536110943,0.193606,1.04126,-0.182615,132.144,-25.099,-9.78519,0,0,3.24992,5
1774536110956,-0.0278165,0.952887,-0.28637,127.413,-23.2062,-10.229,0,0,3.25516,5
1774536110969,0.0449168,1.00488,-0.281006,116.741,-13.4969,-11.9846,0,0,3.26642,5
1774536110983,0.0849581,0.957279,-0.32861,107.283,-9.15298,-16.3508,0,0,3.29481,5
1774536110996,0.00586491,0.961181,-0.333984,99.3822,-6.96199,-15.3054,0,0,3.27397,5
1774536111010,-0.105949,0.947755,-0.347899,92.0463,-0.771426,-8.89358,0,0,3.41723,5
1774536111023,0.00829278,0.950928,-0.370848,86.0004,3.1295,-4.61862,0,0,3.38842,5
1774536111037,0.00781253,0.925539,-0.409909,78.9165,3.06107,1.08357,0,0,3.29055,5
1774536111050,0.00878899,0.921143,-0.4104,71.6799,2.75575,8.67886,0,0,3.26485,5
1774536111064,0.0300278,0.89551,-0.417968,64.8936,1.07645,13.1371,0,0,3.24744,5
1774536111077,0.0170907,0.897461,-0.443602,58.4279,2.9617,15.9158,0,0,3.24822,5
1774536111090,0.0539525,0.804206,-0.587881,48.2297,5.01512,14.7329,0,0,3.26818,5
1774536111104,0.0827617,0.921867,-0.481453,34.8635,2.67192,8.57295,0,0,3.26364,5
1774536111117,0.105467,0.938475,-0.454103,31.1148,0.420005,2.82483,0,0,3.23912,5
1774536111130,0.0654325,0.90137,-0.466308,28.6567,-0.228962,-0.602814,0,0,3.32627,5
1774536111144,0.0827625,0.932615,-0.447755,27.1604,-2.04567,-2.33576,0,0,3.25833,5
1774536111157,0.111082,0.591821,-0.540765,16.3595,-2.73278,-7.64085,0,0,3.28896,5
1774536111171,-0.00365408,1.00241,-0.468755,4.73364,-3.67932,-8.05341,0,0,3.26981,5
1774536111186,0.0910578,0.783463,-0.437502,2.45817,-3.04585,-8.9923,0,0,4.93284,5
1774536111199,0.0205128,0.916006,-0.489987,4.98456,-0.99251,-7.1528,0,0,3.2806,5
1774536111212,0.0156253,0.947263,-0.468751,3.0612,0.160225,-4.87802,0,0,3.24783,5
1774536111226,0.0224605,0.918703,-0.470215,2.0993,1.87011,-3.23676,0,0,3.27494,5
1774536111239,0.0173343,0.952146,-0.468506,2.38166,3.5037,-0.763532,0,0,3.2379,5
1774536111252,0.0480936,0.928468,-0.44922,1.7863,4.10683,-0.0916501,0,0,3.2734,5
1774536111266,0.0336924,0.958982,-0.461669,2.45034,3.78628,1.45791,0,0,3.23944,5
1774536111279,0.0478506,0.959473,-0.468505,2.30535,3.02295,2.38925,0,0,3.23803,5
1774536111293,0.0617666,0.952881,-0.474853,1.93896,1.81688,2.58777,0,0,3.34659,5
1774536111306,0.0661618,0.950684,-0.481689,1.62598,-0.473122,2.90074,0,0,3.27251,5
1774536111319,0.0456557,0.965575,-0.472901,1.32063,-1.94646,2.9313,0,0,3.2714,5
1774536111333,0.0461425,0.961426,-0.47998,1.30534,-2.8778,2.36645,0,0,3.27253,5
1774536111346,0.0454102,0.966308,-0.476563,1.84729,-3.18318,2.03819,0,0,3.33701,5
1774536111360,0.0561516,0.969726,-0.472168,3.04572,-2.99238,0.824512,0,0,3.24873,5
1774536111373,0.0383313,0.972168,-0.470703,4.31289,-1.71765,0.671766,0,0,3.52905,5
1774536111386,0.0527334,0.965821,-0.470703,5.41977,-0.786325,0.610691,0,0,3.25794,5
1774536111400,0.053955,0.947267,-0.472168,6.7022,-0.389341,0.129805,0,0,3.26096,5
1774536111413,0.0361341,0.949463,-0.477295,6.45803,0.206065,0.587754,0,0,3.26268,5
1774536111426,0.0500479,0.937745,-0.472901,6.31299,-0.0839492,0.625952,0,0,3.24123,5
1774536111440,0.0441899,0.943603,-0.466309,6.51907,-0.496154,1.1908,0,0,3.25101,5
1774536111453,0.0563956,0.938233,-0.476806,6.48855,-1.52665,1.229,0,0,3.23931,5
1774536111467,0.0588377,0.929444,-0.478027,6.58015,-3.03806,-0.00754704,0,0,3.64423,5
1774536111480,0.0588379,0.916993,-0.481201,5.89318,-3.80147,-0.732774,0,0,3.25964,5
1774536111494,0.0651851,0.91211,-0.472901,5.8626,-4.64116,-2.94641,0,0,3.40105,5
1774536111507,0.0671385,0.931883,-0.481933,6.01526,-5.34346,-4.74797,0,0,3.2719,5
1774536111520,0.0517589,0.931641,-0.480469,6.32059,-5.12215,-5.34347,0,0,3.23684,5
1774536111534,0.0312514,0.928223,-0.486328,6.53434,-4.14511,-4.83973,0,0,3.28781,5
1774536111547,0.0205086,0.921631,-0.494384,6.41986,-3.05351,-3.35125,0,0,3.36707,5
1774536111561,0.010987,0.92456,-0.498047,5.64891,-1.97717,-1.16046,0,0,3.62942,5
1774536111574,0.024169,0.924805,-0.49585,5.44276,-1.52675,0.198378,0,0,3.23838,5
1774536111588,0.0241699,0.931152,-0.496338,4.77104,-1.07637,1.91591,0,0,3.2386,5
1774536111601,0.0236817,0.940429,-0.492432,4.6107,-0.748115,3.22892,0,0,3.27655,5
1774536111614,0.0305171,0.91675,-0.484864,4.77098,-0.740459,3.64119,0,0,3.27336,5
1774536111628,0.0126966,0.917236,-0.488037,4.22141,0.221307,5.19073,0,0,3.27659,5
1774536111641,-0.00341684,0.959226,-0.496826,4.5496,1.73272,8.39672,0,0,3.29886,5
1774536111655,0.0375948,0.970214,-0.509765,5.40452,1.60306,8.90073,0,0,3.27633,5
1774536111668,0.0388183,0.959229,-0.501221,7.34338,3.37392,9.86253,0,0,3.26934,5
1774536111682,0.0554188,0.989744,-0.506347,9.94638,1.35892,10.145,0,0,3.57979,5
1774536111695,0.106198,0.940189,-0.505859,12.1373,-0.450255,8.5879,0,0,3.28662,5
1774536111708,0.130614,0.974119,-0.509521,11.3588,-4.29744,9.86251,0,0,3.27636,5
1774536111722,0.109865,0.916264,-0.499268,17.0607,-5.83195,9.17562,0,0,3.29357,5
1774536111735,0.122069,1.15428,-0.507812,22.8088,-11.2744,12.1448,0,0,3.26488,5
1774536111749,0.178707,1.48093,-0.593256,28.6942,-17.3202,13.6945,0,0,3.34494,5
1774536111762,-0.133523,1.31251,-0.559084,62.8449,-5.74127,19.2592,0,0,3.26246,5
1774536111776,0.0156146,1.06569,-0.586424,67.7859,-4.67946,43.5021,0,0,3.74866,5
1774536111789,-0.213607,1.6152,-0.65893,87.8917,-2.06125,15.9256,0,0,3.27155,5
1774536111803,0.0661425,1.51758,-0.543465,119.418,2.57219,26.1672,0,0,3.27147,5
