timestamp,ax,ay,az,gx,gy,gz,roll_k,pitch_k,delay_ms,arquivo_id,arquivo_nome,Fase,tem_rotulo_real,tempo_s,roll,acc_norm,gyro_norm,d_ax,dd_ax,d_ay,dd_ay,d_az,dd_az,d_gx,dd_gx,d_gy,dd_gy,d_gz,dd_gz,d_roll,dd_roll,d_pitch_k,dd_pitch_k,d_acc_norm,dd_acc_norm,d_gyro_norm,dd_gyro_norm,jerk_acc,jerk_gyro,classe_prevista,classe_prevista_nome,confianca_prevista
1774392234761,0.0303672,1.00042,-0.0310961,0.106554,-0.92854,0.654544,0,-1.581249902070883,3.26421,999,log_felix4.csv,0,False,0.0,83.51185371342257,1.0013637254619572,1.1410381827318488,0.0,0.0,0.0,0.0,0.0,0.0,0.0,0.0,0.0,0.0,0.0,0.0,0.0,0.0,0.0,0.0,0.0,0.0,0.0,0.0,0.0,0.0,2,Foot-flat,1.0
1774392234774,0.0254153,1.00243,-0.0295487,0.0688152,-0.984565,0.618429,0,-1.5161646365707635,3.26693,999,log_felix4.csv,0,False,0.013,87.62029566139955,1.0031874042499636,1.1647137841620319,-0.004951900000000002,-0.004951900000000002,0.0020099999999998452,0.0020099999999998452,0.0015474000000000009,0.0015474000000000009,-0.03773879999999999,-0.03773879999999999,-0.05602499999999999,-0.05602499999999999,-0.03611500000000001,-0.03611500000000001,4.108441947976985,4.108441947976985,0.0650852655001195,0.0650852655001195,0.0018236787880063776,0.0018236787880063776,0.023675601430183102,0.023675601430183102,0.0018236787880063776,0.023675601430183102,2,Foot-flat,1.0
1774392234788,0.0370515,1.00414,-0.0249253,0.0382593,-0.969511,0.603099,0,-1.740376260250035,3.33464,999,log_felix4.csv,0,False,0.027,89.04956553728539,1.0051324409411628,1.142428884858261,0.011636200000000003,0.016588100000000005,0.0017100000000001003,-0.0002999999999997449,0.0046234,0.003075999999999999,-0.030555900000000004,0.007182899999999985,0.015054000000000012,0.071079,-0.015329999999999955,0.020785000000000053,1.4292698758858364,-2.6791720720911485,-0.2242116236792715,-0.289296889179391,0.0019450366911992756,0.00012135790319289796,-0.022284899303770755,-0.04596050073395386,0.0019450366911992756,-0.022284899303770755,2,Foot-flat,1.0
1774392234804,0.0295782,1.00439,-0.0304899,0.114276,-0.855303,0.66394,0,-1.7228525447717367,3.28538,999,log_felix4.csv,0,False,0.043,89.9167692307615,1.0052879070282552,1.0887692820726529,-0.007473300000000002,-0.019109500000000005,0.00024999999999986144,-0.0014600000000002389,-0.005564599999999999,-0.010188,0.07601669999999999,0.10657259999999999,0.11420799999999998,0.09915399999999996,0.06084099999999992,0.07617099999999988,0.8672036934761138,-0.5620661824097226,0.01752371547829834,0.24173533915756984,0.00015546608709238185,-0.0017895706041068937,-0.05365960278560822,-0.03137470348183746,0.00015546608709238185,-0.05365960278560822,2,Foot-flat,1.0
1774392234819,0.0207956,0.998564,-0.032218,-0.0224917,-1.16701,0.801116,0,-1.565314200075152,5.11397,999,log_felix4.csv,0,False,0.058,90.49033598345491,0.9993000143096966,1.4156994956998783,-0.008782599999999998,-0.0013092999999999959,-0.005825999999999887,-0.006075999999999748,-0.0017280999999999963,0.003836500000000003,-0.1367677,-0.21278439999999998,-0.31170700000000007,-0.42591500000000004,0.13717600000000008,0.07633500000000015,0.5735667526934094,-0.2936369407827044,0.15753834469658456,0.14001462921828622,-0.005987892718558596,-0.006143358805650978,0.3269302136272254,0.3805898164128336,-0.005987892718558596,0.3269302136272254,2,Foot-flat,1.0
1774392234833,0.0280401,1.00315,-0.0251815,0.311977,-1.0005,0.717806,0,-1.5753456266735886,3.31441,999,log_felix4.csv,0,False,0.072,90.75963258025064,1.0038576979085532,1.2702658588519964,0.0072444999999999975,0.016027099999999996,0.004585999999999979,0.010411999999999866,0.007036499999999998,0.008764599999999994,0.3344687,0.4712364,0.16651000000000016,0.4782170000000002,-0.08331,-0.22048600000000007,0.2692965967957264,-0.304270155897683,-0.010031426598436477,-0.16756977129502104,0.0045576835988565545,0.01054557631741515,-0.1454336368478819,-0.4723638504751073,0.0045576835988565545,-0.1454336368478819,2,Foot-flat,1.0
1774392234847,0.0348781,0.999044,-0.0244179,0.00854118,-0.954337,0.671893,0,-1.6928956479148012,3.24439,999,log_felix4.csv,0,False,0.086,90.93739559850755,0.9999508136083595,1.167164197863262,0.006838000000000004,-0.00040649999999999367,-0.004105999999999943,-0.008691999999999922,0.0007635999999999997,-0.006272899999999998,-0.30343582,-0.63790452,0.046162999999999954,-0.1203470000000002,-0.04591300000000009,0.0373969999999999,0.1777630182569112,-0.09153357853881516,-0.11755002124121261,-0.10751859464277613,-0.003906884300193703,-0.008464567899050257,-0.1031016609887343,0.04233197585914761,-0.003906884300193703,-0.1031016609887343,2,Foot-flat,1.0
1774392234862,0.0339402,1.00607,-0.0268434,0.175074,-0.999864,0.489096,0,-1.7582848384354455,4.30221,999,log_felix4.csv,0,False,0.101,91.09936672386627,1.0070001738826067,1.1267625398405823,-0.0009379000000000054,-0.007775900000000009,0.007025999999999977,0.01113199999999992,-0.0024255000000000006,-0.0031891000000000003,0.16653282,0.46996864000000005,-0.045526999999999984,-0.09168999999999994,-0.182797,-0.1368839999999999,0.16197112535871838,-0.015791892898192827,-0.06538919052064429,0.05216083072056832,0.007049360274247185,0.010956244574440888,-0.04040165802267981,0.06270000296605449,0.007049360274247185,-0.04040165802267981,2,Foot-flat,1.0
1774392234876,0.0256759,1.0027,-0.0302565,0.0537979,-1.15222,0.625546,0,-1.678760808114139,3.23991,999,log_felix4.csv,0,False,0.115,91.27060676356885,1.003484926460313,1.3121786999339724,-0.008264299999999995,-0.00732639999999999,-0.003370000000000095,-0.010396000000000072,-0.0034130999999999988,-0.0009875999999999982,-0.1212761,-0.28780892,-0.15235600000000005,-0.10682900000000006,0.13645000000000007,0.31924700000000006,0.17124003970258173,0.009268914343863344,0.0795240303213065,0.1449132208419508,-0.003515247422293699,-0.010564607696540884,0.18541616009339013,0.22581781811606993,-0.003515247422293699,0.18541616009339013,2,Foot-flat,1.0
1774392234889,0.0343805,0.998799,-0.0249288,0.251318,-1.11462,0.565066,0,-1.7579895990566397,3.32354,999,log_felix4.csv,0,False,0.128,91.31377254570927,0.999701408546917,1.2746913610282293,0.0087046,0.016968899999999995,-0.0039009999999999323,-0.0005309999999998372,0.005327699999999998,0.008740799999999996,0.19752009999999998,0.3187962,0.03760000000000008,0.18995600000000012,-0.06048000000000009,-0.19693000000000016,0.043165782140420106,-0.12807425756216162,-0.07922879094250068,-0.1587528212638072,-0.0037835179133959285,-0.00026827049110222934,-0.03748733890574307,-0.2229034989991332,-0.0037835179133959285,-0.03748733890574307,2,Foot-flat,1.0
1774392234902,0.0324802,1.00194,-0.0251454,0.198631,-1.15256,0.496389,0,-1.7845635776196134,3.29658,999,log_felix4.csv,0,False,0.141,91.34730742913105,1.0027816403052063,1.270531726121784,-0.0019003000000000006,-0.0106049,0.0031410000000000604,0.007041999999999993,-0.00021659999999999735,-0.005544299999999995,-0.052686999999999984,-0.25020709999999996,-0.037940000000000085,-0.07554000000000016,-0.06867699999999993,-0.008196999999999843,0.03353488342177968,-0.009630898718640424,-0.02657397856297372,0.05265481237952696,0.003080231758289309,0.0068637496716852375,-0.00415963490644522,0.03332770399929785,0.003080231758289309,-0.00415963490644522,2,Foot-flat,1.0
1774392234916,0.0273692,0.999281,-0.0200449,0.0767006,-0.931958,0.724509,0,-1.7261412137843224,3.27313,999,log_felix4.csv,0,False,0.155,91.29371463328648,0.9998566837730546,1.182937862647637,-0.005111000000000001,-0.0032107000000000004,-0.002659000000000078,-0.005800000000000138,0.005100499999999997,0.005317099999999995,-0.12193040000000001,-0.06924340000000002,0.22060200000000008,0.25854200000000016,0.22811999999999993,0.29679699999999987,-0.053592795844565444,-0.08712767926634513,0.05842236383529098,0.0849963423982647,-0.0029249565321517457,-0.006005188290441055,-0.0875938634741471,-0.08343422856770188,-0.0029249565321517457,-0.0875938634741471,2,Foot-flat,1.0
1774392234929,0.0302591,1.00097,-0.0205055,0.167667,-1.04546,0.603416,0,-1.7274947572602082,3.27115,999,log_felix4.csv,0,False,0.168,91.26123834892529,1.001637174611176,1.2186918000647253,0.002889900000000001,0.008000900000000002,0.0016889999999999405,0.0043480000000000185,-0.0004605999999999985,-0.005561099999999996,0.09096640000000002,0.21289680000000002,-0.1135020000000001,-0.3341040000000002,-0.121093,-0.34921299999999994,-0.032476284361194985,0.02111651148337046,-0.0013535434758857878,-0.05977590731117677,0.0017804908381214846,0.00470544737027323,0.03575393741708832,0.12334780089123543,0.0017804908381214846,0.03575393741708832,2,Foot-flat,1.0
1774392234943,0.0302734,1.00705,-0.0287675,-0.0299433,-1.05341,0.389951,0,-1.7257868505461817,3.30979,999,log_felix4.csv,0,False,0.182,91.362589518015,1.0079155472081032,1.1236685506482282,1.4299999999998342e-05,-0.0028756000000000025,0.006080000000000085,0.004391000000000145,-0.008262000000000002,-0.0078014000000000035,-0.19761030000000002,-0.2885767,-0.007949999999999902,0.1055520000000002,-0.21346499999999996,-0.09237199999999995,0.10135116908971042,0.1338274534509054,0.0017079067140264304,0.003061450189912218,0.006278372596927095,0.004497881758805611,-0.09502324941649709,-0.1307771868335854,0.006278372596927095,-0.09502324941649709,2,Foot-flat,1.0
1774392234957,0.0266295,1.00344,-0.0176335,0.0227432,-1.26654,0.655694,0,-1.6701652051361597,3.99224,999,log_felix4.csv,0,False,0.196,91.26644253488419,1.0039481581199798,1.42638544804069,-0.0036438999999999985,-0.003658199999999997,-0.003609999999999891,-0.009689999999999976,0.011134000000000002,0.019396000000000004,0.0526865,0.2502968,-0.21313000000000004,-0.20518000000000014,0.265743,0.47920799999999997,-0.09614698313080794,-0.19749815222051836,0.055621645410022014,0.05391373869599558,-0.00396738908812333,-0.010245761685050425,0.30271689739246166,0.39774014680895875,-0.00396738908812333,0.30271689739246166,2,Foot-flat,1.0
1774392234970,0.0307413,1.00536,-0.0243805,0.129452,-1.06929,0.450994,0,-1.6919771982207288,3.25065,999,log_felix4.csv,0,False,0.209,91.29960392436497,1.0061253231610563,1.1677048053510786,0.004111799999999999,0.007755699999999997,0.0019199999999999218,0.005529999999999813,-0.0067469999999999995,-0.017881,0.1067088,0.05402230000000001,0.19724999999999993,0.41037999999999997,-0.2047,-0.470443,0.03316138948078162,0.12930837261158956,-0.021811993084569048,-0.07743363849459106,0.0021771650410764565,0.006144554129199786,-0.25868064268961133,-0.561397540082073,0.0021771650410764565,-0.25868064268961133,2,Foot-flat,1.0
1774392234983,0.0310045,1.00124,-0.020527,0.213489,-1.02304,0.625432,0,-1.7139448518877396,3.30206,999,log_felix4.csv,0,False,0.222,91.2658017660555,1.0019302242917167,1.2179300395938184,0.0002632000000000016,-0.003848599999999997,-0.0041200000000001236,-0.006040000000000045,0.0038534999999999993,0.010600499999999999,0.084037,-0.022671800000000006,0.046250000000000124,-0.1509999999999998,0.17443799999999998,0.379138,-0.03380215830947009,-0.06696354779025171,-0.02196765366701081,-0.0001556605824417634,-0.004195098869339553,-0.0063722639104160095,0.050225234242739836,0.30890587693235116,-0.004195098869339553,0.050225234242739836,2,Foot-flat,1.0
1774392234997,0.0324634,1.00705,-0.0333833,0.190907,-0.931571,0.641174,0,-1.7494435965064354,3.28938,999,log_felix4.csv,0,False,0.236,91.43677057085371,1.0081259938908678,1.1468976017788162,0.0014589000000000026,0.001195700000000001,0.005810000000000093,0.009930000000000216,-0.012856299999999998,-0.016709799999999997,-0.02258200000000002,-0.10661900000000002,0.09146899999999991,0.04521899999999979,0.015742000000000034,-0.15869599999999995,0.17096880479820697,0.20477096310767706,-0.03549874461869584,-0.013531090951685032,0.006195769599151024,0.010390868468490577,-0.07103243781500224,-0.12125767205774207,0.006195769599151024,-0.07103243781500224,2,Foot-flat,1.0
1774392235010,0.0280979,1.00829,-0.0285883,0.19084,-0.900855,0.565113,0,-1.7078814250670618,3.26312,999,log_felix4.csv,0,False,0.249,91.48737585735671,1.0090864715084134,1.0804222967867703,-0.004365500000000005,-0.005824400000000007,0.0012399999999999078,-0.004570000000000185,0.004794999999999997,0.017651299999999995,-6.699999999998374e-05,0.022515000000000035,0.030716000000000077,-0.060752999999999835,-0.07606100000000005,-0.09180300000000008,0.050605286503,-0.12036351829520697,0.041562171439373685,0.07706091605806953,0.0009604776175455854,-0.005235291981605439,-0.0664753049920459,0.0045571328229563335,0.0009604776175455854,-0.0664753049920459,2,Foot-flat,1.0
1774392235024,0.0283192,1.00417,-0.0229771,0.152786,-1.06059,0.496389,0,-1.6827838655054506,3.30617,999,log_felix4.csv,0,False,0.263,91.43967112432597,1.004831982528945,1.1809304590944378,0.00022130000000000066,0.0045868000000000055,-0.0041199999999999015,-0.005359999999999809,0.0056112,0.000816200000000003,-0.038054000000000004,-0.03798700000000002,-0.15973499999999996,-0.19045100000000004,-0.06872399999999995,0.0073370000000000934,-0.04770473303074141,-0.09831001953374141,0.025097559561611194,-0.01646461187776249,-0.0042544889794684515,-0.005214966597014037,0.10050816230766757,0.16698346729971347,-0.0042544889794684515,0.10050816230766757,2,Foot-flat,1.0
1774392235037,0.029292,1.00609,-0.031452,0.068953,-0.771856,0.480962,0,-1.6784829969024986,3.34553,999,log_felix4.csv,0,False,0.276,91.53447051439605,1.0070076154965264,0.9120529844197649,0.0009727999999999994,0.0007514999999999987,0.0019199999999999218,0.006039999999999823,-0.0084749,-0.0140861,-0.083833,-0.045779,0.28873399999999994,0.4484689999999999,-0.015427000000000024,0.05329699999999993,0.09479939007007943,0.14250412310082083,0.004300868602951979,-0.020796690958659214,0.002175632967581498,0.006430121947049949,-0.26887747467467293,-0.3693856369823405,0.002175632967581498,-0.26887747467467293,2,Foot-flat,1.0
1774392235051,0.0312403,1.00805,-0.0217767,0.167644,-0.953655,0.480916,0,-1.704466269824613,3.30306,999,log_felix4.csv,0,False,0.29,91.45425721311081,1.0087690436898724,1.0811302275012942,0.0019483,0.0009755000000000007,0.0019599999999999618,4.0000000000040004e-05,0.009675300000000001,0.018150200000000002,0.09869099999999999,0.182524,-0.18179900000000004,-0.470533,-4.599999999999049e-05,0.015381000000000034,-0.08021330128524085,-0.17501269135532027,-0.02598327292211433,-0.03028414152506631,0.0017614281933460152,-0.00041420477423548263,0.16907724308152927,0.4379547177562022,0.0017614281933460152,0.16907724308152927,2,Foot-flat,1.0
1774392235064,0.0295494,0.999311,-0.0251298,0.0613865,-1.03031,0.678797,0,-1.7014211869365867,3.25197,999,log_felix4.csv,0,False,0.303,91.45054617966791,1.0000635722839823,1.2353430153974443,-0.0016908999999999987,-0.0036391999999999987,-0.008738999999999941,-0.010698999999999903,-0.0033531000000000012,-0.013028400000000002,-0.10625749999999999,-0.20494849999999998,-0.07665500000000003,0.10514400000000002,0.19788099999999997,0.19792699999999996,-0.00371103344289736,0.07650226784234349,0.003045082888026185,0.029028355810140516,-0.008705471405890064,-0.01046689959923608,0.15421278789615012,-0.014864455185379155,-0.008705471405890064,0.15421278789615012,2,Foot-flat,1.0
1774392235078,0.0280835,1.00437,-0.0380218,0.121956,-0.90876,0.565225,0,-1.6741571828175283,3.33038,999,log_felix4.csv,0,False,0.317,91.6443641078065,1.005481694088704,1.0771245536895908,-0.0014658999999999991,0.0002249999999999995,0.005059000000000036,0.013797999999999977,-0.012892,-0.0095389,0.0605695,0.166827,0.12155000000000005,0.19820500000000008,-0.113572,-0.311453,0.19381792813858567,0.19752896158148303,0.027264004119058383,0.024218921231032198,0.005418121804721565,0.014123593210611629,-0.15821846170785347,-0.3124312496040036,0.005418121804721565,-0.15821846170785347,2,Foot-flat,1.0
1774392235091,0.0273474,1.00002,-0.0269107,0.0688611,-0.916009,0.427892,0,-1.6449114314008049,3.27912,999,log_felix4.csv,0,False,0.33,91.61656571978422,1.000755747653367,1.013363657744943,-0.0007361,0.0007297999999999992,-0.004350000000000076,-0.009409000000000112,0.011111100000000002,0.024003100000000003,-0.0530949,-0.1136644,-0.00724899999999995,-0.128799,-0.13733299999999998,-0.023760999999999977,-0.0277983880222763,-0.22161631616086197,0.029245751416723476,0.001981747297665093,-0.0047259464353368585,-0.010144068240058424,-0.06376089594464784,0.09445756576320563,-0.0047259464353368585,-0.06376089594464784,2,Foot-flat,1.0
1774392235104,0.0256432,1.00097,-0.0307427,0.129589,-1.09108,0.511201,0,-1.5967964898132776,3.25775,999,log_felix4.csv,0,False,0.343,91.65509035910554,1.00177024721716,1.211847902057845,-0.0017041999999999995,-0.0009680999999999995,0.0009500000000000064,0.005300000000000082,-0.003832000000000002,-0.014943100000000004,0.060727900000000015,0.11382280000000002,-0.1750710000000001,-0.16782200000000014,0.08330900000000002,0.220642,0.03852463932132366,0.06632302734359996,0.04811494158752727,0.018869190170803796,0.0010144995637928478,0.005740445999129706,0.19848424431290201,0.26224514025754986,0.0010144995637928478,0.19848424431290201,2,Foot-flat,1.0
1774392235118,0.0266065,1.00243,-0.0273606,0.167825,-0.969828,0.488617,0,-1.5760013629010479,3.29534,999,log_felix4.csv,0,False,0.357,91.63033546448133,1.0031562257069484,1.0988531079712156,0.0009633000000000003,0.0026674999999999997,0.0014600000000000168,0.0005100000000000104,0.0033821000000000025,0.0072141000000000045,0.03823599999999999,-0.022491900000000023,0.12125200000000003,0.2963230000000001,-0.022583999999999993,-0.10589300000000001,-0.0247548946242091,-0.06327953394553276,0.020795126912229733,-0.027319814675297538,0.0013859784897884975,0.0003714789259956497,-0.11299479408662938,-0.3114790383995314,0.0013859784897884975,-0.11299479408662938,2,Foot-flat,1.0
1774392235131,0.0341422,1.00268,-0.0222423,-0.121273,-1.08363,0.67882,0,-1.6769698735704777,3.27276,999,log_felix4.csv,0,False,0.37,91.53319803891085,1.0035076442808646,1.2844289430828784,0.007535699999999996,0.006572399999999996,0.0002500000000000835,-0.0012099999999999334,0.005118299999999999,0.0017361999999999968,-0.289098,-0.327334,-0.11380200000000007,-0.2350540000000001,0.19020299999999996,0.21278699999999995,-0.09713742557048022,-0.07238253094627112,-0.1009685106694298,-0.12176363758165953,0.0003514185739161846,-0.0010345599158723129,0.18557583511166276,0.29857062919829214,0.0003514185739161846,0.18557583511166276,2,Foot-flat,1.0
1774392235145,0.0368518,1.00414,-0.0229457,-0.106913,-0.992639,0.618501,0,-1.7915933824995103,3.31536,999,log_felix4.csv,0,False,0.384,91.4726413144035,1.00507795713155,1.1744386152077084,0.0027095999999999995,-0.004826099999999996,0.0014600000000000168,0.0012099999999999334,-0.0007033999999999999,-0.005821699999999999,0.014360000000000012,0.303458,0.09099100000000004,0.2047930000000001,-0.06031900000000001,-0.25052199999999997,-0.06055672450735017,0.03658070106313005,-0.11462350892903261,-0.013654998259602813,0.0015703128506854291,0.0012188942767692446,-0.10999032787516994,-0.2955661629868327,0.0015703128506854291,-0.10999032787516994,2,Foot-flat,1.0
1774392235158,0.026905,1.00682,-0.0241639,-0.0535946,-1.03042,0.6031,0,-1.7210022921425432,3.27754,999,log_felix4.csv,0,False,0.397,91.44622165168533,1.00746924791192,1.195143241435586,-0.009946799999999999,-0.012656399999999998,0.0026800000000000157,0.0012199999999999989,-0.0012181999999999991,-0.0005147999999999993,0.053318399999999995,0.03895839999999998,-0.03778099999999984,-0.1287719999999999,-0.015400999999999998,0.044918000000000013,-0.02641966271816898,0.03413706178918119,0.07059109035696709,0.1852145992859997,0.0023912907803700367,0.0008209779296846076,0.02070462622787761,0.13069495410304754,0.0023912907803700367,0.02070462622787761,2,Foot-flat,1.0
1774392235171,0.0261269,1.00222,-0.0214976,-0.114322,-0.969647,0.542167,0,-1.659396256820578,3.28043,999,log_felix4.csv,0,False,0.41,91.38748517847216,1.0027909503527495,1.116794466400152,-0.0007780999999999968,0.009168700000000002,-0.0045999999999999375,-0.007279999999999953,0.0026663,0.003884499999999999,-0.060727399999999994,-0.11404579999999999,0.060772999999999855,0.0985539999999997,-0.060933000000000015,-0.04553200000000002,-0.05873647321317321,-0.03231681049500423,0.06160603532196518,-0.00898505503500191,-0.004678297559170597,-0.007069588339540633,-0.07834877503543414,-0.09905340126331175,-0.004678297559170597,-0.07834877503543414,2,Foot-flat,1.0
1774392235185,0.0275807,1.00123,-0.022942,-0.26672,-1.06841,0.686591,0,-1.6372724118119673,3.29497,999,log_felix4.csv,0,False,0.424,91.36726400576828,1.0018725184755244,1.297708244476007,0.0014537999999999981,0.002231899999999995,-0.0009900000000000464,0.003609999999999891,-0.001444400000000002,-0.004110700000000002,-0.15239800000000003,-0.09167060000000005,-0.09876300000000005,-0.1595359999999999,0.144424,0.205357,-0.02022117270388435,0.03851530050928886,0.022123845008610754,-0.039482190313354426,-0.0009184318772250677,0.003759865681945529,0.18091377807585518,0.2592625531112893,-0.0009184318772250677,0.18091377807585518,2,Foot-flat,1.0
1774392235198,0.0261303,1.00462,-0.0275649,0.0372587,-0.96215,0.542416,0,-1.5973169105405713,3.27076,999,log_felix4.csv,0,False,0.437,91.4224923200503,1.0053377346395092,1.105140692528191,-0.001450400000000001,-0.002904199999999999,0.003390000000000004,0.0043800000000000505,-0.004622899999999999,-0.0031784999999999973,0.3039787,0.4563767,0.10626000000000013,0.20502300000000018,-0.14417499999999994,-0.28859899999999994,0.05522831428201869,0.07544948698590304,0.03995550127139591,0.017831656262785156,0.0034652161639847634,0.004383648041209831,-0.19256755194781605,-0.37348133002367123,0.0034652161639847634,-0.19256755194781605,2,Foot-flat,1.0
1774392235212,0.0314676,1.00318,-0.03026,-0.037943,-0.923779,0.602873,0,-1.6509491688301605,3.29006,999,log_felix4.csv,0,False,0.451,91.50495971158803,1.0041294686691353,1.1037495939836173,0.0053373,0.006787700000000001,-0.0014400000000001079,-0.004830000000000112,-0.002695099999999999,0.0019278000000000003,-0.0752017,-0.3791804,0.03837099999999993,-0.0678890000000002,0.06045699999999998,0.20463199999999993,0.08246739153773319,0.027239077255714506,-0.053632258289589174,-0.09358775956098508,-0.001208265970373823,-0.004673482134358586,-0.0013910985445737545,0.1911764534032423,-0.001208265970373823,-0.0013910985445737545,2,Foot-flat,1.0
1774392235225,0.0297935,1.00342,-0.028087,-0.0305564,-1.06066,0.57261,0,-1.6642163490764252,3.27465,999,log_felix4.csv,0,False,0.464,91.53154396111667,1.0042550615313075,1.2057427342849552,-0.0016740999999999978,-0.0070113999999999975,0.00024000000000001798,0.0016800000000001258,0.002172999999999998,0.004868099999999997,0.007386599999999997,0.08258829999999999,-0.13688099999999992,-0.17525199999999985,-0.03026300000000004,-0.09072000000000002,0.026584249528639248,-0.055883142009093945,-0.01326718024626472,0.040365078043324454,0.0001255928621721747,0.0013338588325459977,0.10199314030133788,0.10338423884591164,0.0001255928621721747,0.10199314030133788,2,Foot-flat,1.0
1774392235238,0.0295423,1.00075,-0.028805,-0.0609777,-1.10673,0.4888,0,-1.6712332703799593,3.28384,999,log_felix4.csv,0,False,0.477,91.56319786218636,1.001600238625316,1.2114020855179712,-0.00025120000000000003,0.0014228999999999978,-0.00266999999999995,-0.002909999999999968,-0.0007179999999999999,-0.0028909999999999977,-0.030421300000000002,-0.0378079,-0.046070000000000055,0.09081099999999986,-0.08380999999999994,-0.0535469999999999,0.03165390106968857,0.005069651541049325,-0.0070169213035340405,0.00625025894273068,-0.002654822905991505,-0.00278041576816368,0.0056593512330160856,-0.0963337890683218,-0.002654822905991505,0.0056593512330160856,2,Foot-flat,0.8722651568821199
1774392235252,0.0339138,1.00486,-0.0224923,0.00742898,-1.16776,0.557048,0,-1.741816734182179,3.29577,999,log_felix4.csv,0,False,0.491,91.48730261346671,1.005683682372211,1.2938396661286282,0.0043715,0.0046227,0.004110000000000058,0.006780000000000008,0.006312700000000001,0.007030700000000001,0.06840668,0.09882798,-0.06102999999999992,-0.014959999999999862,0.06824799999999998,0.15205799999999992,-0.0758952487196467,-0.10754914978933527,-0.0705834638022198,-0.06356654249868576,0.004083443746895066,0.006738266652886571,0.08243758061065698,0.0767782293776409,0.004083443746895066,0.08243758061065698,2,Foot-flat,0.8722651568821199
1774392235265,0.0300485,0.999781,-0.0285344,0.190293,-0.886338,0.785576,0,-1.7361418595576255,3.31256,999,log_felix4.csv,0,False,0.504,91.52715400622593,1.000639381743798,1.1995566380413223,-0.003865300000000002,-0.008236800000000002,-0.005079000000000056,-0.009189000000000114,-0.006042100000000002,-0.012354800000000003,0.18286402,0.11445733999999999,0.28142199999999995,0.34245199999999987,0.22852800000000006,0.1602800000000001,0.039851392759217674,0.11574664147886438,0.0056748746245536275,0.07625833842677343,-0.005044300628413101,-0.009127744375308167,-0.09428302808730593,-0.1767206086979629,-0.005044300628413101,-0.09428302808730593,2,Foot-flat,0.8722651568821199
1774392235279,0.0254137,1.00024,-0.0198188,0.0233999,-1.18993,0.679706,0,-1.6602300957045215,3.29352,999,log_felix4.csv,0,False,0.518,91.42124158525141,1.0007590612036097,1.3705769612305652,-0.004634799999999998,-0.0007694999999999959,0.0004589999999999872,0.005538000000000043,0.0087156,0.014757700000000002,-0.1668931,-0.34975712,-0.303592,-0.5850139999999999,-0.10587000000000002,-0.3343980000000001,-0.10591242097451925,-0.14576381373373692,0.07591176385310394,0.07023688922855031,0.0001196794598117279,0.005163980088224829,0.17102032318924287,0.2653033512765488,0.0001196794598117279,0.17102032318924287,2,Foot-flat,0.8722651568821199
1774392235292,0.0287918,1.00535,-0.0229337,-0.0912601,-1.13756,0.58045,0,-1.6547635073380778,3.27621,999,log_felix4.csv,0,False,0.531,91.39032044561408,1.0060236303601073,1.2803489219552653,0.0033780999999999985,0.008012899999999996,0.005109999999999948,0.004650999999999961,-0.0031149000000000003,-0.0118305,-0.11466,0.05223309999999999,0.05237000000000003,0.355962,-0.09925600000000001,0.006614000000000009,-0.030921139637328565,0.07499128133719069,0.005466588366443759,-0.07044517548666018,0.005264569156497645,0.005144889696685917,-0.09022803927529988,-0.26124836246454275,0.005264569156497645,-0.09022803927529988,2,Foot-flat,0.8722651568821199
1774392235305,0.0309949,1.00416,-0.0287795,-0.00027215,-0.939524,0.686705,0,-1.6851479432438146,3.28523,999,log_felix4.csv,0,False,0.544,91.45822227971625,1.0050503713975034,1.1637307152716314,0.0022030999999999995,-0.001174999999999999,-0.0011900000000000244,-0.006299999999999972,-0.005845799999999998,-0.002730899999999998,0.09098795,0.20564795,0.19803599999999988,0.14566599999999985,0.10625499999999999,0.205511,0.0679018341021731,0.09882297373950166,-0.030384435905736806,-0.035851024272180565,-0.0009732589626039179,-0.006237828119101563,-0.11661820668363387,-0.026390167408333998,-0.0009732589626039179,-0.11661820668363387,2,Foot-flat,0.8688787998492196
1774392235319,0.0334351,0.999778,-0.0222493,0.0304425,-0.931322,0.694633,0,-1.7472244182076975,3.26865,999,log_felix4.csv,0,False,0.558,91.40868679935883,1.0005843225568247,1.1622402583714135,0.0024402000000000035,0.00023710000000000397,-0.004381999999999997,-0.0031919999999999726,0.0065302,0.012375999999999998,0.03071465,-0.0602733,0.008202000000000043,-0.18983399999999984,0.007927999999999935,-0.09832700000000005,-0.04953548035742017,-0.11743731445959327,-0.06207647496388291,-0.031692039058146104,-0.0044660488406786936,-0.0034927898780747757,-0.0014904569002178736,0.115127749783416,-0.0044660488406786936,-0.0014904569002178736,2,Foot-flat,0.8688787998492196
1774392235332,0.027131,1.0017,-0.0273185,0.0914207,-1.24334,0.671824,0,-1.6941856076320767,3.31193,999,log_felix4.csv,0,False,0.571,91.45015695129554,1.0024396648194096,1.4161919315419396,-0.0063041000000000035,-0.008744300000000007,0.0019220000000000903,0.006304000000000087,-0.005069199999999999,-0.0115994,0.060978199999999996,0.030263549999999997,-0.3120179999999999,-0.32021999999999995,-0.022808999999999968,-0.030736999999999903,0.04147015193670711,0.09100563229412728,0.053038810575620765,0.11511528553950368,0.0018553422625848803,0.006321391103263574,0.253951673170526,0.2554421300707439,0.0018553422625848803,0.253951673170526,2,Foot-flat,0.8688787998492196
1774392235345,0.0319584,0.998551,-0.0244284,0.0839917,-1.09206,0.61848,0,-1.7315696298699892,3.27701,999,log_felix4.csv,0,False,0.584,91.43698380264163,0.9993608885973675,1.2578422634292783,0.004827399999999999,0.011131500000000003,-0.0031490000000000684,-0.005071000000000159,0.0028900999999999996,0.007959299999999999,-0.007428999999999991,-0.06840719999999999,0.15127999999999986,0.46329799999999977,-0.05334399999999995,-0.03053499999999998,-0.013173148653905287,-0.0546433005906124,-0.037384022237912484,-0.09042283281353325,-0.003078776222042112,-0.0049341184846269925,-0.15834966811266127,-0.4123013412831873,-0.003078776222042112,-0.15834966811266127,2,Foot-flat,0.8688787998492196
1774392235359,0.0251802,0.999993,-0.0219848,-0.00736035,-1.04594,0.587878,0,-1.6533611720166288,3.27728,999,log_felix4.csv,0,False,0.598,91.38901983175091,1.0005515348806777,1.1998521580745367,-0.006778199999999998,-0.011605599999999997,0.0014420000000000543,0.004591000000000123,0.0024436000000000006,-0.000446499999999999,-0.09135205,-0.08392305000000001,0.04611999999999994,-0.10515999999999992,-0.030602000000000018,0.02274199999999993,-0.04796397089072002,-0.034790822236814734,0.07820845785336039,0.11559248009127288,0.001190646283310226,0.004269422505352338,-0.05799010535474158,0.10035956275791968,0.001190646283310226,-0.05799010535474158,2,Foot-flat,0.8688787998492196
1774392235372,0.0317058,1.0,-0.0261026,0.0836971,-1.12191,0.534511,0,-1.6971321702158615,3.26773,999,log_felix4.csv,0,False,0.611,91.41771297574743,1.0008429464608322,1.2455477757875888,0.0065255999999999995,0.013303799999999998,6.999999999979245e-06,-0.001435000000000075,-0.004117800000000001,-0.006561400000000002,0.09105745,0.1824095,-0.07596999999999987,-0.12208999999999981,-0.05336700000000005,-0.022765000000000035,0.02869314399652012,0.07665711488724014,-0.04377099819923269,-0.12197945605259308,0.0002914115801544437,-0.0008992347031557824,0.045695617713052084,0.10368572306779367,0.0002914115801544437,0.045695617713052084,2,Foot-flat,0.8718887638080095
1774392235386,0.0327098,0.999271,-0.0341397,0.19052,-1.26674,0.694179,0,-1.7448435653711682,3.25258,999,log_felix4.csv,0,False,0.625,91.56333087052367,1.0003889151590646,1.4569875023626662,0.001003999999999998,-0.0055216000000000015,-0.0007289999999999797,-0.0007359999999999589,-0.008037100000000002,-0.0039193000000000006,0.1068229,0.01576545,-0.14483000000000001,-0.06886000000000014,0.15966800000000003,0.21303500000000009,0.14561789477623677,0.11692475077971665,-0.04771139515530676,-0.003940396956074066,-0.0004540313017675768,-0.0007454428819220205,0.21143972657507737,0.16574410886202529,-0.0004540313017675768,0.21143972657507737,2,Foot-flat,0.8718887638080095
1774392235399,0.0266415,0.997324,-0.0290779,0.129952,-1.08451,0.717488,0,-1.6866746424184695,3.27228,999,log_felix4.csv,0,False,0.638,91.59215849876949,0.9981034288923468,1.3068429486927646,-0.006068299999999999,-0.007072299999999997,-0.001947000000000032,-0.0012180000000000524,0.005061800000000002,0.013098900000000004,-0.06056799999999998,-0.16739089999999998,0.1822299999999999,0.3270599999999999,0.023309000000000024,-0.136359,0.028827628245821302,-0.11679026653041547,0.05816892295269871,0.10588031810800547,-0.0022854862667177622,-0.0018314549649501854,-0.15014455366990154,-0.3615842802449789,-0.0022854862667177622,-0.15014455366990154,2,Foot-flat,0.8718887638080095
1774392235412,0.0261256,1.00557,-0.0263806,0.0536633,-0.893701,0.595784,0,-1.632933560470378,3.2543,999,log_felix4.csv,0,False,0.651,91.5680123254974,1.0062551902632453,1.0754254050485743,-0.0005158999999999997,0.005552399999999999,0.008246000000000087,0.010193000000000119,0.0026972999999999997,-0.002364500000000002,-0.07628870000000001,-0.015720700000000032,0.19080900000000012,0.008579000000000225,-0.12170400000000003,-0.14501300000000006,-0.024146173272086457,-0.05297380151790776,0.05374108194809146,-0.004427841004607247,0.008151761370898458,0.01043724763761622,-0.23141754364419032,-0.08127298997428878,0.008151761370898458,-0.23141754364419032,2,Foot-flat,0.8718887638080095
1774392235426,0.0319534,1.00367,-0.0275819,0.0610466,-1.06818,0.648697,0,-1.6842263219941036,3.27312,999,log_felix4.csv,0,False,0.665,91.56967091011623,1.0045572407181036,1.2512166069792072,0.005827800000000001,0.006343700000000001,-0.0019000000000000128,-0.0101460000000001,-0.001201299999999999,-0.0038985999999999986,0.007383300000000002,0.08367200000000002,-0.17447899999999994,-0.36528800000000006,0.05291299999999999,0.17461700000000002,0.001658584618823511,0.02580475789090997,-0.05129276152372553,-0.10503384347181699,-0.001697949545141686,-0.009849710916040144,0.1757912019306329,0.4072087455748232,-0.001697949545141686,0.1757912019306329,2,Foot-flat,0.8718887638080095
1774392235439,0.0263948,1.0005,-0.0273449,0.045847,-1.36552,0.671687,0,-1.6373310285070073,3.25036,999,log_felix4.csv,0,False,0.678,91.56856427471891,1.0012215933663486,1.5224684705365823,-0.0055586,-0.011386400000000001,-0.003170000000000117,-0.0012700000000001044,0.0002370000000000011,0.0014383,-0.0151996,-0.022582900000000003,-0.29734000000000016,-0.12286100000000022,0.022990000000000066,-0.029922999999999922,-0.0011066353973205878,-0.0027652200161440987,0.04689529348709631,0.09818805501082184,-0.0033356473517549556,-0.0016376978066132697,0.2712518635573751,0.09546066162674216,-0.0033356473517549556,0.2712518635573751,2,Foot-flat,0.685006603172368
1774392235452,0.0297684,1.00413,-0.0329312,0.0914666,-1.0087,0.648923,0,-1.6534993901301565,3.27612,999,log_felix4.csv,0,False,0.691,91.65226427287028,1.005110779203964,1.202889391774888,0.003373600000000001,0.008932200000000001,0.003630000000000022,0.006800000000000139,-0.005586300000000002,-0.0058233000000000035,0.045619599999999996,0.0608192,0.35682000000000014,0.6541600000000003,-0.022764000000000006,-0.04575400000000007,0.08369999815137419,0.08480663354869478,-0.016168361623149163,-0.06306365511024548,0.0038891858376153277,0.007224833189370283,-0.31957907876169434,-0.5908309423190694,0.0038891858376153277,-0.31957907876169434,2,Foot-flat,0.685006603172368
1774392235466,0.0217683,1.00318,-0.0244562,-0.136722,-1.07613,0.823904,0,-1.5425231375402617,3.26958,999,log_felix4.csv,0,False,0.705,91.5831729956411,1.003714141079685,1.3621917939115622,-0.0080001,-0.0113737,-0.0009500000000000064,-0.0045800000000000285,0.008475,0.014061300000000002,-0.22818860000000002,-0.2738082,-0.0674300000000001,-0.42425000000000024,0.17498099999999994,0.19774499999999995,-0.06909127722917674,-0.15279127538055093,0.11097625258989474,0.1271446142130439,-0.001396638124278926,-0.005285823961894254,0.15930240213667424,0.47888148089836857,-0.001396638124278926,0.15930240213667424,2,Foot-flat,0.685006603172368
1774392235479,0.0195423,1.00317,-0.0241713,0.121365,-0.954562,0.77115,0,-1.4272110311061292,3.25543,999,log_felix4.csv,0,False,0.718,91.52835751841455,1.0036514345792467,1.2331222151794201,-0.0022260000000000023,0.005774099999999997,-1.0000000000065512e-05,0.0009399999999999409,0.0002849000000000011,-0.008190099999999999,0.258087,0.48627560000000003,0.12156800000000001,0.1889980000000001,-0.05275399999999997,-0.2277349999999999,-0.054815477226554776,0.014275800002621963,0.11531210643413248,0.004335853844237736,-6.270650043838089e-05,0.0013339316238405452,-0.1290695787321421,-0.2883719808688163,-6.270650043838089e-05,-0.1290695787321421,2,Foot-flat,0.685006603172368
1774392235492,0.0282769,1.0005,-0.0224694,0.152578,-1.17491,0.550279,0,-1.4788885308635529,3.26886,999,log_felix4.csv,0,False,0.731,91.46302959196036,1.0011516903097002,1.3063309427648875,0.008734600000000002,0.010960600000000004,-0.00266999999999995,-0.0026599999999998847,0.0017018999999999992,0.0014169999999999981,0.03121299999999999,-0.22687400000000002,-0.22034799999999988,-0.3419159999999999,-0.22087100000000004,-0.16811700000000007,-0.06532792645418795,-0.01051244922763317,-0.05167749975742364,-0.16698960619155612,-0.0024997442695464667,-0.0024370377691080858,0.07320872758546737,0.20227830631760946,-0.0024997442695464667,0.07320872758546737,2,Foot-flat,0.685006603172368
1774392235506,0.0343934,1.00195,-0.0217322,0.0232875,-1.00813,0.747502,0,-1.6103571025138328,3.25237,999,log_felix4.csv,0,False,0.745,91.4034643553077,1.002775646383776,1.2552400744719114,0.006116499999999997,-0.002618100000000005,0.0014499999999999513,0.0041199999999999015,0.0007372000000000004,-0.0009646999999999989,-0.1292905,-0.1605035,0.16677999999999993,0.3871279999999998,0.19722300000000004,0.4180940000000001,-0.05956523665265934,0.005762689801528609,-0.13146857165027992,-0.07979107189285628,0.0016239560740758385,0.004123700343622305,-0.051090868292976044,-0.12429959587844341,0.0016239560740758385,-0.051090868292976044,2,Foot-flat,0.6908376352619018
1774392235519,0.0300509,1.00317,-0.0229432,-0.0760388,-1.21313,0.778533,0,-1.6387317144667823,3.28454,999,log_felix4.csv,0,False,0.758,91.37825927202671,1.0038822121728472,1.4434610933774559,-0.004342499999999999,-0.010458999999999996,0.0012199999999999989,-0.00022999999999995246,-0.0012110000000000003,-0.0019482000000000006,-0.0993263,0.029964199999999996,-0.20500000000000007,-0.37178,0.03103100000000003,-0.166192,-0.025205083280994245,0.03436015337166509,-0.028374611952949547,0.10309395969733037,0.001106565789071201,-0.0005173902850046375,0.18822101890554443,0.23931188719852048,0.001106565789071201,0.18822101890554443,2,Foot-flat,0.6908376352619018
1774392235532,0.0363456,1.0039,-0.0214916,-0.00783758,-0.924527,0.573133,0,-1.756046398292573,3.25849,999,log_felix4.csv,0,False,0.771,91.3372354167228,1.004787590244784,1.0877927362683832,0.0062947,0.0106372,0.0007300000000001194,-0.0004899999999998794,0.0014516000000000008,0.002662600000000001,0.06820122,0.16752752,0.28860300000000005,0.4936030000000001,-0.20540000000000003,-0.23643100000000006,-0.041023855303905066,-0.01581877202291082,-0.11731468382579058,-0.08894007187284103,0.0009053780719368021,-0.00020118771713439898,-0.35566835710907263,-0.5438893760146171,0.0009053780719368021,-0.35566835710907263,2,Foot-flat,0.6908376352619018
1774392235546,0.0264166,0.999291,-0.0246425,-0.0532991,-0.961721,0.610575,0,-1.6906076713246285,3.5958,999,log_felix4.csv,0,False,0.785,91.35760284075735,0.9999437945418783,1.140416549567223,-0.009929,-0.0162237,-0.004608999999999974,-0.005339000000000094,-0.0031509000000000016,-0.004602500000000002,-0.045461520000000005,-0.11366274000000001,-0.03719400000000006,-0.3257970000000001,0.037441999999999975,0.242842,0.02036742403454639,0.061391279338451454,0.0654387269679444,0.18275341079373497,-0.004843795702905718,-0.00574917377484252,0.052623813298839694,0.4082921704079123,-0.004843795702905718,0.052623813298839694,2,Foot-flat,0.6908376352619018
1774392235559,0.0270962,0.997081,-0.0270874,-0.0382131,-1.23582,0.580243,0,-1.654265793118121,3.26175,999,log_felix4.csv,0,False,0.798,91.41124279843167,0.9978168428395062,1.3657940007411842,0.0006796000000000024,0.010608600000000003,-0.0022100000000000453,0.002398999999999929,-0.0024449,0.0007060000000000018,0.015086000000000002,0.06054752000000001,-0.27409899999999987,-0.2369049999999998,-0.030332000000000026,-0.067774,0.053639957674320726,0.03327253363977434,0.03634187820650747,-0.029096848761436922,-0.002126951702372093,0.0027168440005336247,0.22537745117396124,0.17275363787512155,-0.002126951702372093,0.22537745117396124,2,Foot-flat,0.6908376352619018
1774392235573,0.032687,1.00314,-0.032687,0.0531618,-0.947427,0.618207,0,-1.7112821125278093,3.28536,999,log_felix4.csv,0,False,0.812,91.53418055433117,1.0042045307296714,1.1325299078422786,0.0055908,0.0049111999999999975,0.0060589999999999256,0.00826899999999997,-0.0055996,-0.0031547,0.09137490000000001,0.0762889,0.2883929999999999,0.5624919999999998,0.037964,0.06829600000000002,0.12293775589949973,0.06929779822517901,-0.05701631940968821,-0.09335819761619568,0.0063876878901651946,0.008514639592537288,-0.2332640928989056,-0.45864154407286684,0.0063876878901651946,-0.2332640928989056,2,Foot-flat,0.6998110692440751
1774392235586,0.0254267,0.997586,-0.0283419,-0.0911713,-0.977011,0.572655,0,-1.6432516616178319,3.26271,999,log_felix4.csv,0,False,0.825,91.55935437454183,0.9983123798513669,1.1361322322202156,-0.007260300000000001,-0.0128511,-0.005553999999999948,-0.011612999999999873,0.004345100000000001,0.0099447,-0.1443331,-0.235708,-0.029583999999999944,-0.31797699999999984,-0.045551999999999926,-0.08351599999999992,0.02517382021065373,-0.097763935688846,0.06803045090997739,0.1250467703196656,-0.005892150878304525,-0.01227983876846972,0.0036023243779370606,0.23686641727684266,-0.005892150878304525,0.0036023243779370606,2,Foot-flat,0.6998110692440751
1774392235600,0.0256337,0.999259,-0.0222471,-0.122045,-1.14454,0.4888,0,-1.5962050678764697,3.25704,999,log_felix4.csv,0,False,0.839,91.48264219226483,0.9998352709897266,1.2505167866226345,0.00020699999999999885,0.0074673,0.0016730000000000356,0.0072269999999999834,0.006094800000000001,0.0017496999999999999,-0.030873700000000004,0.11345939999999999,-0.16752899999999993,-0.13794499999999998,-0.08385500000000001,-0.03830300000000009,-0.07671218227699228,-0.10188600248764601,0.04704659374136222,-0.020983857168615172,0.0015228911383596833,0.007415042016664208,0.1143845544024189,0.11078223002448184,0.0015228911383596833,0.1143845544024189,2,Foot-flat,0.6998110692440751
1774392235613,0.0256348,1.00097,-0.0312054,-0.0764722,-0.954766,0.602713,0,-1.561113053073309,3.2768,999,log_felix4.csv,0,False,0.852,91.56449535830004,1.001784338498162,1.1316753388219787,1.1000000000004062e-06,-0.00020589999999999845,0.001710999999999907,3.799999999987147e-05,-0.008958300000000002,-0.015053100000000003,0.0455728,0.0764465,0.1897739999999999,0.3573029999999998,0.11391300000000004,0.19776800000000005,0.08185316603520221,0.1585653483121945,0.0350920148031606,-0.011954578938201621,0.001949067508435376,0.00042617637007569265,-0.11884144780065586,-0.23322600220307477,0.001949067508435376,-0.11884144780065586,2,Foot-flat,0.6998110692440751
1774392235626,0.0309793,1.00292,-0.0208037,-0.228553,-1.18252,0.450836,0,-1.6172405451398038,3.25269,999,log_felix4.csv,0,False,0.865,91.46287016423531,1.0036139882256425,1.2860183214499705,0.005344500000000002,0.005343400000000002,0.0019500000000001183,0.00023900000000021127,0.0104017,0.019360000000000002,-0.15208080000000002,-0.1976536,-0.227754,-0.4175279999999999,-0.15187700000000004,-0.2657900000000001,-0.1016251940647237,-0.1834783600999259,-0.0561274920664947,-0.0912195068696553,0.0018296497274805645,-0.00011941778095481137,0.15434298262799184,0.2731844304286477,0.0018296497274805645,0.15434298262799184,2,Foot-flat,0.6998110692440751
1774392235640,0.033678,0.999043,-0.0253679,-0.0615682,-1.13754,0.587378,0,-1.701762248664133,3.87084,999,log_felix4.csv,0,False,0.879,91.46062332549096,0.9999323246517285,1.2817179134798888,0.0026986999999999983,-0.0026458000000000037,-0.0038770000000000193,-0.005827000000000138,-0.004564199999999997,-0.014965899999999997,0.16698480000000002,0.31906560000000006,0.04498000000000002,0.27273400000000003,0.13654199999999994,0.288419,-0.002246838744355273,0.09937835532036843,-0.0845217035243293,-0.028394211457834606,-0.0036816635739139736,-0.005511313301394538,-0.004300407970081688,-0.15864339059807353,-0.0036816635739139736,-0.004300407970081688,2,Foot-flat,0.8257748421545131
1774392235654,0.0254317,1.00825,-0.0229612,-0.175233,-1.17546,0.572563,0,-1.6322681085370663,3.27288,999,log_felix4.csv,0,False,0.893,91.41846985295777,1.0088320229702912,1.3191820211244543,-0.008246299999999998,-0.010944999999999996,0.009207000000000076,0.013084000000000096,0.0024066999999999977,0.006970899999999995,-0.11366480000000001,-0.28064960000000005,-0.037919999999999954,-0.08289999999999997,-0.014814999999999912,-0.15135699999999985,-0.04215347253318669,-0.039906633788831414,0.06949414012706678,0.1540158436513961,0.008899698318562632,0.012581361892476606,0.037464107644565425,0.04176451561464711,0.008899698318562632,0.037464107644565425,2,Foot-flat,0.8257748421545131
1774392235667,0.0317071,1.00271,-0.0261074,0.106029,-1.2669,0.572519,0,-1.6804337992106586,3.6247,999,log_felix4.csv,0,False,0.906,91.43818969803148,1.0035508360941012,1.394294002067713,0.0062754,0.014521699999999998,-0.0055400000000001,-0.014747000000000177,-0.0031461999999999983,-0.005552899999999996,0.281262,0.3949268,-0.09143999999999997,-0.05352000000000001,-4.4000000000044004e-05,0.014770999999999868,0.019719845073709052,0.06187331760689574,-0.04816569067359233,-0.11765983080065912,-0.005281186876189947,-0.01418088519475258,0.07511198094325877,0.037647873298693346,-0.005281186876189947,0.07511198094325877,2,Foot-flat,0.8257748421545131
1774392235681,0.024936,1.00269,-0.0229649,0.053592,-1.0769,0.656238,0,-1.6112181040054618,3.27415,999,log_felix4.csv,0,False,0.92,91.40410754219236,1.0032628901878162,1.2622337442439098,-0.006771100000000002,-0.013046500000000003,-1.999999999990898e-05,0.005520000000000191,0.0031424999999999995,0.006288699999999998,-0.052437,-0.333699,0.18999999999999995,0.2814399999999999,0.08371899999999999,0.08376300000000003,-0.03408215583911556,-0.05380200091282461,0.06921569520519677,0.1173813858787891,-0.00028794590628500316,0.004993240969904944,-0.13206025782380326,-0.20717223876706203,-0.00028794590628500316,-0.13206025782380326,2,Foot-flat,0.8257748421545131
1774392235694,0.0261172,1.00099,-0.0268362,0.0229923,-1.07634,0.603212,0,-1.5795643255660208,3.2481,999,log_felix4.csv,0,False,0.933,91.43966141585173,1.0016902065340763,1.2340588148071752,0.0011812000000000003,0.007952300000000002,-0.0017000000000000348,-0.0016800000000001258,-0.003871300000000001,-0.007013800000000001,-0.0305997,0.021837299999999997,0.0005599999999998939,-0.18944000000000005,-0.05302600000000002,-0.136745,0.03555387365936724,0.0696360294984828,0.03165377843944106,-0.03756191676575571,-0.0015726836537399702,-0.001284737747454967,-0.028174929436734608,0.10388532838706865,-0.0015726836537399702,-0.028174929436734608,2,Foot-flat,0.8257748421545131
1774392235708,0.0280665,0.997333,-0.0270983,0.10662,-1.26661,0.679162,0,-1.5881574825967593,3.28088,999,log_felix4.csv,0,False,0.947,91.47119561209307,0.9980957665345245,1.4411556955249492,0.001949300000000001,0.0007681000000000007,-0.0036570000000000213,-0.0019569999999999865,-0.00026209999999999775,0.0036092000000000034,0.0836277,0.1142274,-0.19026999999999994,-0.19082999999999983,0.07595000000000007,0.1289760000000001,0.031534196241338464,-0.0040196774180287775,-0.008593157030738485,-0.040246935470179546,-0.0035944399995517795,-0.0020217563458118093,0.207096880717774,0.2352718101545086,-0.0035944399995517795,0.207096880717774,2,Foot-flat,0.8239349885735546
1774392235721,0.0302625,1.00679,-0.0212692,-0.0757903,-0.886633,0.686999,0,-1.624131467292988,3.26136,999,log_felix4.csv,0,False,0.96,91.4006959258187,1.0074692560445158,1.1242018823432427,0.002196,0.000246699999999999,0.009457000000000049,0.01311400000000007,0.0058291,0.006091199999999998,-0.18241030000000003,-0.266038,0.379977,0.570247,0.007836999999999983,-0.06811300000000009,-0.07049968627437408,-0.10203388251571255,-0.03597398469622881,-0.027380827665490326,0.009373489509991284,0.012967929509543064,-0.31695381318170646,-0.5240506938994804,0.009373489509991284,-0.31695381318170646,2,Foot-flat,0.8239349885735546
1774392235734,0.0310022,0.999548,-0.0207545,0.0454389,-1.15188,0.66419,0,-1.6651992285750024,3.31893,999,log_felix4.csv,0,False,0.973,91.34364329368682,1.0002440152178318,1.3304287219288413,0.0007396999999999994,-0.0014563000000000006,-0.007242000000000082,-0.01669900000000013,0.0005146999999999999,-0.0053144,0.12122920000000001,0.30363950000000006,-0.265247,-0.645224,-0.02280900000000008,-0.030646000000000062,-0.05705263213187095,0.013447054142503134,-0.04106776128201428,-0.00509377658578547,-0.007225240826683965,-0.01659873033667525,0.20622683958559862,0.5231806527673051,-0.007225240826683965,0.20622683958559862,2,Foot-flat,0.8239349885735546
1774392235748,0.0324634,1.00413,-0.0248818,0.167574,-1.19833,0.82395,0,-1.7154357207779953,3.48335,999,log_felix4.csv,0,False,0.987,91.36412782085968,1.0049627023978551,1.4638884646297339,0.0014612000000000028,0.0007215000000000034,0.004581999999999975,0.011824000000000057,-0.0041273,-0.004642,0.1221351,0.0009058999999999873,-0.04644999999999988,0.21879700000000013,0.15976,0.1825690000000001,0.020484527172854428,0.07753715930472538,-0.05023649220299298,-0.009168730920978696,0.004718687180023329,0.011943928006707294,0.13345974270089256,-0.07276709688470606,0.004718687180023329,0.13345974270089256,2,Foot-flat,0.8239349885735546
1774392235761,0.0271262,0.997105,-0.0263598,0.129884,-1.15281,0.748318,0,-1.6728497023806628,3.29867,999,log_felix4.csv,0,False,1.0,91.40470792660432,0.9978221538969156,1.3805146064710796,-0.005337200000000004,-0.0067984000000000065,-0.007024999999999948,-0.011606999999999923,-0.0014780000000000001,0.0026493000000000003,-0.03769,-0.1598251,0.045520000000000005,0.09196999999999989,-0.07563199999999992,-0.23539199999999993,0.04058010574463822,0.02009557857178379,0.04258601839733256,0.09282251060032554,-0.007140548500939481,-0.01185923568096281,-0.08337385815865428,-0.21683360085954684,-0.007140548500939481,-0.08337385815865428,2,Foot-flat,0.8239349885735546
1774392235775,0.022727,1.0012,-0.0212656,0.099328,-1.19073,0.717649,0,-1.572144735279107,3.27565,999,log_felix4.csv,0,False,1.014,91.35393959867173,1.0016836737575192,1.3938163694278383,-0.004399199999999999,0.0009380000000000048,0.004095000000000071,0.011120000000000019,0.0050942,0.0065722,-0.030556,0.0071340000000000015,-0.037920000000000176,-0.08344000000000018,-0.030669000000000057,0.044962999999999864,-0.050768327932587454,-0.09134843367722567,0.10070496710155585,0.058118948704223294,0.0038615198606035683,0.01100206836154305,0.013301762956758667,0.09667562111541295,0.0038615198606035683,0.013301762956758667,2,Foot-flat,0.6433811456175691
1774392235788,0.0394675,1.00001,-0.0324152,0.0383503,-0.977736,0.732779,0,-1.7576868329255528,3.57011,999,log_felix4.csv,0,False,1.027,91.48973251364306,1.0013133519769375,1.2224579723029705,0.016740500000000002,0.0211397,-0.0011900000000000244,-0.005285000000000095,-0.011149599999999999,-0.0162438,-0.0609777,-0.030421700000000003,0.21299400000000002,0.2509140000000002,0.015129999999999977,0.045799000000000034,0.13579291497133283,0.1865612429039203,-0.1855420976464459,-0.28624706474800177,-0.00037032178058171716,-0.0042318416411852855,-0.17135839712486778,-0.18466016008162645,-0.00037032178058171716,-0.17135839712486778,2,Foot-flat,0.6433811456175691
1774392235802,0.0203587,1.00024,-0.0290694,0.159942,-1.1141,0.740435,0,-1.5977132611286415,3.28052,999,log_felix4.csv,0,False,1.041,91.53699721002407,1.0008694042091857,1.3472357783955264,-0.019108800000000002,-0.0358493,0.00022999999999995246,0.0014199999999999768,0.0033457999999999995,0.014495399999999999,0.1215917,0.1825694,-0.13636400000000004,-0.34935800000000006,0.007655999999999996,-0.007473999999999981,0.04726469638100639,-0.08852821859032645,0.1599735717969113,0.3455156694433572,-0.00044394776775180667,-7.36259871700895e-05,0.12477780609255595,0.29613620321742373,-0.00044394776775180667,0.12477780609255595,2,Foot-flat,0.6433811456175691
1774392235815,0.0326537,1.00243,-0.0329397,0.0613636,-1.03078,0.702404,0,-1.669846361108702,3.25319,999,log_felix4.csv,0,False,1.054,91.630216324467,1.0035024628070326,1.248857189201776,0.012295,0.0314038,0.0021899999999999142,0.0019599999999999618,-0.0038703000000000036,-0.007216100000000003,-0.09857840000000001,-0.2201701,0.08332000000000006,0.2196840000000001,-0.038030999999999926,-0.04568699999999992,0.09321911444293107,0.045954418061924684,-0.07213309998006046,-0.23210667177697175,0.0026330585978469045,0.003077006365598711,-0.09837858919375053,-0.22315639528630649,0.0026330585978469045,-0.09837858919375053,2,Foot-flat,0.6433811456175691
1774392235829,0.031014,1.0022,-0.0249421,0.167621,-0.847875,0.481577,0,-1.6974320655209,3.30082,999,log_felix4.csv,0,False,1.068,91.5749503005691,1.002989938408362,0.98939639285526,-0.0016397000000000009,-0.013934700000000001,-0.00022999999999995246,-0.0024199999999998667,0.007997600000000004,0.011867900000000008,0.1062574,0.2048358,0.18290499999999998,0.09958499999999992,-0.22082700000000005,-0.18279600000000013,-0.05526602389790014,-0.1484851383408312,-0.027585704412198098,0.04454739556786236,-0.0005125243986705552,-0.0031455829965174598,-0.25946079634651587,-0.16108220715276533,-0.0005125243986705552,-0.25946079634651587,2,Foot-flat,0.6433811456175691
1774392235842,0.03052,1.00754,-0.0205298,0.198381,-0.877773,0.945178,0,-1.7074976639513073,3.25706,999,log_felix4.csv,0,False,1.081,91.4648228365246,1.0082111855598708,1.305067780758532,-0.0004940000000000014,0.0011456999999999995,0.005340000000000122,0.005570000000000075,0.0044122999999999975,-0.0035853000000000065,0.03076000000000001,-0.07549739999999999,-0.02989799999999998,-0.21280299999999996,0.463601,0.684428,-0.11012746404449558,-0.05486144014659544,-0.010065598430407219,0.01752010598179088,0.005221247151508734,0.00573377155017929,0.315671387903272,0.5751321842497878,0.005221247151508734,0.315671387903272,2,Foot-flat,0.8080061465861554
1774392235855,0.0288171,0.997608,-0.0265812,0.0158132,-0.740868,0.695404,0,-1.6930477196230267,3.28171,999,log_felix4.csv,0,False,1.094,91.48142618854398,0.9983780381748439,1.0162293904105706,-0.0017029000000000002,-0.0012088999999999989,-0.009932000000000052,-0.015272000000000174,-0.0060513999999999984,-0.010463699999999996,-0.1825678,-0.2133278,0.13690500000000005,0.16680300000000003,-0.24977399999999994,-0.7133749999999999,0.016603352019373574,0.12673081606386916,0.014449944328280617,0.024515542758687836,-0.00983314738502683,-0.015054394536535565,-0.28883839034796144,-0.6045097782512334,-0.00983314738502683,-0.28883839034796144,2,Foot-flat,0.8080061465861554
1774392235869,0.0256505,0.999745,-0.0321986,0.21315,-0.892676,0.588107,0,-1.6325080805215206,3.27419,999,log_felix4.csv,0,False,1.108,91.57956059851513,1.0005922061545403,1.090033580640982,-0.0031665999999999986,-0.0014636999999999983,0.0021369999999999445,0.012068999999999996,-0.0056174000000000016,0.0004339999999999969,0.1973368,0.37990460000000004,-0.15180800000000005,-0.2887130000000001,-0.10729699999999998,0.14247699999999996,0.09813440997115208,0.08153105795177851,0.06053963910150606,0.04608969477322544,0.002214167979696313,0.012047315364723143,0.0738041902304114,0.36264258057837284,0.002214167979696313,0.0738041902304114,2,Foot-flat,0.8080061465861554
1774392235882,0.0300076,1.00194,-0.0276107,-0.014586,-0.984458,0.625841,0,-1.654744195567098,3.65858,999,log_felix4.csv,0,False,1.121,91.57927785149762,1.002769450278702,1.1666393026299946,0.004357099999999999,0.007523699999999998,0.002195000000000058,5.8000000000113516e-05,0.004587900000000002,0.010205300000000004,-0.227736,-0.42507280000000003,-0.09178200000000003,0.060026000000000024,0.037733999999999934,0.1450309999999999,-0.0002827470175077451,-0.09841715698865983,-0.02223611504557743,-0.08277575414708349,0.002177244124161648,-3.692385553466515e-05,0.07660572198901261,0.0028015317586012056,0.002177244124161648,0.07660572198901261,2,Foot-flat,0.8080061465861554
1774392235896,0.0288145,1.00705,-0.0271021,0.106508,-0.96951,0.633565,0,-1.6503156029583566,3.26843,999,log_felix4.csv,0,False,1.135,91.5690970505938,1.0078266228546753,1.1630555461322558,-0.001193099999999999,-0.005550199999999998,0.005109999999999948,0.00291499999999989,0.0005085999999999979,-0.0040793000000000045,0.12109400000000001,0.34883,0.014948000000000072,0.1067300000000001,0.007724000000000064,-0.03000999999999987,-0.010180800903825116,-0.00989805388631737,0.004428592608741511,0.026664707654318942,0.005057172575973379,0.0028799284518117307,-0.003583756497738788,-0.0801894784867514,0.005057172575973379,-0.003583756497738788,2,Foot-flat,0.8080061465861554
1774392235909,0.0246788,1.00149,-0.022241,-0.0072932,-0.82486,0.511815,0,-1.5857315904472271,3.25147,999,log_felix4.csv,0,False,1.148,91.48889127956829,1.0020408800794707,0.970773817421566,-0.004135699999999999,-0.0029426,-0.005560000000000009,-0.010669999999999957,0.0048611,0.004352500000000002,-0.1138012,-0.23489520000000003,0.14464999999999995,0.12970199999999987,-0.12175000000000002,-0.1294740000000001,-0.08020577102550419,-0.07002497012167908,0.06458401251112944,0.06015541990238793,-0.005785742775204605,-0.010842915351177984,-0.19228172871068983,-0.18869797221295104,-0.005785742775204605,-0.19228172871068983,2,Foot-flat,0.796168685542545
1774392235923,0.0355902,1.00025,-0.0193017,0.114141,-1.06036,0.724555,0,-1.707757999896958,3.28369,999,log_felix4.csv,0,False,1.162,91.38531367346994,1.0010690687754418,1.2893298435644776,0.010911400000000002,0.0150471,-0.0012399999999999078,0.0043200000000001015,0.002939299999999999,-0.0019218000000000013,0.1214342,0.2352354,-0.23549999999999993,-0.3801499999999999,0.21273999999999993,0.33448999999999995,-0.10357760609835509,-0.0233718350728509,-0.12202640944973098,-0.18661042196086042,-0.0009718113040289023,0.004813931471175703,0.31855602614291156,0.5108377548536014,-0.0009718113040289023,0.31855602614291156,2,Foot-flat,0.796168685542545
1774392235936,0.0281134,1.00705,-0.0243888,0.221054,-0.969737,0.877405,0,-1.6782733824653244,3.25552,999,log_felix4.csv,0,False,1.175,91.38585612529741,1.0077375051693769,1.326308506385298,-0.007476800000000002,-0.018388200000000004,0.006799999999999917,0.008039999999999825,-0.005087099999999997,-0.008026399999999996,0.106913,-0.014521200000000012,0.09062300000000001,0.32612299999999994,0.15285000000000004,-0.05988999999999989,0.0005424518274708134,0.1041200579258259,0.029484617431633664,0.15151102688136464,0.0066684363939351066,0.007640247697964009,0.03697866282082041,-0.28157736332209116,0.0066684363939351066,0.03697866282082041,2,Foot-flat,0.796168685542545
1774392235949,0.0297769,1.00246,-0.0239281,0.274649,-0.992299,0.611482,0,-1.684391383832,3.3106,999,log_felix4.csv,0,False,1.188,91.38085797633764,1.0031875544200197,1.1974972296109916,0.0016634999999999983,0.0091403,-0.004590000000000094,-0.011390000000000011,0.0004606999999999979,0.005547799999999995,0.053594999999999976,-0.05331800000000002,-0.022562000000000082,-0.11318500000000009,-0.265923,-0.41877300000000006,-0.0049981489597712425,-0.005540600787242056,-0.006118001366675507,-0.03560261879830917,-0.004549950749357157,-0.011218387143292263,-0.12881127677430637,-0.16578993959512678,-0.004549950749357157,-0.12881127677430637,2,Foot-flat,0.796168685542545
1774392235963,0.0244406,1.00341,-0.0331572,0.259587,-1.02281,0.534581,0,-1.6060882626202189,3.26962,999,log_felix4.csv,0,False,1.202,91.51911440950826,1.0042551323942535,1.1829211944292823,-0.005336299999999999,-0.006999799999999997,0.0009500000000000064,0.0055400000000001,-0.009229099999999997,-0.009689799999999995,-0.015061999999999964,-0.06865699999999994,-0.030510999999999955,-0.007948999999999873,-0.076901,0.18902200000000002,0.13825643317062486,0.1432545821303961,0.07830312121178107,0.08442112257845658,0.0010675779742337355,0.005617528723590892,-0.014576035181709246,0.11423524159259713,0.0010675779742337355,-0.014576035181709246,2,Foot-flat,0.796168685542545
1774392235977,0.0258718,0.998559,-0.0152259,-0.0448908,-0.901127,0.823563,0,-1.5730998570595398,3.74247,999,log_felix4.csv,0,False,1.216,91.34471685437416,0.9990101373595015,1.2215977525448547,0.0014312000000000005,0.006767499999999999,-0.004850999999999939,-0.005800999999999945,0.017931299999999997,0.027160399999999994,-0.3044778,-0.28941580000000006,0.12168299999999999,0.15219399999999994,0.28898200000000007,0.36588300000000007,-0.1743975551341066,-0.31265398830473146,0.03298840556067906,-0.04531471565110201,-0.005244995034751954,-0.006312573008985689,0.03867655811557236,0.0532525932972816,-0.005244995034751954,0.03867655811557236,2,Foot-flat,0.7975049476319662
1774392235990,0.0321951,1.00607,-0.0289843,0.410851,-1.10626,0.497159,0,-1.6430781326374901,3.25534,999,log_felix4.csv,0,False,1.229,91.42724559626129,1.0070022140047659,1.2805377007655807,0.006323299999999997,0.0048920999999999965,0.007511000000000045,0.012361999999999984,-0.0137584,-0.0316897,0.45574180000000003,0.7602196000000001,-0.205133,-0.326816,-0.326404,-0.6153860000000001,0.08252874188713122,0.2569262970212378,-0.06997827557795033,-0.10296668113862939,0.007992076645264357,0.01323707168001631,0.05893994822072601,0.020263390105153656,0.007992076645264357,0.05893994822072601,2,Foot-flat,0.7975049476319662
1774392236003,0.0251814,1.00659,-0.0302671,0.206717,-0.711106,0.7169,0,-1.586161097858765,3.23236,999,log_felix4.csv,0,False,1.242,91.50695765575318,1.0073597313514027,1.0307032896643922,-0.007013699999999998,-0.013336999999999995,0.000520000000000076,-0.0069909999999999695,-0.0012828000000000006,0.0124756,-0.204134,-0.6598758,0.395154,0.600287,0.21974099999999996,0.546145,0.07971205949189653,-0.002816682395234693,0.05691703477872512,0.12689531035667545,0.00035751734663680423,-0.007634559298627552,-0.24983441110118854,-0.30877435932191455,0.00035751734663680423,-0.24983441110118854,2,Foot-flat,0.7975049476319662
1774392236017,0.0263613,0.998818,-0.0273582,0.145222,-0.862144,0.938269,0,-1.5659264054362245,3.24873,999,log_felix4.csv,0,False,1.256,91.52371124087786,0.9995402875166813,1.2824704372347147,0.001179900000000001,0.008193599999999999,-0.007772000000000112,-0.008292000000000188,0.0029089000000000025,0.004191700000000003,-0.06149500000000002,0.142639,-0.151038,-0.546192,0.22136900000000004,0.0016280000000000738,0.016753585124675396,-0.06295847436722113,0.0202346924225405,-0.036682342356184616,-0.007819443834721329,-0.008176961181358133,0.2517671475703225,0.501601558671511,-0.007819443834721329,0.2517671475703225,2,Foot-flat,0.7975049476319662
1774392236030,0.0263672,1.00364,-0.0300161,-0.159394,-0.91587,0.862821,0,-1.5492592082217032,3.23304,999,log_felix4.csv,0,False,1.269,91.57486170875791,1.0044348884298326,1.2683392220447178,5.8999999999996555e-06,-0.0011740000000000014,0.004822000000000104,0.012594000000000216,-0.0026579000000000012,-0.005566800000000004,-0.304616,-0.24312099999999998,-0.05372599999999994,0.09731200000000007,-0.07544800000000007,-0.2968170000000001,0.05115046788004918,0.03439688275537378,0.016667197214521368,-0.0035674952080191336,0.0048946009131513035,0.012714044747872633,-0.014131215189996826,-0.2658983627603193,0.0048946009131513035,-0.014131215189996826,2,Foot-flat,0.7975049476319662
1774392236043,0.0309829,1.00439,-0.0261423,0.0984654,-0.931252,0.80171,0,-1.6078866403704308,3.25593,999,log_felix4.csv,0,False,1.282,91.55219515101598,1.005207755661336,1.232746789329082,0.0046157,0.004609800000000001,0.0007499999999998064,-0.004072000000000298,0.0038738,0.006531700000000001,0.2578594,0.5624754000000001,-0.015382000000000007,0.038343999999999934,-0.061110999999999915,0.014337000000000155,-0.022666557741928273,-0.07381702562197745,-0.058627432148727676,-0.07529462936324904,0.0007728672315032714,-0.004121733681648032,-0.035592432715635836,-0.02146121752563901,0.0007728672315032714,-0.035592432715635836,2,Foot-flat,0.7963872351564756
1774392236057,0.0436382,1.00026,-0.0355975,0.114456,-0.923687,0.588424,0,-1.8479435806039866,3.27139,999,log_felix4.csv,0,False,1.296,91.68349134598752,1.0018440707542715,1.1011542370081495,0.012655300000000001,0.008039600000000001,-0.004129999999999967,-0.004879999999999773,-0.009455199999999997,-0.013328999999999997,0.015990600000000008,-0.2418688,0.007564999999999933,0.02294699999999994,-0.2132860000000001,-0.15217500000000017,0.1312961949715401,0.15396275271346838,-0.24005694023355573,-0.18142950808482805,-0.0033636849070644015,-0.004136552138567673,-0.13159255232093248,-0.09600011960529664,-0.0033636849070644015,-0.13159255232093248,2,Foot-flat,0.7963872351564756
1774392236070,0.0247522,0.999758,-0.0288422,-0.19754,-0.79428,0.625842,0,-1.7316999520538703,3.25078,999,log_felix4.csv,0,False,1.309,91.67511289935193,1.0004801859455688,1.030330519282041,-0.018886000000000003,-0.03154130000000001,-0.0005019999999998914,0.0036280000000000756,0.006755299999999999,0.016210499999999996,-0.311996,-0.3279866,0.12940700000000005,0.12184200000000012,0.03741800000000006,0.25070400000000015,-0.008378446635589398,-0.1396746416071295,0.11624362855011627,0.356300568783672,-0.0013638848087027533,0.001999800098361648,-0.07082371772610863,0.06076883459482385,-0.0013638848087027533,-0.07082371772610863,2,Foot-flat,0.7963872351564756
1774392236083,0.0351047,1.00534,-0.0346391,-0.213692,-1.1516,0.724895,0,-1.80382356975356,3.25436,999,log_felix4.csv,0,False,1.322,91.75568397076347,1.0065489172468964,1.3774322458433301,0.010352500000000004,0.029238500000000008,0.005581999999999865,0.006083999999999756,-0.005796900000000001,-0.0125522,-0.016152,0.295844,-0.35731999999999997,-0.486727,0.09905299999999995,0.061634999999999884,0.08057107141154063,0.08894951804713003,-0.07212361769968978,-0.18836724624980605,0.006068731301327679,0.007432616110030432,0.34710172656128924,0.41792544428739786,0.006068731301327679,0.34710172656128924,2,Foot-flat,0.7963872351564756
1774392236097,0.020823,1.00221,-0.0302951,-0.183297,-0.779738,0.869796,0,-1.6379209228586076,3.23878,999,log_felix4.csv,0,False,1.336,91.74913066894574,1.0028839785902506,1.1824272580032145,-0.014281700000000001,-0.024634200000000005,-0.003129999999999855,-0.00871199999999972,0.004344000000000001,0.010140900000000001,0.030395000000000005,0.046547000000000005,0.3718619999999999,0.7291819999999999,0.14490100000000006,0.04584800000000011,-0.006553301817731949,-0.08712437322927258,0.1659026468949525,0.23802626459464227,-0.0036649386566458553,-0.009733669957973534,-0.19500498784011566,-0.5421067144014049,-0.0036649386566458553,-0.19500498784011566,2,Foot-flat,0.7963872351564756
1774392236110,0.0234246,1.00536,-0.0259008,0.0755616,-0.717743,1.2051,0,-1.5558934644068474,3.24997,999,log_felix4.csv,0,False,1.349,91.67528010493713,1.0059663478098062,1.4046816648065,0.002601599999999999,0.0168833,0.003149999999999986,0.006279999999999841,0.004394299999999997,5.029999999999618e-05,0.2588586,0.2284636,0.06199500000000002,-0.3098669999999999,0.33530400000000005,0.190403,-0.0738505640086089,-0.06729726219087695,0.08202745845176018,-0.0838751884431923,0.003082369219555625,0.00674730787620148,0.22225440680328545,0.4172593946434011,0.003082369219555625,0.22225440680328545,2,Foot-flat,0.6012236846843316
1774392236123,0.0219798,1.00561,-0.0244214,-0.23571,-0.961104,0.673346,0,-1.4737288159671917,3.236,999,log_felix4.csv,0,False,1.362,91.59852430453024,1.0061466038734117,1.1969439997894638,-0.0014447999999999996,-0.004046399999999999,0.00024999999999986144,-0.0029000000000001247,0.0014794000000000022,-0.0029148999999999946,-0.3112716,-0.5701301999999999,-0.24336099999999994,-0.30535599999999996,-0.5317540000000001,-0.8670580000000001,-0.07675580040688601,-0.0029052363982771112,0.08216464843965565,0.00013718998789546966,0.0001802560636054995,-0.0029021131559501256,-0.20773766501703617,-0.4299920718203216,0.0001802560636054995,-0.20773766501703617,2,Foot-flat,0.6012236846843316
1774392236137,0.0256167,0.99687,-0.0229565,-0.213806,-1.06838,0.511933,0,-1.4731599889978466,3.25799,999,log_felix4.csv,0,False,1.376,91.52306506586412,0.9974632891044863,1.203837292380079,0.0036368999999999985,0.005081699999999998,-0.008739999999999859,-0.00898999999999972,0.0014648999999999981,-1.4500000000004093e-05,0.021904000000000007,0.3331756,-0.10727600000000015,0.1360849999999998,-0.16141300000000003,0.37034100000000003,-0.07545923866612725,0.0012965617407587615,0.0005688269693451264,-0.08159582147031053,-0.008683314768925365,-0.008863570832530865,0.00689329259061533,0.2146309576076515,-0.008683314768925365,0.00689329259061533,2,Foot-flat,0.6012236846843316
1774392236150,0.0377813,1.00776,-0.0258644,-0.0158592,-1.11437,0.572338,0,-1.65502066892211,3.2716,999,log_felix4.csv,0,False,1.389,91.5087797424887,1.0087995893224035,1.252853861138098,0.012164599999999998,0.0085277,0.010889999999999955,0.019629999999999814,-0.002907899999999998,-0.004372799999999996,0.1979468,0.1760428,-0.045989999999999975,0.061286000000000174,0.06040500000000004,0.22181800000000007,-0.014285323375418102,0.06117391529070915,-0.18186067992426347,-0.1824295068936086,0.011336300217917206,0.02001961498684257,0.04901656875801885,0.04212327616740352,0.011336300217917206,0.04901656875801885,2,Foot-flat,0.6012236846843316
1774392236163,0.0419713,0.995666,-0.0239354,-0.0457122,-1.00795,0.336583,0,-1.8598260756545155,3.24795,999,log_felix4.csv,0,False,1.402,91.47320609418732,0.9968376382103808,1.063645111688029,0.004190000000000006,-0.007974599999999991,-0.012093999999999938,-0.022983999999999893,0.0019290000000000002,0.004836899999999998,-0.029853,-0.2277998,0.10642000000000018,0.15241000000000016,-0.235755,-0.29616000000000003,-0.03557364830137999,-0.021288324925961888,-0.20480540673240544,-0.02294472680814197,-0.011961951112022695,-0.0232982513299399,-0.18920874945006894,-0.2382253182080878,-0.011961951112022695,-0.18920874945006894,2,Foot-flat,0.6012236846843316
1774392236177,0.0252298,1.00168,-0.0236829,-0.099077,-0.96197,0.411988,0,-1.7470635528277498,3.24593,999,log_felix4.csv,0,False,1.416,91.44111044760703,1.002277528911254,1.0511596667362195,-0.016741500000000003,-0.02093150000000001,0.006013999999999853,0.01810799999999979,0.00025249999999999925,-0.001676500000000001,-0.0533648,-0.023511799999999996,0.04597999999999991,-0.06044000000000027,0.075405,0.31116,-0.03209564658028796,0.0034780017210920278,0.11276252282676569,0.3175679295591711,0.00543989070087314,0.017401841812895835,-0.012485444951809477,0.17672330449825946,0.00543989070087314,-0.012485444951809477,2,Foot-flat,0.7830537865760376
1774392236190,0.0363218,1.00608,-0.0285403,-0.0155171,-1.05316,0.724257,0,-1.833437102711637,3.23252,999,log_felix4.csv,0,False,1.429,91.49076795221713,1.0071399050178333,1.27825465696058,0.011092000000000001,0.027833500000000004,0.0044000000000001815,-0.0016139999999996713,-0.004857400000000001,-0.0051099000000000006,0.08355989999999999,0.13692469999999998,-0.0911900000000001,-0.13717000000000001,0.312269,0.23686400000000002,0.04965750461009577,0.08175315119038373,-0.08637354988388712,-0.1991360727106528,0.004862376106579358,-0.000577514594293782,0.22709499022436042,0.2395804351761699,0.004862376106579358,0.22709499022436042,2,Foot-flat,0.7830537865760376
1774392236203,0.0230154,0.99833,-0.0283214,-0.0761545,-0.855553,0.748021,0,-1.6947630063874901,3.24811,999,log_felix4.csv,0,False,1.442,91.52702490092395,0.9989967964088374,1.1389933538525367,-0.013306400000000003,-0.024398400000000004,-0.007750000000000035,-0.012150000000000216,0.00021890000000000104,0.005076300000000002,-0.0606374,-0.1441973,0.1976070000000001,0.2887970000000002,0.023764000000000007,-0.288505,0.03625694870682139,-0.01340055590327438,0.13867409632414684,0.22504764620803397,-0.00814310860899592,-0.013005484715575277,-0.1392613031080432,-0.3663562933324036,-0.00814310860899592,-0.1392613031080432,2,Foot-flat,0.7830537865760376
1774392236217,0.0278082,1.00631,-0.0341507,0.0758811,-0.923461,0.717648,0,-1.6642963465332004,3.23698,999,log_felix4.csv,0,False,1.456,91.63958571191617,1.007273241180232,1.171988400865047,0.004792800000000003,0.018099200000000006,0.007979999999999987,0.015730000000000022,-0.005829299999999999,-0.0060482,0.1520356,0.212673,-0.06790799999999997,-0.26551500000000006,-0.030373000000000094,-0.0541370000000001,0.11256081099222115,0.07630386228539976,0.030466659854289757,-0.10820743646985709,0.008276444771394664,0.016419553380390584,0.032995047012510215,0.1722563501205534,0.008276444771394664,0.032995047012510215,2,Foot-flat,0.7830537865760376
1774392236230,0.0249167,1.00805,-0.0234905,-0.0834928,-0.870388,0.74039,0,-1.5970956307640436,3.26526,999,log_felix4.csv,0,False,1.469,91.55727753615511,1.0086314728527659,1.1457415373005555,-0.0028915000000000017,-0.007684300000000005,0.0017399999999998528,-0.006240000000000134,0.010660199999999998,0.016489499999999997,-0.1593739,-0.3114095,0.053072999999999926,0.1209809999999999,0.02274200000000004,0.053115000000000134,-0.08230817576105665,-0.1948689867532778,0.06720071576915676,0.036734055914867,0.001358231672533794,-0.00691821309886087,-0.026246863564491463,-0.05924191057700168,0.001358231672533794,-0.026246863564491463,2,Foot-flat,0.7830537865760376
1774392236243,0.033405,1.00198,-0.0217372,0.159578,-1.05289,0.626295,0,-1.6813658982301232,3.23923,999,log_felix4.csv,0,False,1.482,91.47231778932307,1.0027723172728893,1.2354302559064192,0.008488299999999997,0.011379799999999999,-0.006069999999999798,-0.0078099999999996506,0.0017532999999999993,-0.008906899999999999,0.2430708,0.4024447,-0.18250200000000005,-0.23557499999999998,-0.11409499999999995,-0.136837,-0.0849597468320411,-0.0026515710709844598,-0.08427026746607957,-0.15147098323523633,-0.005859155579876596,-0.00721738725241039,0.0896887186058637,0.11593558217035516,-0.005859155579876596,0.0896887186058637,2,Foot-flat,0.7860310043497045
1774392236257,0.0254303,1.00122,-0.0185704,0.0613625,-1.0306,0.664009,0,-1.6201335369290402,3.27443,999,log_felix4.csv,0,False,1.496,91.36162652533197,1.0017150534529518,1.2275217588650924,-0.007974699999999998,-0.016462999999999995,-0.0007600000000000939,0.005309999999999704,0.003166800000000001,0.0014135000000000016,-0.0982155,-0.3412863,0.022290000000000143,0.2047920000000002,0.037713999999999914,0.15180899999999986,-0.11069126399110019,-0.02573151715905908,0.061232361301083005,0.14550262876716258,-0.0010572638199375373,0.004801891759939059,-0.00790849704132679,-0.09759721564719048,-0.0010572638199375373,-0.00790849704132679,2,Foot-flat,0.7860310043497045
1774392236270,0.028306,1.00122,-0.0149108,0.0686804,-1.05337,0.915279,0,-1.6198887149304033,3.24615,999,log_felix4.csv,0,False,1.509,91.22427783779622,1.0017310267694817,1.3971546092273253,0.002875700000000002,0.0108504,0.0,0.0007600000000000939,0.0036596000000000007,0.0004927999999999998,0.007317900000000002,0.1055334,-0.022769999999999957,-0.0450600000000001,0.25127,0.21355600000000008,-0.13734868753574858,-0.026657423544648395,0.00024482199863684606,-0.06098753930244616,1.597331652991585e-05,0.0010732371364674531,0.16963285036223286,0.17754134740355965,1.597331652991585e-05,0.16963285036223286,2,Foot-flat,0.7860310043497045
1774392236283,0.0166595,1.00584,-0.0267963,0.0687022,-1.10671,0.870363,0,-1.4385234079178832,3.23732,999,log_felix4.csv,0,False,1.522,91.30580069568603,1.0063347784082295,1.4096307204916614,-0.0116465,-0.014522200000000002,0.0046200000000000685,0.0046200000000000685,-0.011885499999999998,-0.0155451,2.1800000000002373e-05,-0.0072961,-0.053340000000000165,-0.030570000000000208,-0.044915999999999956,-0.29618599999999995,0.08152285788980862,0.2188715454255572,0.18136530701252007,0.18112048501388323,0.004603751638747822,0.004587778322217906,0.01247611126433612,-0.15715673909789674,0.004603751638747822,0.01247611126433612,2,Foot-flat,0.7860310043497045
1774392236297,0.0234039,0.999543,-0.0285557,0.258973,-1.04598,0.87784,0,-1.4121135997092986,3.24887,999,log_felix4.csv,0,False,1.536,91.39512064457656,1.0002246644562909,1.3898720231478148,0.006744399999999998,0.018390899999999998,-0.006297000000000108,-0.010917000000000177,-0.0017594000000000012,0.010126099999999997,0.19027080000000002,0.190249,0.06073000000000017,0.11407000000000034,0.007476999999999956,0.05239299999999991,0.08931994889053385,0.007797091000725231,0.02640980820858463,-0.15495549880393544,-0.006110113951938612,-0.010713865590686433,-0.01975869734384661,-0.03223480860818273,-0.006110113951938612,-0.01975869734384661,2,Foot-flat,0.7860310043497045
1774392236310,0.0338834,1.00267,-0.0190901,-0.0372818,-0.969694,0.7637,0,-1.5534068057432064,3.23249,999,log_felix4.csv,0,False,1.549,91.31288971654638,1.0034239610521418,1.2348822114870874,0.010479500000000003,0.003735100000000005,0.003126999999999991,0.009424000000000099,0.009465600000000001,0.011225000000000002,-0.2962548,-0.4865256,0.07628599999999996,0.015555999999999792,-0.11413999999999991,-0.12161699999999986,-0.08223092803018517,-0.17155087692071902,-0.14129320603390783,-0.16770301424249245,0.0031992965958509423,0.009309410547789554,-0.15498981166072734,-0.13523111431688073,0.0031992965958509423,-0.15498981166072734,2,Foot-flat,0.659452586770439
1774392236323,0.0366075,0.998556,-0.0224442,-0.0914411,-1.10646,0.618754,0,-1.7008071755337988,3.25243,999,log_felix4.csv,0,False,1.562,91.30605774251761,0.9994788323450827,1.2710120844764654,0.0027241,-0.007755400000000003,-0.004113999999999951,-0.007240999999999942,-0.0033541000000000022,-0.012819700000000003,-0.0541593,0.2420955,-0.13676600000000005,-0.21305200000000002,-0.14494600000000002,-0.03080600000000011,-0.00683197402877056,0.07539895400141461,-0.14740036979059234,-0.006107163756684519,-0.003945128707059098,-0.00714442530291004,0.036129872989377976,0.19111968465010531,-0.003945128707059098,0.036129872989377976,2,Foot-flat,0.659452586770439
1774392236337,0.0334629,1.00194,-0.0176022,-0.0916026,-0.916598,0.450884,0,-1.7580147857153083,3.24289,999,log_felix4.csv,0,False,1.576,91.2251237305252,1.002653163721758,1.0255921759582411,-0.0031446000000000043,-0.0058687000000000045,0.0033840000000000536,0.007498000000000005,0.0048420000000000026,0.008196100000000005,-0.00016150000000000886,0.05399779999999999,0.18986199999999998,0.32662800000000003,-0.16787000000000002,-0.022924,-0.08093401199241157,-0.07410203796364101,-0.05720761018150955,0.0901927596090828,0.0031743313766752213,0.007119460083734319,-0.24541990851822426,-0.28154978150760224,0.0031743313766752213,-0.24541990851822426,2,Foot-flat,0.659452586770439
1774392236350,0.0324756,0.995637,-0.0170924,-0.220987,-0.877978,0.747205,0,-1.78770941316509,3.24306,999,log_felix4.csv,0,False,1.589,91.15985224634233,0.9963131287412206,1.1738807156938904,-0.0009872999999999965,0.002157300000000008,-0.0063030000000000586,-0.009687000000000112,0.0005097999999999978,-0.004332200000000005,-0.12938439999999998,-0.12922289999999997,0.03861999999999999,-0.151242,0.296321,0.464191,-0.06527148418287254,0.01566252780953903,-0.029694627449781574,0.027512982731727975,-0.006340034980537368,-0.00951436635721259,0.14828853973564926,0.3937084482538735,-0.006340034980537368,0.14828853973564926,2,Foot-flat,0.659452586770439
1774392236363,0.0533629,1.00848,-0.0187904,0.0526168,-1.12141,0.565429,0,-2.1228924285426305,3.27399,999,log_felix4.csv,0,False,1.602,91.1348849401618,1.0100656358022335,1.2569959704721572,0.020887299999999998,0.021874599999999994,0.012843000000000049,0.019146000000000107,-0.0016979999999999981,-0.002207799999999996,0.2736038,0.4029882,-0.24343199999999998,-0.28205199999999997,-0.18177600000000005,-0.47809700000000005,-0.024967306180528226,0.040304178002344315,-0.3351830153775406,-0.305488387927759,0.013752507061012942,0.02009254204155031,0.08311525477826676,-0.0651732849573825,0.013752507061012942,0.08311525477826676,2,Foot-flat,0.659452586770439
1774392236377,0.0170265,0.992754,-0.0280302,-0.182503,-0.61221,0.633385,0,-1.814721695804123,3.26412,999,log_felix4.csv,0,False,1.616,91.26521360236659,0.9932955745045329,0.8996026830406855,-0.0363364,-0.057223699999999995,-0.015726000000000018,-0.028569000000000067,-0.009239800000000003,-0.007541800000000005,-0.2351198,-0.5087235999999999,0.5092,0.752632,0.06795600000000002,0.24973200000000007,0.13032866220478923,0.15529596838531745,0.3081707327385075,0.6433537481160481,-0.016770061297700645,-0.030522568358713587,-0.3573932874314717,-0.44050854220973845,-0.016770061297700645,-0.3573932874314717,2,Foot-flat,0.6377777338955083
1774392236390,0.0455126,1.00725,-0.0297765,0.136451,-0.846627,0.75536,0,-2.023093352674148,3.24495,999,log_felix4.csv,0,False,1.629,91.38086235999079,1.00871730391176,1.1427882052812761,0.0284861,0.0648225,0.014495999999999953,0.03022199999999997,-0.0017462999999999992,0.007493500000000004,0.31895399999999996,0.5540738,-0.234417,-0.743617,0.12197500000000006,0.05401900000000004,0.11564875762420002,-0.01467990458058921,-0.2083716568700249,-0.5165423896085324,0.015421729407227192,0.032191790704927836,0.24318552224059065,0.6005788096720623,0.015421729407227192,0.24318552224059065,2,Foot-flat,0.6377777338955083
1774392236403,0.0356934,1.00149,-0.0239547,0.0765151,-0.946267,0.329518,0,-2.027820564643985,3.22991,999,log_felix4.csv,0,False,1.642,91.37798184510372,1.0024121241064725,1.0049168662834802,-0.0098192,-0.0383053,-0.005759999999999987,-0.02025599999999994,0.005821800000000002,0.007568100000000001,-0.059935899999999986,-0.37888989999999995,-0.09963999999999995,0.13477700000000004,-0.42584200000000005,-0.5478170000000001,-0.00288051488706742,-0.11852927251126744,-0.004727211969837164,0.20364444490018774,-0.006305179805287553,-0.021726909212514744,-0.1378713389977959,-0.38105686123838656,-0.006305179805287553,-0.1378713389977959,2,Foot-flat,0.6377777338955083
1774392236417,0.0397746,1.00268,-0.0125081,-0.0911017,-0.99984,0.617459,0,-2.093640721566031,3.25043,999,log_felix4.csv,0,False,1.656,91.19879449796308,1.0035465379197768,1.1786582040710063,0.0040812,0.0139004,0.0011900000000000244,0.006950000000000012,0.0114466,0.0056247999999999975,-0.1676168,-0.10768090000000002,-0.05357299999999998,0.04606699999999997,0.287941,0.7137830000000001,-0.17918734714064044,-0.17630683225357302,-0.06582015692204601,-0.06109294495220885,0.001134413813304258,0.007439593618591811,0.1737413377875261,0.311612676785322,0.001134413813304258,0.1737413377875261,2,Foot-flat,0.6377777338955083
1774392236430,0.0232754,1.00074,-0.0275132,0.0301716,-0.946724,0.648761,0,-1.887838979259721,3.25371,999,log_felix4.csv,0,False,1.669,91.30038225011468,1.0013886698077825,1.1480799156607349,-0.0164992,-0.0205804,-0.0019400000000000528,-0.003130000000000077,-0.015005100000000002,-0.0264517,0.1212733,0.28889010000000004,0.05311599999999994,0.10668899999999992,0.03130200000000005,-0.25663899999999995,0.10158775215160176,0.2807750992922422,0.2058017423063101,0.2716218992283561,-0.0021578681119942544,-0.0032922819252985125,-0.030578288410271437,-0.20431962619779753,-0.0021578681119942544,-0.030578288410271437,2,Foot-flat,0.6377777338955083
1774392236443,0.0200357,1.01118,-0.0256441,0.220804,-0.771516,0.565136,0,-1.684388786009282,3.27143,999,log_felix4.csv,0,False,1.682,91.34154322788567,1.0117035344107976,0.9815141584144368,-0.0032397000000000016,0.013259499999999997,0.010440000000000005,0.012380000000000058,0.001869100000000002,0.016874200000000006,0.1906324,0.0693591,0.17520800000000003,0.12209200000000009,-0.08362500000000006,-0.11492700000000011,0.041160977770985596,-0.060426774380616166,0.2034501932504389,-0.002351549055871205,0.010314864603015117,0.012472732715009371,-0.16656575724629807,-0.13598746883602664,0.010314864603015117,-0.16656575724629807,2,Foot-flat,0.6253366826711936
1774392236457,0.0404259,0.995925,-0.0234484,0.0843775,-0.991708,0.473556,0,-1.8571273680586733,3.26667,999,log_felix4.csv,0,False,1.696,91.34348810589839,0.9970209057378737,1.1022066979048213,0.0203902,0.023629900000000002,-0.015255000000000019,-0.025695000000000023,0.0021956999999999983,0.00032659999999999634,-0.1364265,-0.32705890000000004,-0.22019200000000005,-0.3954000000000001,-0.09158,-0.007954999999999934,0.0019448780127220289,-0.03921609975826357,-0.1727385820493912,-0.3761887752998301,-0.014682628672923914,-0.02499749327593903,0.1206925394903845,0.2872582967366826,-0.014682628672923914,0.1206925394903845,2,Foot-flat,0.6253366826711936
1774392236470,0.0337247,1.00241,-0.0212512,0.0230841,-0.687932,0.229737,0,-1.875862878033358,3.24287,999,log_felix4.csv,0,False,1.709,91.30863975523604,1.0032022612571854,0.7256461957909033,-0.0067011999999999974,-0.027091399999999998,0.006485000000000074,0.021740000000000093,0.0021972,1.5000000000015001e-06,-0.0612934,0.07513310000000001,0.30377600000000005,0.5239680000000001,-0.24381899999999998,-0.15223899999999999,-0.03484835066234382,-0.03679322867506585,-0.01873550997468465,0.15400307207470654,0.006181355519311649,0.020863984192235563,-0.376560502113918,-0.4972530416043025,0.006181355519311649,-0.376560502113918,2,Foot-flat,0.6253366826711936
1774392236483,0.0414654,1.00487,-0.0229408,0.319723,-0.999069,0.206177,0,-2.007283098448181,3.24963,999,log_felix4.csv,0,False,1.722,91.30841658698583,1.0059867676077054,1.069051270435146,0.007740699999999996,0.014441899999999994,0.0024599999999999067,-0.004025000000000167,-0.0016895999999999994,-0.0038867999999999993,0.2966389,0.3579323,-0.311137,-0.614913,-0.023559999999999998,0.22025899999999998,-0.0002231682502156218,0.0346251824121282,-0.13142022041482293,-0.11268471044013828,0.0027845063505200773,-0.0033968491687915714,0.34340507464424275,0.7199655767581608,0.0027845063505200773,0.34340507464424275,2,Foot-flat,0.6253366826711936
1774392236497,0.0327582,1.00172,-0.023678,0.419549,-0.893446,0.206107,0,-1.970868910961757,3.23037,999,log_felix4.csv,0,False,1.736,91.32074957034295,1.0025351394097066,1.008338838767009,-0.008707199999999998,-0.016447899999999994,-0.003149999999999986,-0.005609999999999893,-0.0007372000000000004,0.0009523999999999991,0.09982600000000003,-0.19681289999999996,0.10562300000000002,0.41676,-6.999999999998674e-05,0.02349000000000001,0.012332983357126182,0.012556151607341803,0.03641418748642389,0.16783440790124682,-0.003451628197998824,-0.006236134548518901,-0.06071243166813711,-0.40411750631237986,-0.003451628197998824,-0.06071243166813711,2,Foot-flat,0.6253366826711936
1774392236510,0.0356302,0.998551,-0.0202806,0.115414,-1.03774,0.388767,0,-1.9903919003242996,3.25363,999,log_felix4.csv,0,False,1.749,91.27827275279567,0.9993922720780865,1.1141653734006458,0.0028719999999999996,0.011579199999999998,-0.0031689999999999774,-1.8999999999991246e-05,0.003397400000000002,0.004134600000000002,-0.304135,-0.403961,-0.14429400000000014,-0.24991700000000017,0.18265999999999996,0.18272999999999995,-0.04247681754728205,-0.054809800904408235,-0.019522989362542598,-0.055937176848966486,-0.0031428673316201694,0.0003087608663786545,0.10582653463363689,0.166538966301774,-0.0031428673316201694,0.10582653463363689,2,Foot-flat,0.5999221439543014
1774392236523,0.0278706,0.998049,-0.0248795,0.198226,-0.939226,0.47303,0,-1.884675782322816,3.23415,999,log_felix4.csv,0,False,1.762,91.31871741315555,0.9987479993800287,1.070138499004685,-0.007759600000000002,-0.010631600000000001,-0.0005020000000000024,0.002666999999999975,-0.0045988999999999995,-0.007996300000000001,0.08281200000000001,0.386947,0.0985140000000001,0.24280800000000025,0.08426300000000003,-0.09839699999999993,0.04044466035988137,0.08292147790716342,0.10571611800148362,0.12523910736402621,-0.0006442726980577795,0.00249859463356239,-0.04402687439596087,-0.14985340902959776,-0.0006442726980577795,-0.04402687439596087,2,Foot-flat,0.5999221439543014
1774392236537,0.0229736,1.00825,-0.0244164,0.183251,-0.847602,0.45806,0,-1.728048853721862,3.26297,999,log_felix4.csv,0,False,1.776,91.33722883168242,1.0088072211210228,0.9807288325551563,-0.004896999999999999,0.0028626000000000033,0.010201000000000127,0.010703000000000129,0.00046309999999999754,0.005061999999999997,-0.014975000000000016,-0.09778700000000003,0.09162400000000004,-0.006890000000000063,-0.014969999999999983,-0.09923300000000002,0.018511418526870216,-0.021933241833011152,0.15662692860095406,0.050910810599470446,0.010059221740994162,0.010703494439051942,-0.08940966644952864,-0.045382792053567766,0.010059221740994162,-0.08940966644952864,2,Foot-flat,0.5999221439543014
1774392236550,0.0338813,0.999555,-0.0193125,-0.0298968,-0.847329,0.625454,0,-1.7855828343366686,3.23247,999,log_felix4.csv,0,False,1.789,91.27499856767066,1.0003155068131955,1.0535905082180836,0.010907700000000003,0.0158047,-0.00869500000000012,-0.018896000000000246,0.0051039000000000015,0.004640800000000004,-0.2131478,-0.19817279999999998,0.0002729999999999677,-0.09135100000000007,0.16739399999999993,0.18236399999999992,-0.06223026401175957,-0.08074168253862979,-0.057533980614806746,-0.2141609092157608,-0.008491714307827358,-0.01855093604882152,0.07286167566292734,0.16227134211245597,-0.008491714307827358,0.07286167566292734,2,Foot-flat,0.5999221439543014
1774392236563,0.0317489,1.0068,-0.0231741,0.26629,-0.877772,0.435682,0,-1.79102173966484,3.2686,999,log_felix4.csv,0,False,1.802,91.2867716552622,1.0075670059911748,1.0154865105987376,-0.0021324000000000065,-0.01304010000000001,0.007244999999999946,0.015940000000000065,-0.0038615999999999998,-0.008965500000000001,0.29618680000000003,0.5093346000000001,-0.030442999999999998,-0.030715999999999966,-0.18977199999999994,-0.3571659999999999,0.011773087591535614,0.07400335160329519,-0.005438905328171373,0.05209507528663537,0.0072514991779792926,0.01574321348580665,-0.03810399761934602,-0.11096567328227336,0.0072514991779792926,-0.03810399761934602,2,Foot-flat,0.5999221439543014
1774392236577,0.0421844,1.00076,-0.0292666,0.1454,-0.969192,0.275289,0,-1.9589701973829208,3.25013,999,log_felix4.csv,0,False,1.816,91.39168145476918,1.002076162314482,1.0179677432929788,0.0104355,0.012567900000000007,-0.006039999999999823,-0.01328499999999977,-0.006092500000000001,-0.002230900000000001,-0.12089000000000003,-0.4170768,-0.09142000000000006,-0.06097700000000006,-0.160393,0.029378999999999933,0.10490979950698431,0.0931367119154487,-0.16794845771808076,-0.16250955238990938,-0.005490843676692725,-0.012742342854672017,0.0024812326942411644,0.040585230313587184,-0.005490843676692725,0.0024812326942411644,2,Foot-flat,0.5948411883828952
1774392236590,0.0271743,1.0,-0.0229805,0.548413,-1.14451,0.198702,0,-1.850153645383393,3.236,999,log_felix4.csv,0,False,1.829,91.37135827771844,1.000633072589918,1.2845787027165754,-0.015010099999999998,-0.0254456,-0.0007600000000000939,0.005279999999999729,0.006286099999999999,0.0123786,0.40301300000000007,0.5239030000000001,-0.17531799999999986,-0.0838979999999998,-0.07658700000000002,0.08380599999999999,-0.020323177050741492,-0.1252329765577258,0.10881655199952767,0.2767650097176084,-0.001443089724564084,0.004047753952128641,0.2666109594235966,0.2641297267293554,-0.001443089724564084,0.2666109594235966,2,Foot-flat,0.5948411883828952
1774392236603,0.0261283,1.01069,-0.0268363,0.359344,-1.05371,0.434409,0,-1.7502504718278793,3.24889,999,log_felix4.csv,0,False,1.842,91.41178118602079,1.0113837803517416,1.1950498122325277,-0.0010459999999999983,0.0139641,0.010690000000000088,0.011450000000000182,-0.0038557999999999995,-0.010141899999999999,-0.18906900000000004,-0.5920820000000001,0.09079999999999999,0.26611799999999985,0.235707,0.312294,0.04042290830234663,0.06074608535308812,0.09990317355551381,-0.008913378444013853,0.01075070776182363,0.012193797486387714,-0.08952889048404766,-0.35613984990764425,0.01075070776182363,-0.08952889048404766,2,Foot-flat,0.5948411883828952
1774392236617,0.0317105,0.999567,-0.0285559,0.00868244,-1.10671,0.419891,0,-1.7680981900102772,3.23993,999,log_felix4.csv,0,False,1.856,91.4724623327001,1.0004774773697107,1.1837190801644424,0.0055822000000000024,0.006628200000000001,-0.011123000000000105,-0.021813000000000193,-0.0017195999999999982,0.0021362000000000013,-0.35066156,-0.16159255999999994,-0.05300000000000016,-0.14380000000000015,-0.014517999999999975,-0.250225,0.06068114667931468,0.020258238376968052,-0.017847718182397942,-0.11775089173791176,-0.01090630298203088,-0.02165701074385451,-0.011330732068085325,0.07819815841596234,-0.01090630298203088,-0.011330732068085325,2,Foot-flat,0.5948411883828952
1774392236630,0.0229926,0.999512,-0.0251634,0.12941,-0.962264,0.366572,0,-1.6463318309693276,3.26447,999,log_felix4.csv,0,False,1.869,91.4642748626375,1.0000930429206674,1.037821750099698,-0.008717900000000004,-0.014300100000000007,-5.500000000002725e-05,0.011068000000000078,0.0033924999999999997,0.005112099999999998,0.12072756,0.47138912,0.14444600000000007,0.19744600000000023,-0.053319000000000005,-0.03880100000000003,-0.008187470062608782,-0.06886861674192346,0.12176635904094968,0.13961407722334762,-0.0003844344490433471,0.010521868532987533,-0.14589733006474437,-0.13456659799665904,-0.0003844344490433471,-0.14589733006474437,2,Foot-flat,0.5948411883828952
1774392236643,0.00764472,1.00243,-0.0304911,-0.326879,-0.939001,0.785008,0,-1.3195525314955852,3.23628,999,log_felix4.csv,0,False,1.882,91.53936866017818,1.0029227556612166,1.2668110824846772,-0.015347879999999998,-0.006629979999999994,0.002917999999999976,0.0029730000000000034,-0.005327700000000001,-0.0087202,-0.45628899999999994,-0.5770165599999999,0.023263000000000034,-0.12118300000000004,0.41843600000000003,0.47175500000000004,0.07509379754068846,0.08328126760329724,0.3267792994737424,0.20501294043279272,0.0028297127405492173,0.0032141471895925644,0.2289893323849792,0.3748866624497236,0.0028297127405492173,0.2289893323849792,2,Foot-flat,0.5909372432540944
1774392236657,0.0342913,0.997583,-0.0227436,0.303458,-1.14442,0.420936,0,-1.4947943037078806,3.28204,999,log_felix4.csv,0,False,1.896,91.4763343621226,0.9984312727902958,1.2565711321926825,0.026646579999999996,0.04199446,-0.004846999999999935,-0.007764999999999911,0.007747500000000001,0.013075200000000002,0.6303369999999999,1.0866259999999999,-0.20541900000000002,-0.22868200000000005,-0.36407200000000006,-0.7825080000000001,-0.0630342980555838,-0.13812809559627226,-0.17524177221229542,-0.5020210716860378,-0.0044914828709208265,-0.007321195611470044,-0.01023995029199476,-0.23922928267697396,-0.0044914828709208265,-0.01023995029199476,2,Foot-flat,0.5909372432540944
1774392236670,0.0249488,0.991728,-0.0217335,-0.470966,-1.36575,0.397018,0,-1.4801896699534967,3.24921,999,log_felix4.csv,0,False,1.909,91.41665389313039,0.9922798061170499,1.4982340698235375,-0.009342499999999997,-0.03598907999999999,-0.005854999999999944,-0.0010080000000000089,0.0010100999999999999,-0.006737400000000001,-0.774424,-1.404761,-0.22133000000000003,-0.01591100000000001,-0.023917999999999995,0.34015400000000007,-0.059680468992212354,0.0033538290633714496,0.014604633754383922,0.18984640596667934,-0.006151466673245842,-0.0016599838023250157,0.241662937630855,0.25190288792284976,-0.006151466673245842,0.241662937630855,2,Foot-flat,0.5909372432540944
1774392236683,0.0358345,1.01089,-0.0287736,0.363915,-1.1457,0.298006,0,-1.6285558188588989,3.23734,999,log_felix4.csv,0,False,1.922,91.47440027638395,1.011934100397457,1.2384951325140523,0.010885699999999998,0.020228199999999995,0.019162000000000012,0.025016999999999956,-0.0070401000000000005,-0.0080502,0.834881,1.609305,0.22005000000000008,0.4413800000000001,-0.09901199999999999,-0.075094,0.05774638325355852,0.11742685224577087,-0.14836614890540223,-0.16297078265978615,0.019654294280406992,0.025805760953652834,-0.25973893730948516,-0.5014018749403402,0.019654294280406992,-0.25973893730948516,2,Foot-flat,0.5909372432540944
1774392236697,0.0307868,0.995681,-0.0278367,-0.653446,-1.22876,0.982685,0,-1.666862318317508,3.24769,999,log_felix4.csv,0,False,1.936,91.50871723777807,0.9965457152996695,1.7036762080104895,-0.005047699999999999,-0.015933399999999997,-0.015209000000000028,-0.03437100000000004,0.0009369000000000009,0.007977000000000001,-1.017361,-1.852242,-0.08306000000000013,-0.3031100000000002,0.684679,0.783691,0.034316961394125656,-0.023429421859432864,-0.03830649945860909,0.11005964944679314,-0.015388385097787394,-0.035042679378194386,0.46518107549643717,0.7249200128059223,-0.015388385097787394,0.46518107549643717,2,Foot-flat,0.5909372432540944
1774392236710,0.0501964,1.00411,-0.0217588,-0.123722,-1.03113,0.665072,0,-1.9895245675510034,3.22943,999,log_felix4.csv,0,False,1.949,91.43649718053508,1.0055993317670813,1.2332303010257248,0.019409600000000003,0.0244573,0.00842900000000002,0.023638000000000048,0.006077900000000001,0.005141,0.529724,1.547085,0.19762999999999997,0.2806900000000001,-0.31761300000000003,-1.0022920000000002,-0.07222005724298697,-0.10653701863711262,-0.3226622492334954,-0.2843557497748863,0.009053616467411763,0.024442001565199156,-0.47044590698476463,-0.9356269824812018,0.009053616467411763,-0.47044590698476463,2,Foot-flat,0.6079924721265503
1774392236723,0.0228412,0.992489,-0.0224575,-0.373299,-1.15231,0.4358,0,-1.8081184204055643,3.2693,999,log_felix4.csv,0,False,1.962,91.39860487749577,0.9930057778506074,1.2872809015521824,-0.027355200000000003,-0.04676480000000001,-0.011621000000000103,-0.020050000000000123,-0.0006987,-0.006776600000000001,-0.249577,-0.779301,-0.12117999999999984,-0.3188099999999998,-0.22927199999999998,0.08834100000000006,-0.0378923030393139,0.034327754203673067,0.18140614714543912,0.5040683963789345,-0.012593553916473876,-0.02164717038388564,0.054050600526457604,0.5244965075112222,-0.012593553916473876,0.054050600526457604,2,Foot-flat,0.6079924721265503
1774392236737,0.00594345,0.998262,-0.0132295,-0.52626,-0.77213,0.846101,0,-1.4117925248160739,3.24684,999,log_felix4.csv,0,False,1.976,91.22588452272545,0.9983673496825467,1.2605638526869634,-0.01689775,0.010457450000000004,0.005773000000000028,0.01739400000000013,0.009227999999999998,0.009926699999999998,-0.15296099999999996,0.09661600000000004,0.38017999999999996,0.5013599999999998,0.41030099999999997,0.639573,-0.17272035477031977,-0.13482805173100587,0.3963258955894904,0.21491974844405126,0.005361571831939305,0.01795512574841318,-0.026717048865219084,-0.08076764939167669,0.005361571831939305,-0.026717048865219084,2,Foot-flat,0.6079924721265503
1774392236750,0.0299101,1.00558,-0.0241158,0.485523,-1.06021,0.763606,0,-1.4905238027214784,3.28293,999,log_felix4.csv,0,False,1.989,91.2658456009077,1.006313729555376,1.393869416719156,0.02396665,0.040864399999999995,0.007317999999999936,0.0015449999999999076,-0.0108863,-0.020114299999999998,1.0117829999999999,1.1647439999999998,-0.2880800000000001,-0.6682600000000001,-0.08249499999999999,-0.49279599999999996,0.03996107818224459,0.21268143295256436,-0.07873127790540457,-0.47505717349489496,0.007946379872829201,0.0025848080408898966,0.13330556403219274,0.16002261289741182,0.007946379872829201,0.13330556403219274,2,Foot-flat,0.6079924721265503
1774392236763,0.0331868,1.00391,-0.0207686,-0.660694,-0.969736,0.535035,0,-1.5992454084890082,3.26517,999,log_felix4.csv,0,False,2.002,91.24404504155973,1.0046730744576566,1.2896382913658389,0.003276700000000004,-0.020689949999999995,-0.0016699999999998383,-0.008987999999999774,0.003347199999999998,0.014233499999999998,-1.146217,-2.158,0.09047400000000005,0.37855400000000017,-0.22857099999999997,-0.14607599999999998,-0.021800559347965986,-0.06176163753021058,-0.10872160576752976,-0.029990327862125188,-0.001640655097719268,-0.00958703497054847,-0.10423112535331724,-0.23753668938550998,-0.001640655097719268,-0.10423112535331724,2,Foot-flat,0.6079924721265503
1774392236777,0.0244575,0.989087,-0.0275541,-0.0248027,-0.687866,0.823564,0,-1.5497229659695746,3.26037,999,log_felix4.csv,0,False,2.016,91.33905754659526,0.9897729493687226,1.0733277551518408,-0.008729300000000002,-0.012006000000000006,-0.01482300000000003,-0.013153000000000192,-0.0067855,-0.010132699999999998,0.6358913,1.7821083,0.28187000000000006,0.191396,0.2885289999999999,0.5170999999999999,0.09501250503552683,0.11681306438349282,0.04952244251943361,0.15824404828696337,-0.014900125088934013,-0.013259469991214745,-0.2163105362139981,-0.11207941086068085,-0.014900125088934013,-0.2163105362139981,2,Foot-flat,0.4587726336173824
1774392236790,0.0414195,1.02035,-0.0295312,0.00753686,-1.07518,0.398219,0,-1.758786248692207,3.2468,999,log_felix4.csv,0,False,2.029,91.42516904256266,1.0216172420499225,1.1465806594477597,0.016961999999999998,0.0256913,0.03126300000000004,0.04608600000000007,-0.001977099999999999,0.004808400000000001,0.03233956,-0.60355174,-0.38731400000000005,-0.6691840000000001,-0.425345,-0.7138739999999999,0.0861114959674012,-0.008901009068125632,-0.20906328272263242,-0.258585725242066,0.031844292681199926,0.04674441777013394,0.07325290429591891,0.289563440509917,0.031844292681199926,0.07325290429591891,2,Foot-flat,0.4587726336173824
1774392236803,0.0347014,0.999615,-0.0251682,-0.509903,-0.672959,0.244734,0,-1.8205967689862594,3.23348,999,log_felix4.csv,0,False,2.042,91.42979230037456,1.000533744397559,0.8790731572775954,-0.006718099999999998,-0.023680099999999996,-0.02073500000000006,-0.0519980000000001,0.004362999999999999,0.006340099999999998,-0.51743986,-0.54977942,0.40222100000000005,0.7895350000000001,-0.15348499999999998,0.27186,0.0046232578119003165,-0.08148823815550088,-0.06181052029405243,0.14725276242858,-0.021083497652363503,-0.05292779033356343,-0.2675075021701643,-0.3407604064660832,-0.021083497652363503,-0.2675075021701643,2,Foot-flat,0.4587726336173824
1774392236817,0.0261655,1.0017,-0.0234461,-0.0471855,-0.938138,0.579152,0,-1.7328721603009392,3.24804,999,log_felix4.csv,0,False,2.056,91.40576071908755,1.0023159397093613,1.103515481340543,-0.008535899999999999,-0.0018178000000000014,0.0020850000000000035,0.022820000000000062,0.0017221000000000007,-0.002640899999999998,0.4627175,0.98015736,-0.26517900000000005,-0.6674000000000001,0.334418,0.487903,-0.02403158128700511,-0.028654839098905427,0.08772460868532028,0.1495351289793727,0.0017821953118022371,0.02286569296416574,0.22444232406294762,0.4919498262331119,0.0017821953118022371,0.22444232406294762,2,Foot-flat,0.4587726336173824
1774392236830,0.023451,1.00341,-0.0261098,-0.220855,-0.565999,0.389879,0,-1.6262977819745248,3.23389,999,log_felix4.csv,0,False,2.069,91.42867004902332,1.004023555080776,0.7218984926338329,-0.0027145000000000016,0.005821399999999997,0.0017099999999998783,-0.00037500000000012523,-0.002663699999999998,-0.004385799999999999,-0.1736695,-0.636387,0.372139,0.637318,-0.18927300000000002,-0.523691,0.02290932993577144,0.04694091122277655,0.10657437832641437,0.018849769641094083,0.001707615371414617,-7.457994038762017e-05,-0.3816169887067101,-0.6060593127696577,0.001707615371414617,-0.3816169887067101,2,Foot-flat,0.4587726336173824
1774392236843,0.0241664,1.00901,-0.0273376,0.00695221,-0.450726,0.511088,0,-1.5574634396758447,3.25571,999,log_felix4.csv,0,False,2.082,91.46197835896307,1.0096695198740626,0.681478689354175,0.0007154000000000015,0.003429900000000003,0.005600000000000049,0.003890000000000171,-0.0012278000000000011,0.001435899999999997,0.22780720999999998,0.40147670999999996,0.11527300000000001,-0.256866,0.12120900000000001,0.31048200000000004,0.03330830993974132,0.010398980003969882,0.06883434229868013,-0.037740036027734236,0.005645964793286717,0.0039383494218721005,-0.040419803279657884,0.34119718542705224,0.005645964793286717,-0.040419803279657884,4,Toe-off,0.4347633502410696
1774392236857,0.023684,1.00515,-0.0273437,-0.327245,-0.79287,0.633222,0,-1.5012245738515113,3.26145,999,log_felix4.csv,0,False,2.096,91.48799139705697,1.0058007418398984,1.0661623836025167,-0.0004824000000000009,-0.0011978000000000023,-0.0038599999999999746,-0.009460000000000024,-6.099999999998468e-06,0.0012217000000000026,-0.33419721,-0.5620044200000001,-0.34214399999999995,-0.45741699999999996,0.12213399999999996,0.0009249999999999536,0.026013038093907426,-0.007295271845833895,0.05623886582433335,-0.012595476474346778,-0.0038687780341641886,-0.009514742827450906,0.3846836942483417,0.4251034975279996,-0.0038687780341641886,0.3846836942483417,4,Toe-off,0.4347633502410696
1774392236870,0.0253822,1.00148,-0.0198129,-0.206468,-0.557955,0.641198,0,-1.4878044196036937,3.2655,999,log_felix4.csv,0,False,2.109,91.39218824942587,1.0019975037310471,0.8746871968040918,0.0016982000000000004,0.0021806000000000013,-0.003670000000000062,0.00018999999999991246,0.007530799999999997,0.007536899999999996,0.120777,0.45497421000000005,0.23491499999999998,0.577059,0.007976000000000094,-0.11415799999999987,-0.09580314763110209,-0.12181618572500952,0.013420154247817617,-0.04281871157651573,-0.0038032381088513034,6.553992531288522e-05,-0.1914751867984249,-0.5761588810467666,-0.0038032381088513034,-0.1914751867984249,4,Toe-off,0.4347633502410696
1774392236883,0.0319497,1.00195,-0.0292499,-0.152832,-0.686638,0.44334,0,-1.5790685249886294,3.25211,999,log_felix4.csv,0,False,2.122,91.46782416008963,1.0028859070104135,0.8314924647090917,0.006567499999999997,0.0048692999999999965,0.00046999999999997044,0.0041400000000000325,-0.009436999999999997,-0.016967799999999995,0.05363600000000002,-0.06714099999999998,-0.128683,-0.363598,-0.19785800000000003,-0.20583400000000013,0.07563591066376318,0.17143905829486528,-0.09126410538493568,-0.1046842596327533,0.0008884032793663454,0.004691641388217649,-0.04319473209500013,0.14828045470342477,0.0008884032793663454,-0.04319473209500013,4,Toe-off,0.4347633502410696
1774392236897,0.0229938,1.00511,-0.0193364,-0.137451,-0.29887,0.412307,0,-1.5064533141117162,3.23019,999,log_felix4.csv,0,False,2.136,91.36902842260682,1.0055589109064669,0.5274591136287248,-0.0089559,-0.015523399999999996,0.0031600000000000517,0.002690000000000081,0.009913499999999999,0.019350499999999996,0.015381000000000006,-0.03825500000000001,0.38776799999999995,0.516451,-0.031033000000000033,0.166825,-0.098795737482817,-0.1744316481465802,0.07261521087691314,0.16387931626184882,0.0026730038960534053,0.0017846006166870598,-0.3040333510803669,-0.26083861898536675,0.0026730038960534053,-0.3040333510803669,4,Toe-off,0.4347633502410696
1774392236910,0.0263505,1.00245,-0.0231743,0.113752,-0.297713,0.587263,0,-1.5061508685397729,3.25045,999,log_felix4.csv,0,False,2.149,91.35694707603105,1.0030640056999056,0.6681694239053445,0.0033567000000000007,0.0123126,-0.0026599999999998847,-0.005819999999999936,-0.0038378999999999983,-0.013751399999999997,0.251203,0.235822,0.0011570000000000191,-0.3866109999999999,0.174956,0.20598900000000003,-0.012081346575769203,0.0867143909070478,0.0003024455719433661,-0.07231276530496977,-0.00249490520656126,-0.005167909102614665,0.14071031027661973,0.4447436613569866,-0.00249490520656126,0.14071031027661973,4,Toe-off,0.6896146408014168
1774392236923,0.0287964,1.00511,-0.0248938,-0.151877,-0.503202,0.610617,0,-1.5424656426744334,3.23487,999,log_felix4.csv,0,False,2.162,91.37364844674045,1.0058305255018858,0.8056872821523249,0.002445900000000001,-0.0009107999999999998,0.0026599999999998847,0.005319999999999769,-0.0017195000000000023,0.002118399999999996,-0.265629,-0.516832,-0.20548900000000003,-0.20664600000000005,0.023353999999999986,-0.15160200000000001,0.01670137070939859,0.02878271728516779,-0.036314774134660555,-0.03661721970660392,0.0027665198019801718,0.005261425008541432,0.13751785824698037,-0.003192452029639359,0.0027665198019801718,0.13751785824698037,4,Toe-off,0.6896146408014168
1774392236937,0.0212776,1.00464,-0.0207725,-0.129837,-0.199382,1.01406,0,-1.4534707485788048,3.26387,999,log_felix4.csv,0,False,2.176,91.32255175947343,1.005079978219649,1.0415990169412603,-0.007518799999999999,-0.0099647,-0.00046999999999997044,-0.003129999999999855,0.004121300000000001,0.005840800000000004,0.022040000000000004,0.287669,0.30382000000000003,0.509309,0.403443,0.380089,-0.05109668726701955,-0.06779805797641814,0.08899489409562866,0.12530966823028922,-0.0007505472822368908,-0.0035170670842170626,0.23591173478893546,0.09839387654195508,-0.0007505472822368908,0.23591173478893546,4,Toe-off,0.6896146408014168
1774392236950,0.0290142,1.01071,-0.0253678,-0.129771,-0.198476,1.66218,0,-1.5048911812777233,3.23576,999,log_felix4.csv,0,False,2.189,91.35367715010776,1.0114445378657597,1.6790102999734695,0.0077366,0.015255399999999999,0.00607000000000002,0.00653999999999999,-0.0045953,-0.008716600000000001,6.60000000000105e-05,-0.021973999999999994,0.0009059999999999901,-0.302914,0.64812,0.24467700000000003,0.03112539063432962,0.08222207790134917,-0.051420432698918495,-0.14041532679454716,0.006364559646110823,0.007115106928347714,0.6374112830322092,0.4014995482432737,0.006364559646110823,0.6374112830322092,4,Toe-off,0.6896146408014168
1774392236963,0.0290525,0.999324,-0.0178596,-0.289598,-0.883447,1.33685,0,-1.5481393296095916,3.28688,999,log_felix4.csv,0,False,2.202,91.26457578487617,0.9999057305788431,1.6283468690401932,3.829999999999806e-05,-0.007698300000000002,-0.011386000000000007,-0.017456000000000027,0.0075082,0.0121035,-0.15982700000000002,-0.15989300000000004,-0.684971,-0.685877,-0.3253299999999999,-0.9734499999999999,-0.08910136523158485,-0.12022675586591447,-0.0432481483318683,0.008172284367050198,-0.011538807286916586,-0.01790336693302741,-0.0506634309332763,-0.6880747139654855,-0.011538807286916586,-0.0506634309332763,4,Toe-off,0.6896146408014168
1774392236977,0.0314821,1.00631,-0.01928,-0.0617502,-0.6115,1.84581,0,-1.6139030675003923,3.2545,999,log_felix4.csv,0,False,2.216,91.21946667948772,1.0069869200344213,1.9454459368741244,0.0024296000000000005,0.0023913000000000025,0.006986000000000048,0.018372000000000055,-0.0014203999999999987,-0.008928599999999998,0.22784780000000002,0.38767480000000004,0.27194699999999994,0.9569179999999999,0.5089599999999999,0.8342899999999998,-0.045109105388448256,0.043992259843136594,-0.0657637378908007,-0.022515589558932403,0.0070811894555781185,0.018619996742494704,0.31709906783393116,0.36776249876720746,0.0070811894555781185,0.31709906783393116,4,Toe-off,0.8470011807199196
1774392236990,0.0203192,0.995901,-0.0314337,-0.532942,-0.945566,1.87777,0,-1.493507753516189,3.22961,999,log_felix4.csv,0,False,2.229,91.37841693547618,0.9966041085533062,2.1689035037594455,-0.0111629,-0.0135925,-0.010409000000000002,-0.01739500000000005,-0.012153700000000003,-0.010733300000000005,-0.47119180000000005,-0.6990396000000001,-0.334066,-0.6060129999999999,0.03195999999999999,-0.47699999999999987,0.1589502559884579,0.20405936137690617,0.12039531398420333,0.18615905187500403,-0.010382811481115084,-0.017464000936693203,0.22345756688532115,-0.09364150094861001,-0.010382811481115084,0.22345756688532115,4,Toe-off,0.8470011807199196
1774392237003,0.0183205,1.01188,-0.0300362,-0.0853084,-1.26622,2.51717,0,-1.3701235759085708,3.25221,999,log_felix4.csv,0,False,2.242,91.46536035879961,1.0124914559791058,2.818995462999286,-0.001998699999999999,0.0091642,0.015978999999999854,0.026387999999999856,0.001397500000000003,0.013551200000000006,0.4476336,0.9188254,-0.3206539999999999,0.01341200000000009,0.6394000000000002,0.6074400000000002,0.08694342332343297,-0.07200683266502494,0.1233841776076181,0.0029888636234147725,0.01588734742579967,0.026270158906914753,0.6500919592398406,0.4266343923545195,0.01588734742579967,0.6500919592398406,4,Toe-off,0.8470011807199196
1774392237017,0.027542,1.01002,-0.0161822,-0.281855,-1.05407,2.89962,0,-1.4219055680139676,3.23778,999,log_felix4.csv,0,False,2.256,91.31745922731302,1.0105250248068278,3.0981126432596025,0.0092215,0.0112202,-0.0018599999999999728,-0.017838999999999827,0.013853999999999998,0.012456499999999995,-0.19654660000000002,-0.6441802000000001,0.21214999999999984,0.5328039999999997,0.38244999999999996,-0.25695000000000023,-0.14790113148659145,-0.23484455481002442,-0.0517819921053968,-0.1751661697130149,-0.001966431172278016,-0.017853778598077685,0.2791171802603163,-0.37097477897952436,-0.001966431172278016,0.2791171802603163,4,Toe-off,0.8470011807199196
1774392237030,0.0173845,1.02191,-0.0285032,0.722188,-1.08388,3.31174,0,-1.3009632103816735,3.26515,999,log_felix4.csv,0,False,2.269,91.39316382263947,1.0224552319541869,3.558647662995593,-0.0101575,-0.019379,0.011890000000000178,0.013750000000000151,-0.012320999999999999,-0.026174999999999997,1.004043,1.2005896,-0.029809999999999892,-0.24195999999999973,0.4121199999999998,0.029669999999999863,0.07570459532644236,0.2236057268130338,0.1209423576322941,0.1727243497376909,0.01193020714735904,0.013896638319637056,0.46053501973599076,0.18141783947567447,0.01193020714735904,0.46053501973599076,4,Toe-off,0.8470011807199196
1774392237043,0.0457573,1.04335,-0.00111284,1.71459,-0.924142,2.80305,0,-1.6279056520774127,3.24287,999,log_felix4.csv,0,False,2.282,91.03330169795838,1.04435348010918,3.4133482984840557,0.0283728,0.0385303,0.021439999999999904,0.009549999999999725,0.02739036,0.03971136,0.992402,-0.011641000000000012,0.15973799999999994,0.18954799999999983,-0.5086900000000001,-0.9208099999999999,-0.35986212468108647,-0.43556672000752883,-0.32694244169573916,-0.44788479932803327,0.021898248154993194,0.009968041007634154,-0.14529936451153747,-0.6058343842475282,0.021898248154993194,-0.14529936451153747,4,Toe-off,0.7442532835772263
1774392237057,0.0789365,1.08135,0.0167568,5.08914,-1.12155,0.883604,0,-2.3159051215937625,3.30586,999,log_felix4.csv,0,False,2.296,90.51430550232033,1.08435676042458,5.285638690916738,0.033179200000000006,0.004806400000000006,0.038000000000000034,0.01656000000000013,0.01786964,-0.00952072,3.37455,2.382148,-0.19740800000000003,-0.35714599999999996,-1.9194459999999998,-1.4107559999999997,-0.5189961956380529,-0.1591340709569664,-0.6879994695163498,-0.36105702782061067,0.040003280315400014,0.01810503216040682,1.872290392432682,2.0175897569442194,0.040003280315400014,1.872290392432682,4,Toe-off,0.7442532835772263
1774392237070,0.0985353,1.16803,0.0688327,11.3401,-0.574156,-6.82427,0,-2.9907152493123705,3.27173,999,log_felix4.csv,0,False,2.309,89.46424093086888,1.1741981207766345,13.247572764670364,0.0195988,-0.013580400000000006,0.08667999999999987,0.048679999999999835,0.052075899999999994,0.034206259999999995,6.250959999999999,2.876409999999999,0.547394,0.7448020000000001,-7.707874,-5.788428000000001,-1.0500645714514434,-0.5310683758133905,-0.674810127718608,0.013189341797741783,0.08984136035205448,0.049838080036654464,7.961934073753627,6.089643681320945,0.08984136035205448,7.961934073753627,4,Toe-off,0.7442532835772263
1774392237083,0.197506,1.52799,0.16019,27.2197,-3.30481,-15.4247,0,-4.16176645636902,3.24991,999,log_felix4.csv,0,False,2.322,87.99213257589689,1.5490070678457217,31.460375193504923,0.09897069999999998,0.07937189999999998,0.35996000000000006,0.2732800000000002,0.0913573,0.03928140000000001,15.8796,9.62864,-2.730654,-3.278048,-8.60043,-0.892555999999999,-1.4721083549719935,-0.42204378352055016,-1.1710512070566494,-0.4962410793380414,0.3748089470690872,0.2849675867170327,18.212802428834557,10.25086835508093,0.3748089470690872,18.212802428834557,4,Toe-off,0.7442532835772263
1774392237097,0.432182,1.75619,0.297656,49.4678,-11.0608,-23.6472,0,-6.72187008000485,3.26502,999,log_felix4.csv,0,False,2.336,85.93576967382982,1.8329167170278085,55.933841288794035,0.23467600000000002,0.13570530000000003,0.22819999999999996,-0.1317600000000001,0.13746599999999998,0.046108699999999975,22.248099999999997,6.368499999999997,-7.755990000000001,-5.025336000000001,-8.222500000000002,0.37792999999999743,-2.0563629020670646,-0.5842545470950711,-2.56010362363583,-1.3890524165791804,0.2839096491820867,-0.09089929788700046,24.473466095289112,6.260663666454555,0.2839096491820867,24.473466095289112,4,Toe-off,0.7442532835772263
1774392237110,0.465411,1.88559,0.200435,84.7418,-20.4148,-23.5651,0,-8.631425583130039,3.23412,999,log_felix4.csv,0,False,2.349,85.39453108606841,1.952493594418686,90.29535239584594,0.03322900000000001,-0.20144700000000001,0.12940000000000018,-0.09879999999999978,-0.09722099999999997,-0.23468699999999995,35.274,13.025900000000004,-9.354,-1.5980099999999986,0.0821000000000005,8.304600000000002,-0.5412385877614128,1.5151243143056519,-1.9095555031251887,0.6505481205106411,0.11957687739087763,-0.1643327717912091,34.3615111070519,9.888045011762792,0.11957687739087763,34.3615111070519,4,Toe-off,0.5298696351123526
1774392237123,0.400713,1.16763,0.512121,84.71,-29.0201,-22.6516,0,-11.01304074591557,3.25128,999,log_felix4.csv,0,False,2.362,80.24083534044121,1.3364874275166228,92.36365782368084,-0.06469800000000003,-0.09792700000000004,-0.7179600000000002,-0.8473600000000003,0.311686,0.408907,-0.03180000000000405,-35.305800000000005,-8.6053,0.7486999999999995,0.9135000000000026,0.8314000000000021,-5.1536957456272035,-4.612457157865791,-2.381615162785531,-0.47205965966034213,-0.6160061669020633,-0.735583044292941,2.0683054278349005,-32.293205679217,-0.6160061669020633,2.0683054278349005,4,Toe-off,0.5298696351123526
1774392237137,0.202403,0.981152,0.802267,80.1358,-34.1298,-20.1525,0,-10.489065304119489,3.25328,999,log_felix4.csv,0,False,2.376,72.26772388228525,1.2834557104949122,89.40197394873337,-0.19831,-0.13361199999999995,-0.18647799999999992,0.5314820000000002,0.2901459999999999,-0.021540000000000115,-4.5741999999999905,-4.5423999999999864,-5.109700000000004,3.495599999999996,2.4990999999999985,1.585599999999996,-7.973111458155955,-2.819415712528752,0.5239754417960807,2.9055906045816116,-0.0530317170217105,0.5629744498803528,-2.961683874947468,-5.0299893027823686,-0.0530317170217105,-2.961683874947468,4,Toe-off,0.5298696351123526
1774392237150,-0.132854,0.679722,1.10057,64.6189,-23.6268,-15.4035,0,-6.0711853611622715,3.27691,999,log_felix4.csv,0,False,2.389,61.30806171275816,1.3003563002115999,70.50599781366121,-0.335257,-0.13694700000000004,-0.30143,-0.11495200000000005,0.2983030000000001,0.008157000000000192,-15.516900000000007,-10.942700000000016,10.503000000000004,15.612700000000007,4.7490000000000006,2.249900000000002,-10.959662169527093,-2.9865507113711374,4.417879942957217,3.8939045011611366,0.01690058971668762,0.06993230673839812,-18.89597613507216,-15.934292260124693,0.01690058971668762,-18.89597613507216,4,Toe-off,0.5298696351123526
1774392237163,-0.36044,0.238037,1.21574,34.5708,-3.4725,-2.95327,0,-0.04839975771969218,3.28182,999,log_felix4.csv,0,False,2.402,47.738135760271724,1.290194696380744,34.87004835934272,-0.22758599999999998,0.10767100000000004,-0.44168500000000005,-0.14025500000000007,0.11517,-0.1831330000000001,-30.048099999999998,-14.531199999999991,20.1543,9.651299999999996,12.45023,7.701229999999999,-13.569925952486436,-2.6102637829593434,6.022785603442579,1.604905660485362,-0.010161603830855848,-0.027062193547543467,-35.63594945431849,-16.73997331924633,-0.010161603830855848,-35.63594945431849,4,Toe-off,0.5298696351123526
1774392237177,-0.337759,-0.198998,1.43446,-19.8525,14.5644,13.059,0,3.5113551815141726,3.29288,999,log_felix4.csv,0,False,2.416,32.70767471666834,1.4870631586065874,27.870790885979535,0.022681000000000007,0.250267,-0.437035,0.004650000000000043,0.21872000000000003,0.10355000000000003,-54.4233,-24.3752,18.0369,-2.1174,16.01227,3.5620400000000014,-15.030461043603381,-1.4605350911169452,3.5597549392338648,-2.4630306642087145,0.19686846222584342,0.20703006605669927,-6.999257473363183,28.63669198095531,0.19686846222584342,-6.999257473363183,1,Heel-strike,0.6312724743691289
1774392237190,-0.166623,0.201377,1.52786,-61.372,24.2154,12.6577,0,4.22985455364765,3.24897,999,log_felix4.csv,0,False,2.429,25.89995933384681,1.5500555150890565,67.1797986782485,0.17113599999999998,0.14845499999999998,0.40037500000000004,0.83741,0.09339999999999993,-0.1253200000000001,-41.5195,12.903799999999997,9.651,-8.3859,-0.4012999999999991,-16.41357,-6.807715382821534,8.222745660781847,0.7184993721334774,-2.8412555671003874,0.06299235648246904,-0.13387610574337439,39.30900779226897,46.30826526563216,0.06299235648246904,39.30900779226897,1,Heel-strike,0.6312724743691289
1774392237204,-0.00544059,0.255104,1.45398,-83.8336,21.1999,13.3871,0,3.144180944909567,3.23662,999,log_felix4.csv,0,False,2.443,21.5913524283816,1.4761996786463367,87.50270107476683,0.16118241,-0.009953589999999984,0.053727,-0.34664800000000007,-0.07387999999999995,-0.16727999999999987,-22.461600000000004,19.057899999999997,-3.0154999999999994,-12.6665,0.7294,1.1306999999999992,-4.308606905465208,2.4991084773563266,-1.085673608738083,-1.8041729808715603,-0.07385583644271976,-0.1368481929251888,20.32290239651833,-18.98610539575064,-0.07385583644271976,20.32290239651833,1,Heel-strike,0.6312724743691289
1774392237217,0.0988464,0.433682,1.27166,-109.922,9.95729,18.6712,0,1.1580391768914313,3.25258,999,log_felix4.csv,0,False,2.456,20.84568834558758,1.3472081663636692,111.94019571889312,0.10428699,-0.05689542,0.17857800000000001,0.12485100000000002,-0.18232000000000004,-0.10844000000000009,-26.088399999999993,-3.6267999999999887,-11.242609999999999,-8.22711,5.284099999999999,4.554699999999999,-0.745664082794022,3.562942822671186,-1.9861417680181357,-0.9004681592800527,-0.12899151228266748,-0.05513567583994772,24.43749464412629,4.114592247607959,-0.12899151228266748,24.43749464412629,1,Heel-strike,0.6312724743691289
