timestamp,ax,ay,az,gx,gy,gz,roll_k,pitch_k,delay_ms,classe_prevista
1777151627440,0.054796,0.713795,0.1369,0.0216794,-0.2143,0.183969,0,0,3.36915,-1
1777151627454,0.0702628,0.889642,0.175378,0.00412214,-0.0843225,0.0712786,0,0,3.28485,-1
1777151627467,0.0769252,0.940024,0.182446,-0.00145402,-0.0347692,0.0368884,0,0,3.27414,-1
1777151627481,0.0822093,0.957519,0.183556,-0.00536849,-0.0174282,0.0233338,0,0,3.31777,-1
1777151627494,0.0814263,0.9653,0.183913,-0.00525869,-0.0127428,0.0187256,0,0,3.30507,-1
1777151627508,0.081671,0.96615,0.176081,-0.00833053,-0.0156711,0.0166353,0,0,3.57864,-1
1777151627522,0.0747964,0.970727,0.185645,-0.00799415,-0.015044,0.013195,0,0,3.26648,-1
1777151627535,0.0750669,0.969387,0.184751,-0.00560112,-0.0132476,0.00980502,0,0,3.28211,-1
1777151627549,0.0814451,0.96763,0.186946,-0.00775364,-0.0146845,0.0107276,0,0,3.2639,-1
1777151627562,0.0753859,0.96392,0.188977,-0.00683024,-0.0110816,0.00796617,0,0,3.74155,0
1777151627576,0.0837,0.965374,0.189134,-0.00680777,-0.00899781,0.00747755,0,0,3.57055,0
1777151627590,0.0812439,0.963193,0.184715,-0.00731816,-0.0113628,0.00738528,0,0,3.55287,0
1777151627604,0.0786323,0.969114,0.181306,-0.00774899,-0.0152384,0.00536855,0,0,3.55366,0
1777151627617,0.0749772,0.963073,0.186499,-0.00706435,-0.0157279,0.00558896,0,0,3.42179,0
1777151627631,0.0728073,0.965267,0.182046,-0.00685002,-0.0153016,0.00822078,0,0,3.92813,2
1777151627645,0.0782344,0.961007,0.186241,-0.010165,-0.0162239,0.00842401,0,0,3.51863,2
1777151627659,0.0801469,0.964768,0.176996,-0.00992148,-0.0145475,0.00916214,0,0,3.46696,2
1777151627672,0.0844047,0.957866,0.180477,-0.0109136,-0.0135769,0.00934972,0,0,3.58838,2
1777151627686,0.0808086,0.964915,0.179114,-0.0140289,-0.0147631,0.0106952,0,0,3.54929,2
1777151627700,0.0788232,0.963542,0.181821,-0.0144168,-0.0188017,0.00894455,0,0,3.70157,2
1777151627714,0.0839786,0.968398,0.192791,-0.0119229,-0.0317143,0.00497339,0,0,3.5257,2
1777151627727,0.0863003,0.968637,0.188541,-0.00776227,-0.0433457,0.00109764,0,0,3.54229,2
1777151627741,0.0757899,0.967886,0.195616,-0.00310646,-0.0464204,0.00112693,0,0,3.54527,2
1777151627755,0.0811811,0.965988,0.190112,0.000275961,-0.0452359,0.000336094,0,0,4.05638,2
1777151627769,0.081592,0.960742,0.192645,-0.00135712,-0.0404902,0.00347803,0,0,3.4209,2
1777151627783,0.0828832,0.960709,0.173428,-0.0058495,-0.0338182,0.00783907,0,0,3.54677,2
1777151627797,0.0912455,0.955897,0.167408,-0.0140289,-0.0308923,0.00941049,0,0,3.55707,2
1777151627811,0.101056,0.959812,0.180371,-0.0200781,-0.0468532,0.00826513,0,0,3.49283,2
1777151627824,0.0860029,0.964052,0.183053,-0.0304562,-0.0763029,0.000609376,0,0,3.51431,2
1777151627838,0.0682441,0.964754,0.187393,-0.0352695,-0.0892501,0.000138405,0,0,3.56527,2
1777151627852,0.0782556,0.963325,0.185313,-0.0400331,-0.0929217,0.00547836,0,0,3.55407,2
1777151627865,0.0935637,0.964852,0.186962,-0.0457212,-0.0976737,-0.00243656,0,0,3.49483,2
1777151627880,0.105444,0.962032,0.188651,-0.0439781,-0.0931198,-0.0169713,0,0,3.86022,2
1777151627893,0.116553,0.951356,0.181248,-0.0445861,-0.089965,-0.0305905,0,0,3.50874,2
1777151627907,0.118639,0.948086,0.181845,-0.0561411,-0.109188,-0.0456528,0,0,3.66296,2
1777151627922,0.0946425,0.967396,0.190978,-0.0533364,-0.121249,-0.0525856,0,0,3.53659,2
1777151627935,0.0597674,0.97444,0.194414,-0.0394327,-0.0996713,-0.0508461,0,0,3.49246,2
1777151627949,0.0631104,0.96578,0.19552,-0.0326594,-0.0783612,-0.0542861,0,0,3.50514,2
1777151627963,0.0731264,0.960013,0.19571,-0.0285625,-0.0678154,-0.0534299,0,0,3.51892,2
1777151627977,0.0702249,0.960805,0.196931,-0.030253,-0.060815,-0.0490927,0,0,3.5187,2
1777151627990,0.0706154,0.966358,0.197986,-0.0281151,-0.0573863,-0.0467284,0,0,3.53576,2
1777151628004,0.0619667,0.964503,0.199484,-0.022109,-0.0532459,-0.0405414,0,0,3.5229,2
1777151628018,0.0570306,0.962913,0.191523,-0.0176446,-0.0376053,-0.0368571,0,0,3.55114,2
1777151628032,0.0612361,0.962236,0.201874,-0.014524,-0.0222899,-0.0377144,0,0,3.88605,2
1777151628046,0.0606032,0.963342,0.199246,-0.0116337,-0.00926883,-0.0393157,0,0,3.51577,2
1777151628060,0.0541084,0.964029,0.193433,-0.0078405,-0.000992758,-0.0394556,0,0,3.59003,2
1777151628073,0.0554944,0.959946,0.195701,-0.0111094,0.00358377,-0.0365839,0,0,3.53077,2
1777151628087,0.0524639,0.958632,0.205867,-0.00957456,0.013588,-0.0292124,0,0,3.49057,2
1777151628101,0.0559584,0.9645,0.206988,-0.00214746,0.0262316,-0.0236603,0,0,3.74355,2
1777151628115,0.0656921,0.963574,0.198408,0.00116123,0.0379962,-0.0289466,0,0,3.55781,6
1777151628129,0.069653,0.960131,0.201276,-7.54104e-05,0.0515481,-0.0353534,0,0,3.56988,6
1777151628142,0.0656302,0.964817,0.197066,0.000254265,0.0727651,-0.0386498,0,0,3.56542,6
1777151628156,0.0803942,0.963676,0.19985,-0.00372431,0.0759155,-0.0488255,0,0,3.58303,6
1777151628170,0.074551,0.958342,0.196939,-0.00510246,0.0729672,-0.0524293,0,0,3.68353,6
1777151628184,0.0683657,0.955136,0.198485,-0.00713856,0.0775496,-0.0536642,0,0,3.85985,6
1777151628198,0.072997,0.956752,0.199314,-0.0125397,0.0701945,-0.0598445,0,0,3.76207,6
1777151628212,0.06174,0.962074,0.196932,-0.0230949,0.061252,-0.0653661,0,0,3.58755,6
1777151628225,0.0471898,0.964945,0.19633,-0.0305234,0.0589213,-0.0688905,0,0,3.57348,6
1777151628239,0.0421752,0.957592,0.19415,-0.0368992,0.0714297,-0.065802,0,0,3.4762,6
1777151628253,0.0465211,0.958536,0.200733,-0.0386269,0.0802176,-0.0638202,0,0,3.61711,6
1777151628267,0.0470922,0.961323,0.196229,-0.040938,0.087726,-0.0708948,0,0,3.5319,6
1777151628280,0.0385016,0.963545,0.202064,-0.0396035,0.0999352,-0.0785036,0,0,3.55394,2
1777151628294,0.0469942,0.964757,0.205432,-0.0377255,0.102995,-0.0834858,0,0,3.43881,2
1777151628308,0.0402912,0.957862,0.203206,-0.0429998,0.0995398,-0.0879364,0,0,3.73513,2
1777151628321,0.0404513,0.960941,0.208945,-0.0466185,0.0962859,-0.0986002,0,0,3.58887,2
1777151628335,0.0487806,0.95531,0.208475,-0.0495576,0.0897118,-0.113194,0,0,3.54874,2
1777151628349,0.0466606,0.957967,0.208655,-0.0489818,0.0853608,-0.129384,0,0,3.59263,2
1777151628363,0.0368727,0.95667,0.202753,-0.0488091,0.0876147,-0.141842,0,0,3.61985,2
1777151628377,0.0277621,0.955756,0.210124,-0.0514322,0.0916365,-0.151083,0,0,3.59283,2
1777151628390,0.0114196,0.956124,0.200908,-0.0559254,0.101476,-0.151357,0,0,3.4565,2
1777151628405,0.00682135,0.954587,0.202411,-0.0653316,0.111132,-0.153585,0,0,4.45025,2
1777151628419,0.00832124,0.955417,0.200909,-0.0804832,0.130389,-0.159248,0,0,3.55001,2
1777151628432,0.0167507,0.955849,0.196948,-0.0939606,0.149491,-0.172545,0,0,3.60946,2
1777151628446,0.0308873,0.951519,0.20362,-0.104959,0.17014,-0.19225,0,0,3.55468,2
1777151628460,0.0271599,0.968667,0.213549,-0.100667,0.184301,-0.215722,0,0,3.4844,2
1777151628473,0.0158613,0.964419,0.220884,-0.0934613,0.189569,-0.23719,0,0,3.59007,2
1777151628487,-0.00598666,0.964045,0.229039,-0.0829715,0.198091,-0.254637,0,0,3.84479,2
1777151628501,-0.0239458,0.971043,0.235969,-0.0627355,0.211443,-0.26734,0,0,3.5912,2
1777151628515,-0.0466133,0.979587,0.263198,-0.0281617,0.228243,-0.285449,0,0,3.56531,2
1777151628528,-0.0525852,0.984489,0.264347,0.0187295,0.254569,-0.309586,0,0,3.56322,2
1777151628544,-0.0559975,0.990703,0.27018,0.0666929,0.306,-0.345839,0,0,3.59203,2
1777151628558,-0.039547,1.01787,0.298878,0.139457,0.363482,-0.402665,0,0,3.6019,2
1777151628572,0.00266698,1.01767,0.286428,0.218722,0.385674,-0.497214,0,0,3.54309,2
1777151628587,-0.0259615,1.03052,0.275798,0.277635,0.409012,-0.606266,0,0,4.54888,2
1777151628600,-0.0229255,1.08184,0.287276,0.355242,0.425286,-0.721188,0,0,3.53661,2
1777151628614,-0.0264182,1.13793,0.329711,0.438433,0.448439,-0.855572,0,0,3.40242,2
1777151628627,-0.0391314,1.26177,0.367044,0.546118,0.490543,-1.00022,0,0,3.61455,2
1777151628641,0.00495298,1.39501,0.447104,0.688542,0.540122,-1.08571,0,0,3.50561,2
1777151628655,-0.0411189,1.51339,0.497708,0.856501,0.529101,-1.05001,0,0,3.74033,2
1777151628669,-0.388549,1.78691,0.41367,1.11314,0.564191,-0.983151,0,0,3.60492,2
1777151628682,-0.549221,1.30114,0.667732,1.11705,0.876326,-1.01701,0,0,3.58513,2
1777151628696,-0.486044,1.45801,0.724844,1.20177,1.18455,-0.949837,0,0,3.60185,2
1777151628710,-0.587556,1.47672,0.646874,1.30951,1.592,-1.00509,0,0,4.13822,2
1777151628725,-0.438618,1.45128,0.649093,1.32251,2.05033,-0.990951,0,0,3.82314,2
1777151628739,-0.477924,1.89672,0.0480148,1.55439,2.32904,-0.766692,0,0,3.86644,2
1777151628752,-0.375681,1.82901,0.0171109,1.66217,2.4355,-0.606774,0,0,3.45577,2
1777151628766,0.18684,1.57064,0.15964,1.66753,2.47617,-0.453504,0,0,3.611,2
1777151628780,0.337612,1.30172,0.246244,1.55729,2.4917,-0.235876,0,0,3.53968,2
1777151628793,0.16165,1.19844,0.338025,1.47027,2.49763,-0.0754241,0,0,3.42129,2
1777151628807,0.45367,0.993845,0.469385,1.35357,2.4999,0.042005,0,0,3.58911,2
1777151628820,0.87977,0.827332,0.523587,1.22441,2.47609,0.121912,0,0,3.51253,2
1777151628834,0.888787,0.764296,0.449979,1.15191,2.00946,0.109172,0,0,3.53146,2
1777151628848,0.589716,0.630767,0.420491,1.04948,1.6344,0.0477387,0,0,3.59094,2
1777151628861,0.3519,0.46246,0.395106,0.852126,1.46457,0.0290384,0,0,3.58546,5
1777151628875,0.23959,0.260278,0.335448,0.546513,1.3915,0.0663373,0,0,3.5529,5
1777151628889,0.132416,0.039908,0.173867,0.0908512,1.38722,0.136773,0,0,3.75359,2
1777151628903,0.0623241,-0.122744,0.103314,-0.540589,1.42437,0.199439,0,0,3.58803,2
1777151628917,0.0710522,-0.129406,0.320825,-1.18935,1.42709,0.277252,0,0,3.76629,2
1777151628930,0.141077,0.08632,0.50623,-1.64601,1.33869,0.384063,0,0,3.6354,2
1777151628944,0.240104,0.160229,0.569883,-1.93707,1.17216,0.490486,0,0,3.68122,2
1777151628958,0.26039,0.0305502,0.594511,-2.28583,1.02349,0.528872,0,0,3.63307,2
1777151628972,0.290594,0.0992334,0.557242,-2.41904,0.900414,0.479938,0,0,3.56087,2
1777151628985,0.342699,0.353946,0.593256,-2.46993,0.77306,0.387884,0,0,3.58024,2
1777151628999,0.390264,0.650826,0.564122,-2.48936,0.607508,0.326445,0,0,3.63655,2
1777151629013,0.383224,0.879659,0.516667,-2.49679,0.423449,0.346664,0,0,3.53207,2
1777151629026,0.230303,1.19337,0.449738,-2.49962,0.344464,0.45365,0,0,3.51368,2
1777151629040,-0.0117915,1.47597,0.35502,-2.5007,0.467529,0.616895,0,0,3.42627,2
1777151629056,-0.148491,1.61146,0.255991,-2.50112,0.726508,0.786532,0,0,5.40753,2
1777151629069,-0.169646,1.75176,0.211699,-2.50128,0.997817,0.942052,0,0,3.68031,2
1777151629083,-0.153112,1.87738,0.17029,-2.50134,1.25629,1.07123,0,0,3.84474,2
1777151629097,-0.0964678,1.94712,0.0955407,-2.50136,1.46621,1.11902,0,0,3.5972,2
1777151629111,0.098909,2.02536,0.00923111,-2.50137,1.57291,1.06466,0,0,3.61918,2
1777151629125,0.285964,2.15302,-0.0675551,-2.48453,1.59362,0.949874,0,0,3.64946,2
1777151629138,0.506101,2.20173,-0.182665,-2.22183,1.52505,0.803794,0,0,3.57574,2
1777151629152,0.784732,2.12669,-0.333453,-1.91343,1.25608,0.638732,0,0,3.71913,2
1777151629166,0.836673,2.03035,-0.472052,-1.63461,0.816207,0.471797,0,0,3.56638,2
1777151629180,0.64115,1.90216,-0.571133,-1.36454,0.38187,0.312262,0,0,3.7522,2
1777151629193,0.434678,1.87116,-0.684809,-1.01677,0.0340492,0.208063,0,0,3.51327,2
1777151629207,0.190411,1.8044,-0.778351,-0.614449,-0.170895,0.15727,0,0,3.47451,2
1777151629223,0.0366231,1.70278,-0.773529,-0.180915,-0.248893,0.0817736,0,0,5.77962,2
1777151629237,0.0672494,1.62272,-0.645162,0.213305,-0.308692,0.000191521,0,0,3.56216,5
1777151629250,0.147469,1.48984,-0.492424,0.53698,-0.380456,-0.0526249,0,0,3.46994,5
1777151629264,0.211368,1.34094,-0.352038,0.751054,-0.468916,-0.096907,0,0,3.80687,5
1777151629278,0.24369,1.23706,-0.166956,0.865187,-0.582153,-0.162415,0,0,3.52718,5
1777151629292,0.139034,0.969357,0.0945964,0.894157,-0.675792,-0.256977,0,0,3.41813,5
1777151629305,0.0382964,0.521947,1.91447,0.684051,-0.723731,-0.338576,0,0,3.54731,5
1777151629319,-0.144619,1.46016,1.55113,0.873185,-0.734682,-0.258923,0,0,3.48855,5
1777151629333,-0.0429087,1.38983,0.3238,1.87941,-0.752405,-0.040965,0,0,3.57514,5
1777151629346,-0.368596,0.645537,-0.221917,1.18711,-0.576878,0.0539877,0,0,3.53766,5
1777151629360,-0.0804029,0.786901,0.417121,0.685079,-0.369054,0.0627516,0,0,3.53405,5
1777151629373,0.0153426,1.25921,0.366705,0.987843,-0.274527,0.0313288,0,0,3.42294,5
1777151629387,-0.192403,0.980128,0.303625,1.11141,-0.118683,0.0679198,0,0,3.60927,2
1777151629401,-0.115572,0.67044,0.300206,0.884132,0.143238,0.278771,0,0,3.58025,2
1777151629414,0.187292,0.892264,0.219143,0.741271,0.332073,0.516412,0,0,3.67324,2
1777151629428,0.415237,0.9635,0.240564,0.713075,0.318148,0.495465,0,0,3.58096,2
1777151629442,0.423712,0.91193,0.248784,0.628754,0.166907,0.208264,0,0,3.50376,2
1777151629456,0.278102,0.919667,0.23951,0.546821,0.144852,-0.0329703,0,0,3.54677,2
1777151629469,0.252092,0.889047,0.247286,0.527225,0.167896,-0.0745856,0,0,3.58716,2
1777151629483,0.301499,0.865615,0.209227,0.481243,0.0818694,-0.0375946,0,0,3.89948,2
1777151629497,0.228665,0.919824,0.227605,0.411123,-0.0436948,-0.0811641,0,0,3.40688,2
1777151629511,0.194459,0.957472,0.216468,0.390189,-0.126568,-0.160364,0,0,3.71711,6
1777151629524,0.131134,0.939127,0.245001,0.366153,-0.176433,-0.161036,0,0,3.5182,5
1777151629538,0.0390646,0.959049,0.196903,0.348527,-0.150567,-0.0902888,0,0,3.47979,5
1777151629552,0.0410498,0.952218,0.218009,0.323206,-0.0745898,-0.0527924,0,0,3.57642,5
1777151629566,0.0880443,0.961938,0.187553,0.314242,-0.0357562,-0.0635688,0,0,3.60238,5
1777151629579,0.0927412,0.941062,0.175928,0.283738,-0.0271978,-0.0641467,0,0,3.55794,5
1777151629594,0.0623009,0.961659,0.17616,0.259396,-0.00199092,-0.0405896,0,0,4.07337,5
1777151629608,0.100514,0.95521,0.179711,0.235425,0.0199508,-0.025081,0,0,4.0855,5
1777151629622,0.172414,0.953465,0.174397,0.203199,-0.029839,-0.0250545,0,0,3.46696,5
1777151629635,0.158804,0.972273,0.187918,0.190937,-0.0963653,-0.0376882,0,0,3.71055,5
1777151629650,0.138364,0.970546,0.183165,0.192151,-0.138713,-0.05077,0,0,3.52025,5
1777151629664,0.145361,0.97595,0.191237,0.197332,-0.168381,-0.0615697,0,0,3.52638,5
1777151629677,0.129898,0.983815,0.191186,0.211625,-0.173628,-0.0789991,0,0,3.52577,5
1777151629691,0.116147,0.993466,0.172793,0.227841,-0.156006,-0.0970736,0,0,3.44603,2
1777151629705,0.110065,0.993261,0.168032,0.237714,-0.145689,-0.10761,0,0,3.68051,2
1777151629719,0.0985048,1.01207,0.174446,0.254366,-0.13203,-0.102199,0,0,3.53155,2
1777151629732,0.0913072,1.01465,0.162935,0.269218,-0.136059,-0.101689,0,0,3.68459,2
1777151629746,0.107698,1.02276,0.147475,0.282675,-0.125474,-0.106778,0,0,3.53451,2
1777151629760,0.148072,1.00981,0.144486,0.302535,-0.165636,-0.118724,0,0,3.67344,2
1777151629774,0.183914,1.03428,0.14551,0.331493,-0.217682,-0.127769,0,0,3.72959,2
1777151629788,0.142639,1.06153,0.133754,0.376286,-0.260537,-0.144198,0,0,3.49862,2
1777151629802,0.127201,1.26681,0.164902,0.491809,-0.266527,-0.164343,0,0,3.504,3
1777151629815,0.167428,1.06949,0.116984,0.578206,-0.263201,-0.210677,0,0,3.43194,3
1777151629829,0.118625,1.02204,0.106526,0.555443,-0.264525,-0.187991,0,0,3.61005,3
1777151629842,0.0520904,1.14169,0.117398,0.593879,-0.229883,-0.146819,0,0,3.49976,3
1777151629856,0.00766167,1.14577,0.129341,0.663664,-0.192307,-0.153644,0,0,3.68822,3
1777151629870,0.0729926,1.28184,0.113815,0.706785,-0.120633,-0.129549,0,0,3.71175,3
1777151629884,-0.0276612,1.16141,0.246559,0.825444,-0.192896,-0.143179,0,0,3.57037,3
1777151629897,0.000532882,1.28655,0.246906,0.836469,-0.178981,-0.19981,0,0,3.52981,3
1777151629911,-0.0100929,1.32219,0.184769,0.946217,-0.184659,-0.159165,0,0,3.42216,3
1777151629925,-0.133872,1.29956,0.234797,1.00286,-0.199283,-0.14883,0,0,3.58785,3
1777151629938,-0.171066,1.48531,0.263318,1.07271,-0.0678159,-0.137711,0,0,3.58853,3
1777151629952,0.115458,1.5903,0.321005,1.29598,-0.0766671,-0.10294,0,0,3.70907,3
1777151629968,0.112823,1.50125,0.377486,1.47038,-0.207665,-0.111455,0,0,3.54374,2
1777151629982,0.309648,1.58153,0.467683,1.63027,-0.36088,-0.0977233,0,0,3.52618,2
1777151629995,0.597992,1.67673,0.76028,1.87977,-0.6251,-0.0260986,0,0,3.57027,2
1777151630009,0.660013,1.82873,0.767547,2.18251,-1.01947,0.123262,0,0,3.51896,2
1777151630023,0.647859,1.73114,1.02683,2.37953,-1.3901,0.165971,0,0,3.57438,2
1777151630036,0.500411,1.54493,1.19273,2.45479,-1.63117,0.0605646,0,0,3.48283,2
1777151630050,0.277792,1.3451,1.20392,2.48353,-1.67206,-0.109343,0,0,3.44887,2
1777151630063,0.077663,1.13426,0.867635,2.49451,-1.49542,-0.284686,0,0,3.4707,2
1777151630077,-0.165555,1.38558,0.284743,2.49871,-1.04119,-0.445545,0,0,3.62405,2
1777151630091,0.00481984,1.8413,-0.00221469,2.50031,-0.48111,-0.575868,0,0,3.91822,2
1777151630105,0.381666,1.52178,0.36566,2.50092,-0.267415,-0.591443,0,0,3.68913,2
1777151630119,0.651636,0.650927,0.303951,2.50115,-0.353697,-0.403018,0,0,3.48175,2
1777151630133,0.655096,-0.141452,-0.141555,2.21091,-0.553193,-0.254051,0,0,3.72788,2
1777151630146,0.255401,-0.407435,-0.435778,1.41039,-0.560561,-0.366521,0,0,3.53866,2
1777151630160,-0.215623,-0.402824,-0.464097,0.551885,-0.381739,-0.538135,0,0,3.47527,2
1777151630173,-0.406476,-0.577987,-0.312127,-0.551409,-0.096699,-0.447196,0,0,3.50535,2
1777151630187,-0.47718,-0.459543,-0.119674,-1.52741,0.202965,-0.139393,0,0,3.59264,2
1777151630201,-0.299121,-0.102228,0.0419383,-2.12935,0.377202,0.220579,0,0,3.52361,2
1777151630214,-0.206212,-0.119657,0.447254,-2.35927,0.407427,0.414312,0,0,3.43209,2
1777151630228,-0.171504,0.16164,0.340644,-2.4471,0.46214,0.532423,0,0,3.7849,2
1777151630244,-0.206688,0.216757,0.852329,-2.48064,0.532528,0.599475,0,0,3.95109,2
1777151630258,0.0541596,0.217777,0.616059,-2.49346,0.513038,0.627352,0,0,3.70831,2
1777151630272,0.324869,0.16281,0.445475,-2.49835,0.334997,0.650738,0,0,3.60546,2
1777151630286,0.310853,0.348584,0.427485,-2.50022,0.0826193,0.593432,0,0,3.47177,2
1777151630299,0.290116,0.701415,0.503313,-2.50093,-0.159231,0.428641,0,0,3.5082,6
1777151630313,0.36357,1.05587,0.486663,-2.50121,-0.408618,0.281907,0,0,3.42531,6
1777151630326,0.223977,1.31449,0.369885,-2.50131,-0.573888,0.269453,0,0,3.57301,5
1777151630340,-0.0898177,1.49095,0.241406,-2.50135,-0.50001,0.385095,0,0,3.47588,5
1777151630354,-0.252079,1.64112,0.127703,-2.50136,-0.260622,0.587879,0,0,3.47188,5
1777151630367,-0.298184,1.84723,0.0285237,-2.50137,0.0254263,0.835601,0,0,3.5652,5
1777151630381,-0.273787,2.02715,-0.0586962,-2.50137,0.317691,1.05133,0,0,3.58922,5
1777151630395,-0.16776,2.10559,-0.13561,-2.50137,0.581853,1.16237,0,0,3.87611,5
1777151630409,-0.0352921,2.13746,-0.173115,-2.50137,0.716392,1.14802,0,0,3.71083,5
1777151630422,0.00436768,2.24871,-0.215484,-2.50137,0.770801,1.03998,0,0,3.56416,5
1777151630436,-0.0186263,2.31746,-0.335243,-2.30139,0.841215,0.868311,0,0,3.44266,5
1777151630450,0.160222,2.26642,-0.475608,-1.99434,0.888586,0.666913,0,0,3.65701,5
1777151630463,0.507677,2.20264,-0.609693,-1.60952,0.714476,0.473456,0,0,3.53646,5
1777151630477,0.661239,2.04337,-0.743908,-1.22159,0.33971,0.326436,0,0,3.55201,5
1777151630491,0.454885,1.91032,-0.854325,-0.879555,-0.0380551,0.211967,0,0,3.40083,5
1777151630504,0.124899,1.8266,-0.884404,-0.542129,-0.25321,0.116206,0,0,3.51665,5
1777151630518,-0.164588,1.81423,-0.853525,-0.144328,-0.264719,0.0642017,0,0,3.5185,5
1777151630531,-0.306609,1.70114,-0.794084,0.244217,-0.143385,0.0262213,0,0,3.49751,5
1777151630545,-0.274182,1.51392,-0.644494,0.524067,0.0334548,-0.0181969,0,0,3.6009,5
1777151630559,-0.145869,1.34522,-0.440721,0.714559,0.175638,-0.0485146,0,0,3.65077,5
1777151630573,0.00834227,1.24307,-0.107758,0.900218,0.227729,-0.0213144,0,0,3.62398,5
1777151630586,0.784933,0.768321,1.59173,0.870361,0.149307,0.0984813,0,0,3.54461,5
1777151630603,0.219052,2.22156,0.50176,1.46204,-0.354741,0.101354,0,0,7.03362,5
1777151630617,-0.0837875,1.05365,-0.045434,1.794,-0.518916,-0.136034,0,0,3.56955,5
1777151630632,-0.131104,0.657849,0.17626,0.944726,-0.583843,-0.363383,0,0,4.59916,5
1777151630646,-0.0412073,1.13538,0.386521,0.892126,-0.663463,-0.277598,0,0,3.58085,5
1777151630660,-0.119882,1.03629,0.33881,1.17766,-0.460344,0.0290852,0,0,3.78177,5
1777151630676,-0.130471,0.791991,0.0125397,0.937269,0.0697266,0.323287,0,0,3.60933,5
1777151630690,0.265935,0.887517,0.138964,0.67943,0.271299,0.359895,0,0,3.60046,5
1777151630704,0.491211,0.949059,0.255979,0.56981,0.128396,0.205546,0,0,3.60327,5
1777151630720,0.190232,0.942048,0.274937,0.564502,0.16378,0.0531296,0,0,3.6515,5
1777151630734,0.242019,0.901052,0.228227,0.540678,0.250044,-0.0371693,0,0,3.71257,5
1777151630748,0.264318,0.886366,0.208225,0.489873,0.210482,-0.0639704,0,0,3.56179,2
1777151630764,0.145673,0.923855,0.196158,0.421118,0.179613,-0.017688,0,0,3.75877,2
1777151630778,0.174037,0.936916,0.16297,0.373721,0.107386,0.0162195,0,0,3.64987,5
1777151630792,0.176544,0.938802,0.173313,0.296927,0.0167212,0.0387482,0,0,3.60975,5
1777151630806,0.167749,0.966891,0.195847,0.260423,-0.031733,0.0626864,0,0,3.50737,5
1777151630819,0.218889,0.953252,0.193332,0.236903,-0.0869455,0.0483352,0,0,3.51502,5
1777151630833,0.216974,0.960947,0.191033,0.199753,-0.145541,0.0239351,0,0,3.39555,5
1777151630847,0.191358,0.978158,0.19559,0.187262,-0.170565,0.0238148,0,0,3.99227,5
1777151630864,0.213906,0.975421,0.203845,0.200607,-0.188332,0.0380167,0,0,3.62242,5
1777151630878,0.273811,0.969242,0.209979,0.20679,-0.217528,0.0231075,0,0,3.60101,5
1777151630892,0.31594,0.955333,0.2199,0.21854,-0.251326,-0.014291,0,0,3.59346,5
1777151630908,0.326355,0.950193,0.210842,0.241474,-0.298439,-0.0511743,0,0,3.84146,5
1777151630922,0.28567,0.967412,0.18955,0.268445,-0.312944,-0.0900782,0,0,3.76012,5
1777151630936,0.262972,0.964843,0.167466,0.296251,-0.289847,-0.128905,0,0,3.62855,5
1777151630954,0.26742,0.98024,0.141649,0.324327,-0.255549,-0.176288,0,0,3.48805,3
1777151630967,0.233754,0.997944,0.123571,0.34109,-0.239853,-0.208871,0,0,3.53998,3
1777151630981,0.184012,1.01175,0.119573,0.350796,-0.233197,-0.213956,0,0,3.48035,3
1777151630995,0.108235,1.03689,0.121929,0.366675,-0.225701,-0.199575,0,0,3.53829,3
1777151631009,0.0926182,1.07048,0.141064,0.391942,-0.221942,-0.164218,0,0,3.48242,3
1777151631022,0.0483547,1.09652,0.142753,0.438344,-0.236499,-0.14458,0,0,3.509,3
1777151631036,0.291379,1.3741,0.149753,0.509522,-0.199411,-0.0545169,0,0,3.50309,3
1777151631050,-0.0879883,1.25948,-0.00179408,0.527603,-0.456283,-0.115038,0,0,3.4397,3
1777151631064,-0.0150779,1.14014,0.18501,0.535406,-0.364648,-0.22369,0,0,4.19874,3
1777151631077,-0.0199189,1.15669,0.115013,0.633215,-0.288508,-0.196075,0,0,3.48376,3
1777151631091,-0.0627003,1.17643,0.133374,0.692277,-0.20951,-0.161324,0,0,3.45096,2
1777151631105,0.0505096,1.28807,0.170078,0.799568,-0.153954,-0.170319,0,0,3.80355,2
1777151631119,0.11973,1.29868,0.179078,0.906175,-0.144386,-0.191824,0,0,3.50029,2
1777151631132,0.163865,1.31384,0.188431,1.00799,-0.164651,-0.200227,0,0,3.46846,2
1777151631146,0.208864,1.3174,0.185151,1.1143,-0.222023,-0.215608,0,0,3.49281,2
1777151631159,0.124678,1.32765,0.212074,1.22643,-0.346927,-0.247762,0,0,3.50222,2
1777151631173,0.0588399,1.53161,0.270903,1.32011,-0.340051,-0.248815,0,0,3.34853,2
1777151631187,0.367433,1.55835,0.369803,1.51154,-0.480752,-0.222797,0,0,4.38535,2
1777151631201,0.343096,1.48302,0.491699,1.6417,-0.72099,-0.188185,0,0,3.32426,2
1777151631214,0.48095,1.56291,0.614541,1.8203,-0.915224,-0.112171,0,0,3.37759,2
1777151631228,0.681276,1.58333,0.791493,2.08394,-1.15265,0.0280163,0,0,3.49905,2
1777151631241,0.630864,1.62715,0.937023,2.34188,-1.53278,0.185355,0,0,3.43513,2
1777151631255,0.422261,1.49623,1.01714,2.44041,-1.74652,0.156664,0,0,3.555,2
1777151631269,0.168369,1.30376,1.04227,2.47804,-1.68682,-0.0702772,0,0,3.5282,2
1777151631282,-0.0237807,1.22956,0.790273,2.49241,-1.43053,-0.317036,0,0,3.47876,2
1777151631296,-0.130828,1.43265,0.344275,2.4979,-0.996495,-0.469225,0,0,3.50224,2
1777151631310,0.00176043,1.98277,-0.0688099,2.5,-0.624491,-0.564815,0,0,4.14181,2
1777151631324,0.268766,1.54596,0.35035,2.5008,-0.440268,-0.523059,0,0,3.50405,2
1777151631337,0.538974,0.534378,0.242403,2.50111,-0.486998,-0.274191,0,0,3.42314,2
1777151631351,0.601614,-0.215059,-0.1862,2.15381,-0.590522,-0.115582,0,0,3.64866,2
1777151631365,0.219478,-0.421029,-0.433758,1.23068,-0.592087,-0.31547,0,0,3.49542,2
1777151631378,-0.238113,-0.286179,-0.328188,0.314342,-0.602875,-0.600961,0,0,3.46025,2
1777151631392,-0.488877,-0.358164,-0.191728,-0.768108,-0.401487,-0.563946,0,0,3.5132,2
1777151631406,-0.560821,0.130064,-0.411698,-1.52517,-0.0159716,-0.270465,0,0,3.51096,2
1777151631419,-0.515604,-0.0698837,0.203391,-2.10179,0.287678,0.0404906,0,0,3.52974,2
1777151631433,-0.38036,-0.0148791,0.499554,-2.34875,0.530146,0.273389,0,0,3.54963,2
1777151631446,-0.195774,0.287912,0.817557,-2.44308,0.626252,0.358668,0,0,3.50579,6
1777151631460,0.114624,0.38488,0.686981,-2.47911,0.520342,0.309011,0,0,3.50674,6
1777151631474,0.150467,0.220075,0.374434,-2.49287,0.383786,0.270747,0,0,3.52551,6
1777151631487,0.101907,0.146332,0.315384,-2.49813,0.270106,0.186591,0,0,3.48701,6
1777151631501,0.230475,0.394271,0.417397,-2.50013,0.11723,0.0775934,0,0,3.48413,6
1777151631514,0.381457,0.640462,0.549566,-2.5009,-0.128649,0.0126539,0,0,3.40416,6
1777151631528,0.358867,0.860099,0.544596,-2.50119,-0.420573,0.016911,0,0,3.52259,6
1777151631542,0.119653,1.00132,0.436875,-2.5013,-0.579964,0.0893043,0,0,3.44668,6
1777151631555,-0.194256,1.17509,0.347734,-2.50135,-0.49299,0.224381,0,0,3.44762,5
1777151631569,-0.322284,1.43266,0.274671,-2.50136,-0.264545,0.443599,0,0,3.48505,5
1777151631582,-0.318464,1.61094,0.148509,-2.50137,-0.0123523,0.68689,0,0,3.45051,5
1777151631596,-0.254654,1.77891,0.0820731,-2.50137,0.242967,0.868514,0,0,3.45272,5
1777151631609,-0.14306,1.93529,0.00357163,-2.50137,0.457917,0.958222,0,0,3.48929,5
1777151631624,-0.0261824,2.08662,-0.116726,-2.50137,0.637255,1.00178,0,0,3.60287,5
1777151631643,0.142062,2.19658,-0.300639,-2.50137,0.67476,0.991245,0,0,8.41575,5
1777151631656,0.170225,2.2578,-0.441292,-2.37829,0.674554,0.899657,0,0,3.58642,5
1777151631672,0.203296,2.28579,-0.533418,-2.106,0.665229,0.700494,0,0,3.52998,5
1777151631686,0.337611,2.25175,-0.633599,-1.7569,0.54476,0.504399,0,0,3.5044,5
1777151631699,0.36462,2.10719,-0.760543,-1.39366,0.318193,0.356655,0,0,3.68301,5
1777151631713,0.260572,1.97341,-0.814318,-1.03473,0.0787013,0.244598,0,0,3.82255,5
1777151631727,0.188009,1.82688,-0.840733,-0.688963,-0.141856,0.139663,0,0,3.46816,5
1777151631741,0.139487,1.77177,-0.809337,-0.334824,-0.345981,0.0441467,0,0,3.60524,5
1777151631755,0.00466917,1.72257,-0.741286,0.0572829,-0.428243,-0.0475828,0,0,3.48588,5
1777151631769,-0.031277,1.66568,-0.593726,0.407656,-0.401305,-0.127817,0,0,3.50837,5
1777151631783,-0.0281131,1.58611,-0.608808,0.8305,-0.362992,-0.222343,0,0,3.50368,5
1777151631796,0.383151,1.71115,0.628166,1.21884,-0.377844,-0.116395,0,0,3.52916,5
1777151631810,0.316037,1.76481,1.27499,1.6326,-0.495093,0.0291861,0,0,3.52416,5
1777151631824,0.0522271,1.12102,0.113729,1.92704,-0.505297,-0.174923,0,0,3.38505,5
1777151631837,-0.193609,0.529708,0.0203834,1.19732,-0.398137,-0.409941,0,0,3.51733,5
1777151631851,-0.244762,0.944807,0.348101,0.83146,-0.187506,-0.280049,0,0,3.45159,5
1777151631865,-0.200634,1.0612,0.318,1.09089,-4.29461e-06,0.0597585,0,0,3.97677,5
1777151631879,-0.0399137,0.792063,0.191097,1.12902,0.249854,0.32269,0,0,3.52318,5
1777151631893,0.278529,0.858734,0.133363,0.922279,0.308068,0.345655,0,0,3.46126,5
1777151631906,0.244118,0.949727,0.20484,0.746076,0.218774,0.215581,0,0,3.54859,5
1777151631920,0.17013,0.927695,0.190102,0.649285,0.274211,0.146082,0,0,3.50052,5
1777151631934,0.289685,0.891134,0.210356,0.564948,0.263494,0.116281,0,0,3.80981,5
1777151631947,0.332142,0.89708,0.216379,0.46909,0.149475,0.035593,0,0,3.53709,6
1777151631961,0.229754,0.946177,0.228582,0.44328,0.0670018,-0.0692024,0,0,3.51579,6
1777151631975,0.136866,0.910493,0.197247,0.394122,-0.000827351,-0.116166,0,0,3.59348,6
1777151631988,0.111105,0.936753,0.199577,0.327506,-0.0826419,-0.0737634,0,0,3.48312,6
1777151632002,0.0812908,0.98047,0.212082,0.306402,-0.116346,-0.011993,0,0,3.57266,6
1777151632016,0.0998384,0.98676,0.230841,0.311739,-0.0974683,-0.0174606,0,0,3.46581,5
1777151632029,0.14935,0.985971,0.246979,0.323827,-0.0558178,-0.0724357,0,0,3.6479,5
1777151632043,0.165452,0.97032,0.241246,0.348589,0.0170825,-0.113862,0,0,3.5395,5
1777151632057,0.179575,0.971076,0.219204,0.380835,0.070876,-0.135914,0,0,3.52775,5
1777151632070,0.152169,0.96685,0.177011,0.39551,0.101661,-0.143865,0,0,3.40092,5
1777151632084,0.140037,0.973933,0.151675,0.388897,0.102286,-0.140344,0,0,3.55229,5
1777151632097,0.143747,0.971908,0.13905,0.361838,0.068556,-0.128007,0,0,3.47903,5
1777151632111,0.117293,0.986984,0.126046,0.333386,0.0215626,-0.102064,0,0,3.51542,5
1777151632125,0.131294,0.994486,0.125337,0.306997,-0.0262982,-0.074746,0,0,3.5327,5
1777151632138,0.127191,1.02024,0.145637,0.300691,-0.0832655,-0.0678498,0,0,3.48122,5
1777151632152,0.107825,1.03118,0.151178,0.309558,-0.105497,-0.0721509,0,0,3.55657,5
1777151632166,0.0966251,1.03272,0.140049,0.327004,-0.10644,-0.071718,0,0,3.46196,5
1777151632179,0.105271,1.0443,0.145241,0.339093,-0.100714,-0.0676368,0,0,3.66203,5
1777151632193,0.129907,1.07601,0.153865,0.366451,-0.0855532,-0.0659836,0,0,3.47018,5
1777151632207,0.172604,1.08688,0.147039,0.393507,-0.097171,-0.0721929,0,0,3.55724,5
1777151632220,0.177904,1.07267,0.141365,0.412475,-0.149872,-0.0758857,0,0,3.48625,5
1777151632234,0.149976,1.15832,0.158247,0.450245,-0.20732,-0.0648412,0,0,3.4229,5
1777151632247,0.125424,1.40757,0.119312,0.576295,-0.244501,-0.0624625,0,0,3.48259,5
1777151632261,0.13507,1.06298,0.103965,0.462149,-0.226481,-0.0820292,0,0,3.45851,5
1777151632275,-0.0133083,1.07755,0.144883,0.566406,-0.225872,-0.0337385,0,0,3.48785,5
1777151632290,0.00598066,1.07132,0.103587,0.592405,-0.17063,-0.0666701,0,0,5.2239,5
1777151632304,0.0145073,1.12444,0.115459,0.66329,-0.129715,-0.0908075,0,0,3.48964,5
1777151632318,0.0199008,1.19137,0.130206,0.744432,-0.0693614,-0.100357,0,0,3.5319,3
1777151632332,0.0582245,1.2457,0.151012,0.846523,-0.0423456,-0.118913,0,0,4.23035,2
1777151632346,0.0953937,1.29447,0.16963,0.948831,-0.0422169,-0.151477,0,0,3.5079,3
1777151632359,0.160004,1.31746,0.189529,1.05335,-0.0777401,-0.177928,0,0,3.45846,3
1777151632373,0.214741,1.34075,0.191464,1.15417,-0.156132,-0.20643,0,0,3.63288,3
1777151632387,0.0537255,1.45155,0.25119,1.27095,-0.222638,-0.228074,0,0,3.49509,3
1777151632400,0.181359,1.55593,0.342597,1.43766,-0.19723,-0.240162,0,0,3.44472,3
1777151632414,0.321444,1.48688,0.406455,1.59196,-0.316934,-0.236524,0,0,3.49425,3
1777151632427,0.398156,1.47591,0.489756,1.71785,-0.536651,-0.202251,0,0,3.48377,3
1777151632441,0.537082,1.49705,0.636265,1.89058,-0.805419,-0.131885,0,0,3.49872,3
1777151632458,0.606799,1.50253,0.783089,2.13691,-1.18619,-0.032448,0,0,6.35223,2
1777151632472,0.494313,1.46439,0.959979,2.36212,-1.46728,0.0405871,0,0,3.5799,2
1777151632486,0.321522,1.41586,0.93414,2.44813,-1.53642,0.0774478,0,0,4.19172,2
1777151632500,0.181967,1.32027,0.635274,2.48099,-1.51146,-0.0315605,0,0,3.49759,2
1777151632516,0.0300972,1.47162,0.246868,2.49354,-1.31227,-0.285264,0,0,3.47742,2
1777151632530,-0.154046,1.9713,0.0408892,2.49834,-0.950095,-0.531064,0,0,3.45946,2
1777151632543,0.140306,1.67687,0.329372,2.50017,-0.728299,-0.637407,0,0,3.49161,2
1777151632557,0.234392,1.0707,0.364617,2.50087,-0.664905,-0.54253,0,0,3.4742,2
1777151632570,0.25077,0.338683,0.0668711,2.38795,-0.556808,-0.382542,0,0,3.3609,2
1777151632584,0.0398275,-0.187657,-0.41852,1.69277,-0.35115,-0.411778,0,0,3.51814,2
1777151632598,-0.399743,-0.151128,-0.408047,0.874641,0.0112759,-0.566179,0,0,3.51348,2
1777151632611,-0.603815,-0.215691,-0.219917,-0.083821,0.488355,-0.549433,0,0,3.51116,2
1777151632625,-0.412396,-0.190946,-0.19661,-0.927175,0.828252,-0.305118,0,0,3.54003,2
1777151632639,-0.0587416,0.154587,-0.234305,-1.47392,0.951524,0.0560804,0,0,3.57657,2
1777151632654,0.0767827,-0.107849,0.354361,-2.01306,0.784326,0.284581,0,0,3.50159,2
1777151632667,0.0565019,0.00617693,0.305611,-2.31485,0.669887,0.358792,0,0,3.55496,6
1777151632681,-0.00515607,0.046357,0.684106,-2.43013,0.616221,0.31354,0,0,3.50979,6
1777151632695,0.0627412,0.109454,0.507939,-2.47416,0.518114,0.247803,0,0,3.55837,6
1777151632708,0.129296,0.0550983,0.422758,-2.49098,0.385907,0.282705,0,0,3.47305,6
1777151632722,0.0311888,0.0836263,0.430437,-2.4974,0.302808,0.327834,0,0,3.3902,6
1777151632736,0.0557324,0.312666,0.608066,-2.49986,0.214689,0.276616,0,0,3.76537,6
1777151632749,0.251041,0.564363,0.656468,-2.50079,0.0218519,0.182275,0,0,3.44077,6
1777151632763,0.352483,0.739912,0.703503,-2.50115,-0.259531,0.120764,0,0,3.58194,6
1777151632777,0.164781,1.01677,0.616827,-2.50129,-0.440608,0.149212,0,0,3.47837,6
1777151632790,-0.101256,1.30572,0.52403,-2.50134,-0.385411,0.274863,0,0,3.51216,5
1777151632804,-0.236557,1.6401,0.460717,-2.50136,-0.161886,0.475526,0,0,3.47037,5
1777151632818,-0.219846,1.9613,0.326767,-2.50137,0.137398,0.712389,0,0,3.53688,5
1777151632831,-0.0823544,2.23257,0.167762,-2.50137,0.40009,0.890284,0,0,3.51361,5
1777151632845,0.157257,2.45233,-0.0125529,-2.50137,0.547089,0.97451,0,0,3.45953,5
1777151632859,0.356896,2.63945,-0.220918,-2.50137,0.532659,0.964504,0,0,3.56235,5
1777151632872,0.282256,2.82517,-0.499236,-2.50137,0.55083,0.915439,0,0,3.43059,5
1777151632886,0.179261,2.84423,-0.806031,-2.32748,0.643164,0.825364,0,0,3.42746,5
1777151632899,0.158028,2.70186,-1.07878,-1.96001,0.626064,0.652066,0,0,3.54498,5
1777151632913,0.006995,2.57408,-1.20581,-1.50945,0.56457,0.439148,0,0,3.57629,5
1777151632927,-0.0646326,2.33379,-1.25316,-0.954928,0.530089,0.270871,0,0,3.5334,5
1777151632940,0.204019,2.03211,-1.32502,-0.456606,0.314666,0.17843,0,0,3.44926,5
1777151632954,0.212518,1.9471,-1.24816,-0.0108413,-0.014219,0.129391,0,0,3.72777,5
1777151632968,-0.0110596,1.86245,-0.996769,0.444806,-0.172017,0.0206916,0,0,3.47951,5
1777151632982,-0.0303799,1.86285,-0.522493,0.867902,-0.135576,-0.103012,0,0,3.74298,5
1777151632995,0.541023,1.02825,0.914216,1.05112,-0.0897637,-0.0784108,0,0,3.47676,5
1777151633009,0.504761,1.18789,1.7548,1.13926,-0.244843,0.074455,0,0,3.61711,5
1777151633023,0.190951,1.59092,0.741659,1.75063,-0.232697,0.117653,0,0,3.51731,5
1777151633036,-0.429903,1.05909,-0.19519,1.62036,0.0979903,0.0575833,0,0,3.56529,5
1777151633050,-0.374296,0.781283,0.194775,0.973183,0.574269,0.0931867,0,0,3.56662,5
1777151633064,0.0884497,1.08042,0.336358,0.957015,0.638577,0.279317,0,0,3.686,5
1777151633077,0.0238352,0.977047,0.25313,1.15847,0.418946,0.364046,0,0,3.58377,5
1777151633091,0.0518754,0.812819,0.238094,1.07412,0.255276,0.35093,0,0,3.45492,5
1777151633105,0.31867,0.91028,0.193687,0.93787,0.0808056,0.401355,0,0,3.79322,5
1777151633119,0.256376,0.868973,0.208861,0.751134,-0.0282021,0.449819,0,0,3.45725,5
1777151633132,0.230696,0.911138,0.200667,0.611824,0.0225355,0.422143,0,0,3.67118,5
1777151633148,0.443611,0.911465,0.269549,0.527852,-0.0255492,0.23069,0,0,3.53907,5
1777151633162,0.438474,0.904783,0.268378,0.521348,-0.0740156,0.00720536,0,0,3.55026,5
1777151633175,0.297423,0.874488,0.266842,0.523817,-0.0462463,-0.105286,0,0,3.48309,5
1777151633189,0.22222,0.902648,0.230919,0.501879,-0.0825817,-0.107586,0,0,3.3952,5
1777151633204,0.0812975,0.953433,0.189391,0.474251,-0.115615,-0.0485955,0,0,4.99946,5
1777151633218,-0.0191935,1.00372,0.166586,0.454592,-0.0668537,-0.0133251,0,0,3.46981,5
1777151633231,-0.0429314,1.00351,0.168186,0.421749,0.0179153,-0.00631635,0,0,3.51185,5
1777151633245,0.00737202,0.989874,0.165059,0.388068,0.101577,0.0171191,0,0,3.38566,5
1777151633259,0.132665,0.957504,0.177959,0.362135,0.117256,0.0339966,0,0,4.06301,5
1777151633272,0.201636,0.95917,0.167211,0.344775,0.0952685,0.017609,0,0,3.44416,5
1777151633286,0.250491,0.954243,0.15448,0.325406,0.0557796,-0.026393,0,0,3.49426,5
1777151633300,0.258767,0.953982,0.13929,0.298098,-0.0246928,-0.0707052,0,0,3.40935,5
1777151633314,0.211433,0.960851,0.140361,0.263701,-0.105392,-0.0795635,0,0,3.48994,5
1777151633328,0.169543,0.96538,0.132593,0.242401,-0.154758,-0.0606789,0,0,3.46627,5
1777151633341,0.140662,0.96452,0.123305,0.231906,-0.180313,-0.0422373,0,0,3.38085,5
1777151633355,0.135836,0.981129,0.122633,0.228228,-0.17342,-0.0397223,0,0,3.42468,5
1777151633368,0.149845,0.999555,0.13533,0.233192,-0.147246,-0.0445174,0,0,3.36264,5
1777151633382,0.167929,1.01459,0.141901,0.245467,-0.130171,-0.0576245,0,0,3.48022,5
1777151633396,0.17673,1.04277,0.149645,0.266479,-0.128367,-0.0725384,0,0,3.34933,5
1777151633410,0.189,1.05731,0.159587,0.295971,-0.141831,-0.077433,0,0,4.09896,5
1777151633424,0.171262,1.08036,0.136464,0.332005,-0.175753,-0.0758586,0,0,3.36768,5
1777151633437,0.134924,1.06163,0.122234,0.358837,-0.209798,-0.0820508,0,0,3.32522,5
1777151633451,0.0886269,1.06106,0.112024,0.381541,-0.238041,-0.0847463,0,0,3.43853,5
1777151633464,0.0313422,1.08621,0.119168,0.41517,-0.239157,-0.0757269,0,0,3.64807,3
1777151633478,0.156274,1.14678,0.112858,0.467551,-0.173298,-0.0459093,0,0,3.48911,3
1777151633492,0.673121,1.0797,0.231351,0.536671,-0.33577,0.0395498,0,0,3.49957,3
1777151633506,0.190842,1.08476,0.139532,0.618224,-0.316494,-0.166057,0,0,3.85485,3
1777151633520,0.127486,1.14102,0.0821634,0.705563,-0.251432,-0.219116,0,0,3.61894,3
1777151633533,0.0973247,1.21326,0.101444,0.792188,-0.268522,-0.176589,0,0,3.63807,3
1777151633548,0.0694052,1.18735,0.12553,0.866085,-0.235656,-0.205306,0,0,3.5297,3
1777151633562,0.047505,1.23331,0.126992,0.93045,-0.232726,-0.217218,0,0,3.43283,3
1777151633575,0.0391311,1.27194,0.134912,1.00962,-0.224861,-0.183507,0,0,3.64859,3
1777151633589,0.0399124,1.28239,0.140773,1.09435,-0.238652,-0.161336,0,0,3.50231,3
1777151633603,0.0356938,1.274,0.129084,1.17715,-0.266424,-0.161029,0,0,3.47853,2
1777151633617,-0.0216216,1.27859,0.139062,1.25614,-0.303687,-0.148693,0,0,3.52709,2
1777151633630,-0.0991739,1.43651,0.195252,1.35401,-0.271969,-0.103738,0,0,3.47135,2
1777151633644,0.157803,1.49066,0.324095,1.52024,-0.243625,-0.0300944,0,0,3.44342,2
1777151633658,0.354423,1.44898,0.404473,1.67366,-0.383202,0.0195482,0,0,3.70227,2
1777151633672,0.542044,1.51719,0.521898,1.82576,-0.694297,0.0877168,0,0,3.49759,2
1777151633687,0.641176,1.56314,0.709191,2.04701,-1.08162,0.11635,0,0,3.55627,2
1777151633702,0.63418,1.52231,0.915995,2.30352,-1.42681,0.0735977,0,0,3.50105,2
1777151633716,0.549151,1.35835,1.01783,2.42575,-1.64222,0.00136181,0,0,3.51114,2
1777151633729,0.300103,1.33388,0.954416,2.47244,-1.74686,-0.138938,0,0,3.45298,2
1777151633743,-0.0666382,1.40282,0.496277,2.49028,-1.6635,-0.366144,0,0,3.43677,2
1777151633756,-0.32425,1.60729,-0.263579,2.49709,-1.18644,-0.599417,0,0,3.44653,2
1777151633770,0.213991,2.07905,-0.0661349,2.49969,-0.969121,-0.671299,0,0,3.41009,2
1777151633784,0.400819,1.24469,0.490774,2.50068,-0.961361,-0.395731,0,0,3.67501,2
1777151633797,0.564593,0.848143,0.437762,2.50106,-0.98727,-0.00594128,0,0,3.51842,2
1777151633811,0.446954,0.34138,0.226667,2.22366,-0.951026,0.0179229,0,0,3.48287,2
1777151633826,0.0991687,-0.229171,-0.372051,1.46159,-0.687138,-0.468899,0,0,3.83662,2
1777151633840,-0.263926,-0.48931,-0.622714,0.536813,-0.301338,-0.812565,0,0,3.43024,2
1777151633853,-0.472353,-0.746382,-0.521786,-0.637275,0.0792732,-0.66619,0,0,3.56927,2
1777151633867,-0.325049,-0.791549,-0.26911,-1.78935,0.330616,-0.268285,0,0,3.47479,3
1777151633881,0.00629296,0.209593,-0.613253,-2.22941,0.485168,0.185641,0,0,3.48631,3
1777151633894,0.213771,0.0735907,0.968772,-2.39749,0.292884,0.491644,0,0,3.56794,3
1777151633908,0.285521,0.593197,0.928527,-2.46169,0.0927174,0.637635,0,0,3.5092,3
1777151633922,0.107302,0.630988,0.959114,-2.48622,-0.106969,0.610978,0,0,3.40039,3
1777151633935,0.0375191,0.300949,0.527755,-2.49558,-0.221268,0.622215,0,0,3.57753,3
1777151633949,-0.143214,0.266069,0.332121,-2.49916,-0.0460194,0.728979,0,0,3.47244,3
1777151633963,-0.0866596,0.734289,0.479404,-2.50053,0.144857,0.750604,0,0,3.55113,3
1777151633976,0.396423,1.00635,0.53807,-2.50105,-0.0227024,0.70126,0,0,3.76814,6
1777151633990,0.455402,0.96761,0.419544,-2.50125,-0.342504,0.624855,0,0,3.51024,6
1777151634004,0.0265604,1.00696,0.340996,-2.50133,-0.423094,0.583404,0,0,3.49927,5
1777151634017,-0.25518,1.29593,0.290217,-2.50136,-0.242282,0.719579,0,0,3.54083,3
1777151634031,-0.313419,1.49309,0.236291,-2.50137,0.0276193,1.04202,0,0,3.84713,3
1777151634045,-0.247071,1.70174,0.157346,-2.50137,0.311452,1.34356,0,0,3.54579,5
1777151634059,-0.107342,1.89274,0.0963409,-2.50137,0.509222,1.42987,0,0,3.51337,5
1777151634072,-0.0590541,2.0956,0.0492219,-2.50137,0.677327,1.3513,0,0,3.48459,5
1777151634086,-0.0320876,2.32546,-0.0167705,-2.50137,0.761494,1.20476,0,0,3.51396,5
1777151634100,-0.143766,2.60192,-0.156384,-2.50137,0.82511,1.04302,0,0,3.51459,5
1777151634113,-0.260505,2.76111,-0.409758,-2.40225,1.05322,0.857441,0,0,3.39903,5
1777151634127,-0.042133,2.70474,-0.718623,-2.04306,1.25249,0.636106,0,0,3.62862,5
1777151634141,0.343209,2.53991,-0.981942,-1.56651,1.21189,0.462396,0,0,3.49444,5
1777151634155,0.507144,2.33421,-1.19269,-1.01942,0.905148,0.373541,0,0,3.77233,5
1777151634168,0.252808,2.16933,-1.33602,-0.45883,0.6038,0.343942,0,0,3.60135,5
1777151634182,-0.186327,2.1045,-1.28845,0.0999801,0.596215,0.312255,0,0,3.58585,5
1777151634196,-0.340923,1.98033,-1.01388,0.659431,0.802505,0.245897,0,0,3.57166,5
1777151634209,-0.214535,1.57995,-0.600513,1.01447,0.998869,0.189271,0,0,3.50813,5
1777151634223,0.413537,1.2423,0.120099,1.27138,1.03104,0.28087,0,0,3.59675,5
1777151634237,1.84015,0.66808,2.29302,1.26463,0.510021,0.580008,0,0,3.50605,5
1777151634251,0.210881,2.23581,0.181165,1.90249,-0.145014,0.41337,0,0,3.55211,5
1777151634264,-0.816184,1.33753,-0.491162,2.07367,0.318119,0.140579,0,0,3.56755,5
1777151634278,-0.25858,0.456028,0.263405,0.995693,0.827343,0.0637453,0,0,3.53644,5
1777151634291,0.537267,1.17025,0.363084,0.954055,0.497653,0.262787,0,0,3.3989,5
1777151634305,0.318627,1.08725,0.255442,1.36035,0.133426,0.40826,0,0,3.54594,5
1777151634319,0.0866686,0.703762,0.080071,1.17854,0.0969156,0.288559,0,0,3.53803,5
1777151634333,0.226564,0.868885,0.189177,0.888213,0.174307,0.144235,0,0,3.78988,5
1777151634346,0.324903,0.886938,0.235885,0.75552,0.142678,0.178181,0,0,3.56192,5
1777151634360,0.303579,0.893908,0.285686,0.670537,0.0787004,0.227851,0,0,3.73579,5
1777151634374,0.386777,0.904098,0.289135,0.629538,0.0777108,0.113876,0,0,3.53209,5
1777151634388,0.332601,0.859368,0.169224,0.588165,0.0302962,-0.121485,0,0,3.40539,5
1777151634401,0.00557454,0.92427,0.104469,0.52976,0.0311039,-0.214405,0,0,3.47222,5
1777151634415,-0.132305,0.934731,0.108955,0.435316,0.0436787,-0.111806,0,0,3.58553,5
1777151634429,-0.127517,0.946873,0.126623,0.301017,0.01541,0.0441488,0,0,3.53439,5
1777151634442,-0.118526,1.03505,0.181149,0.237122,0.029947,0.128204,0,0,3.67474,5
1777151634456,-0.0100075,1.01509,0.201349,0.217152,0.0589,0.13606,0,0,3.55757,5
1777151634470,0.109191,0.976878,0.201726,0.197069,0.0464643,0.116557,0,0,3.76377,5
1777151634484,0.148883,0.956963,0.196715,0.188784,0.0450639,0.0920294,0,0,3.56357,5
1777151634497,0.192288,0.959824,0.180533,0.187837,0.0270731,0.0628929,0,0,3.53957,5
1777151634511,0.234072,0.965546,0.179794,0.175822,-0.0364597,0.0278915,0,0,3.55096,5
1777151634525,0.1813,0.97699,0.187668,0.170667,-0.08743,-0.000716318,0,0,3.49553,5
1777151634538,0.146433,0.971568,0.182753,0.186626,-0.106002,-0.0148045,0,0,3.4755,5
1777151634552,0.135541,0.963863,0.153854,0.203006,-0.107765,-0.0233466,0,0,3.48544,5
1777151634565,0.135015,0.952277,0.148691,0.199733,-0.0881994,-0.0242977,0,0,3.48748,5
1777151634579,0.148587,0.96411,0.157294,0.190651,-0.0673272,-0.016452,0,0,3.51657,5
1777151634593,0.177954,0.969077,0.149136,0.1802,-0.0676109,-0.0271368,0,0,3.76133,5
1777151634606,0.183269,0.983093,0.153132,0.17583,-0.108576,-0.0468341,0,0,3.48255,5
1777151634620,0.161967,0.990419,0.147631,0.175435,-0.150642,-0.0461487,0,0,3.46139,5
1777151634634,0.155607,1.00519,0.157118,0.173255,-0.203793,-0.0455095,0,0,3.46927,5
1777151634647,0.116806,1.02634,0.16878,0.188322,-0.219612,-0.055739,0,0,3.49272,5
1777151634661,0.111105,1.0156,0.156807,0.216581,-0.207161,-0.0680911,0,0,3.54314,5
1777151634678,0.11821,1.01048,0.152125,0.246859,-0.201273,-0.0776214,0,0,6.65634,3
1777151634691,0.12894,1.02291,0.149293,0.284939,-0.158733,-0.0860738,0,0,3.49988,3
1777151634705,0.110872,1.03784,0.145899,0.332461,-0.11649,-0.104305,0,0,3.58933,3
1777151634719,0.106711,1.08386,0.152752,0.399301,-0.0873801,-0.122639,0,0,3.49922,3
1777151634733,0.171097,1.29172,0.159429,0.515131,0.00427196,-0.10893,0,0,3.48251,3
1777151634746,-0.0632979,1.13098,0.0738334,0.556968,-0.15717,-0.179085,0,0,3.51683,3
1777151634760,0.0829316,1.16418,0.186507,0.536291,-0.0597033,-0.23985,0,0,3.4724,3
1777151634774,0.0857977,1.20615,0.151089,0.620484,-0.0698413,-0.204984,0,0,3.60901,3
1777151634787,0.0233127,1.17148,0.134888,0.674298,-0.0655518,-0.221718,0,0,3.48792,3
1777151634801,0.0387939,1.1936,0.140434,0.726133,-0.0765571,-0.237641,0,0,3.46288,3
1777151634814,-0.0166504,1.19691,0.125167,0.778343,-0.0695324,-0.222681,0,0,3.50263,3
1777151634828,-0.0210873,1.19781,0.120749,0.827159,-0.0629805,-0.21239,0,0,3.39766,3
1777151634842,-0.164231,1.25307,0.144657,0.884726,-0.035332,-0.204638,0,0,3.93498,2
1777151634856,-0.0831602,1.41456,0.199702,1.01211,0.135257,-0.180589,0,0,3.50526,3
1777151634870,0.131006,1.28426,0.202851,1.10696,0.0958224,-0.184377,0,0,3.56111,3
1777151634883,0.0530956,1.30705,0.22042,1.16691,0.00437821,-0.199599,0,0,3.46664,3
1777151634897,0.124039,1.31952,0.237664,1.27893,-0.0559322,-0.214944,0,0,3.43764,2
1777151634911,0.216077,1.30118,0.273346,1.38749,-0.154784,-0.222362,0,0,3.51003,2
1777151634924,0.297522,1.33965,0.321916,1.51435,-0.279444,-0.217269,0,0,3.46916,2
1777151634938,0.507172,1.38912,0.391852,1.67424,-0.513933,-0.212305,0,0,3.47676,2
1777151634951,0.557273,1.38021,0.565349,1.82754,-0.825709,-0.18314,0,0,3.41544,2
1777151634965,0.513138,1.48329,0.680133,2.03853,-1.03071,-0.0972221,0,0,3.47314,2
1777151634978,0.41367,1.47906,0.775025,2.31029,-1.10972,0.00593813,0,0,3.4109,2
1777151634993,0.254838,1.40916,0.666172,2.42834,-1.23034,0.0256685,0,0,4.17255,2
1777151635006,0.227386,1.29295,0.545045,2.47343,-1.27169,-0.162632,0,0,3.48452,2
1777151635020,-0.036736,1.36167,0.300271,2.4598,-1.03249,-0.423693,0,0,3.71651,2
1777151635034,-0.230523,1.53726,0.145492,2.48545,-0.481798,-0.618757,0,0,3.49559,2
1777151635047,0.0555929,1.61282,0.205765,2.49524,-0.121331,-0.649719,0,0,3.51857,2
1777151635061,0.241394,0.912502,0.267051,2.49899,0.0607975,-0.5177,0,0,3.54694,2
1777151635075,0.415599,-0.11106,-0.168167,2.10563,0.144565,-0.458545,0,0,3.49946,2
1777151635088,0.500149,-0.676778,-0.501791,1.14816,0.0335169,-0.539034,0,0,3.50153,2
1777151635102,0.230855,-0.769144,-0.213339,-0.260811,-0.233326,-0.546189,0,0,3.43659,2
1777151635116,-0.0450559,-0.132351,0.0785076,-1.40084,-0.268022,-0.272127,0,0,3.51122,2
1777151635129,-0.194958,0.176096,0.426079,-1.97887,0.0026432,0.0176348,0,0,3.4802,6
1777151635143,-0.214403,0.40915,0.331842,-2.0826,0.315452,0.199176,0,0,3.6237,6
1777151635157,0.0553185,0.125574,0.680795,-2.28881,0.382897,0.25026,0,0,3.51679,6
1777151635170,0.254716,0.151343,0.478729,-2.42018,0.20466,0.257837,0,0,3.50148,6
1777151635185,0.123544,0.383302,0.409879,-2.47036,0.108509,0.309041,0,0,4.24031,6
1777151635198,-0.106749,0.631799,0.349639,-2.48953,0.234453,0.340866,0,0,3.66464,6
1777151635212,0.144438,0.616262,0.342666,-2.49685,0.29808,0.312826,0,0,3.56459,6
1777151635226,0.509385,0.720527,0.443065,-2.49965,0.0694619,0.270648,0,0,3.43918,6
1777151635239,0.392596,0.997951,0.395585,-2.50071,-0.220115,0.28459,0,0,3.42444,6
1777151635253,0.0166082,1.14453,0.291895,-2.50112,-0.216694,0.383092,0,0,3.50024,6
1777151635267,-0.0799149,1.22367,0.223587,-2.50128,-0.0476222,0.557674,0,0,3.53694,5
1777151635280,0.0337107,1.3935,0.187858,-2.50134,0.0510675,0.754665,0,0,3.41244,5
1777151635294,0.0752519,1.55181,0.163941,-2.50136,0.106314,0.890486,0,0,3.53079,5
1777151635307,0.0907757,1.7069,0.137369,-2.50137,0.144117,0.940902,0,0,3.47014,5
1777151635321,0.0470994,1.84721,0.105969,-2.50137,0.164737,0.959688,0,0,3.53033,5
1777151635335,-0.106191,1.98079,0.0346067,-2.50137,0.249797,0.998095,0,0,3.5125,5
1777151635348,-0.246754,2.10705,-0.0446526,-2.50137,0.456657,1.03319,0,0,3.57177,5
1777151635362,-0.185713,2.14671,-0.134069,-2.42806,0.70287,1.01763,0,0,3.53976,5
1777151635376,0.0779632,2.12934,-0.218478,-2.26781,0.83763,0.936911,0,0,3.58363,5
1777151635389,0.353225,2.11266,-0.312367,-2.05833,0.793992,0.829886,0,0,3.53757,5
1777151635403,0.45706,2.04156,-0.398877,-1.79837,0.58965,0.70635,0,0,3.47815,5
1777151635417,0.213178,1.94947,-0.458841,-1.50871,0.366761,0.573016,0,0,3.52812,5
1777151635430,-0.128391,1.81967,-0.490725,-1.21134,0.306252,0.436411,0,0,3.57064,5
1777151635444,-0.051923,1.68352,-0.573832,-0.902439,0.258559,0.316721,0,0,3.45003,5
1777151635457,0.162252,1.65377,-0.58916,-0.578658,0.064887,0.231138,0,0,3.41751,5
1777151635471,0.24129,1.59502,-0.593928,-0.230605,-0.256728,0.0984772,0,0,3.50885,5
1777151635485,0.221701,1.51089,-0.56169,0.0576974,-0.603292,-0.10675,0,0,3.49216,5
1777151635498,0.171854,1.48645,-0.473998,0.325677,-0.858237,-0.302614,0,0,3.55992,5
1777151635512,0.158127,1.43587,-0.355379,0.602124,-1.01006,-0.439042,0,0,3.52914,5
1777151635526,0.213309,1.37191,-0.134755,0.831795,-1.08796,-0.507004,0,0,3.43668,5
1777151635539,0.200774,1.16127,0.0461895,0.977646,-1.10639,-0.547023,0,0,3.56527,5
1777151635553,0.136312,0.85043,0.214362,0.931309,-1.06517,-0.583161,0,0,3.44064,5
1777151635567,0.00728927,0.628692,0.35094,0.774718,-0.901664,-0.570451,0,0,3.5107,5
1777151635580,-0.0739746,0.360969,1.09272,0.432072,-0.659744,-0.503274,0,0,3.47118,5
1777151635594,0.376501,0.559713,2.78324,0.286992,-0.485249,-0.294421,0,0,3.50807,5
1777151635607,-0.000823572,1.94995,0.444584,1.18939,-0.536071,-0.0356529,0,0,3.48803,5
1777151635621,-0.292304,1.16075,-0.365148,1.4441,-0.216603,0.0755485,0,0,3.52225,5
1777151635635,-0.152364,0.654411,0.195859,0.710542,0.136455,-0.00614922,0,0,3.60683,5
1777151635649,0.205249,1.10829,0.374785,0.581552,0.200732,-0.146006,0,0,3.56166,5
1777151635662,-0.0878994,1.27921,0.405227,0.957546,0.164377,-0.120073,0,0,3.4744,6
1777151635676,-0.234906,0.84055,0.380591,0.975575,0.410584,0.0976049,0,0,3.55518,6
1777151635689,0.124046,0.752327,0.229456,0.80427,0.596199,0.31502,0,0,3.45146,6
1777151635703,0.540402,0.866472,0.270869,0.644811,0.464043,0.377778,0,0,3.70464,6
1777151635718,0.449597,0.957847,0.236189,0.600745,0.246837,0.243278,0,0,3.56316,6
1777151635732,0.267561,0.934944,0.240919,0.598162,0.256151,0.0274879,0,0,3.52737,6
1777151635745,0.268566,0.851251,0.257672,0.566509,0.332364,-0.11155,0,0,3.4282,6
1777151635759,0.297034,0.826629,0.23906,0.504457,0.314296,-0.099411,0,0,3.55587,6
1777151635773,0.270272,0.879959,0.204924,0.435276,0.219927,-0.0379244,0,0,3.55842,6
1777151635786,0.191131,0.939342,0.201717,0.365918,0.123776,-0.0551063,0,0,3.49738,6
1777151635800,0.110858,0.961602,0.189262,0.320885,0.0579404,-0.0930898,0,0,3.56533,5
1777151635814,0.0530669,0.954198,0.222337,0.264479,0.0317084,-0.0415488,0,0,3.76433,5
1777151635828,0.0323126,0.965059,0.212786,0.239113,0.045325,0.0531986,0,0,3.65779,5
1777151635842,0.0602331,0.950344,0.230406,0.208099,0.0910521,0.0911817,0,0,3.50359,5
1777151635857,0.132793,0.951237,0.215052,0.195639,0.13324,0.0901211,0,0,5.02216,5
1777151635870,0.188102,0.938114,0.216401,0.181114,0.127652,0.0776856,0,0,3.55805,5
1777151635885,0.230904,0.936042,0.215842,0.18269,0.110656,0.0617072,0,0,3.87083,4
1777151635900,0.248654,0.908059,0.224933,0.150315,0.0656674,0.0228152,0,0,3.92101,5
1777151635914,0.247911,0.933321,0.21031,0.131579,0.0115426,-0.0127986,0,0,3.91655,5
1777151635928,0.241712,0.925725,0.208914,0.126451,-0.0374853,-0.0355073,0,0,3.57711,5
1777151635943,0.22283,0.928743,0.202671,0.112557,-0.0992388,-0.0568721,0,0,3.72468,5
1777151635957,0.17139,0.953555,0.209767,0.103334,-0.135565,-0.0660235,0,0,3.60946,5
1777151635974,0.150197,0.960382,0.207581,0.10585,-0.113301,-0.0646597,0,0,4.1742,5
1777151635995,0.153805,0.965891,0.211347,0.116105,-0.0825767,-0.0767825,0,0,8.70414,5
1777151636012,0.158608,0.954254,0.215539,0.129363,-0.0479123,-0.0942926,0,0,7.33697,5
1777151636026,0.172737,0.973521,0.208942,0.158064,-0.0226884,-0.109615,0,0,3.62248,5
1777151636043,0.151955,0.950088,0.221553,0.165205,-0.00291048,-0.128016,0,0,5.50872,5
1777151636061,0.163807,0.961087,0.187038,0.186049,0.00134156,-0.128535,0,0,3.96749,5
1777151636077,0.139478,0.950887,0.17659,0.176649,-0.00448846,-0.128261,0,0,5.3111,5
1777151636095,0.121383,0.950583,0.149222,0.169284,0.000786006,-0.114569,0,0,7.20581,5
1777151636112,0.141219,0.963565,0.145048,0.153356,-0.0134758,-0.0989599,0,0,3.85966,5
1777151636126,0.145121,0.962776,0.154134,0.14312,-0.0566659,-0.0965361,0,0,3.5344,5
1777151636140,0.132801,0.989508,0.168979,0.147042,-0.100621,-0.103678,0,0,4.53425,3
1777151636154,0.124862,0.982551,0.185181,0.145992,-0.125713,-0.117823,0,0,3.52677,3
1777151636168,0.128763,0.982463,0.170032,0.15465,-0.14195,-0.131529,0,0,3.69846,3
1777151636182,0.150879,0.982766,0.146614,0.148615,-0.173251,-0.163184,0,0,3.99559,3
1777151636199,0.168759,0.998757,0.162751,0.14414,-0.23715,-0.214339,0,0,4.58474,3
1777151636217,0.131967,1.00639,0.143111,0.156867,-0.305338,-0.271951,0,0,5.56735,3
1777151636231,0.155056,1.04907,0.172384,0.149179,-0.41838,-0.33387,0,0,4.39712,3
1777151636248,0.106199,1.23168,0.269551,0.25947,-0.539497,-0.356813,0,0,5.47994,3
1777151636265,0.178548,1.26529,0.275001,0.422515,-0.625578,-0.398082,0,0,4.62666,3
1777151636280,0.397853,1.24218,0.250597,0.528716,-0.842217,-0.374735,0,0,3.89374,3
1777151636294,0.337325,1.24069,0.291747,0.58735,-1.09113,-0.262261,0,0,3.5834,3
1777151636308,0.105435,1.33061,0.275689,0.625692,-1.28075,-0.0774348,0,0,3.93057,3
1777151636324,0.705098,1.60954,0.518025,0.736581,-1.31213,0.324542,0,0,4.42433,3
1777151636340,0.571813,1.41275,0.300017,0.933587,-1.86723,0.460722,0,0,5.16118,3
1777151636354,0.452092,1.55585,0.619725,0.869897,-2.10148,0.189709,0,0,3.81046,3
1777151636368,0.261245,1.41368,0.676611,1.03825,-2.27003,0.136908,0,0,3.81668,3
1777151636383,0.0822703,1.10369,0.511487,0.967147,-2.30148,0.240252,0,0,4.12518,2
1777151636397,0.0897237,1.20754,0.192123,0.923006,-2.26037,0.271894,0,0,3.73344,2
1777151636412,0.16149,1.16498,0.120448,1.04513,-2.25269,0.251381,0,0,5.11086,2
1777151636426,0.262899,0.851624,-0.169663,1.0514,-2.40638,0.134894,0,0,3.59248,2
1777151636440,0.501822,0.403259,-0.131926,0.676835,-2.46509,-0.0249039,0,0,3.78461,2
1777151636458,0.171629,0.395851,0.364303,-0.0425631,-2.48752,-0.250687,0,0,5.81294,2
1777151636473,-0.718559,0.994927,0.474863,0.000915193,-2.49608,-0.460724,0,0,4.78114,5
1777151636488,-0.967518,0.597227,0.355326,0.207037,-2.49935,-0.457446,0,0,4.01757,5
1777151636502,-0.705286,0.0760198,0.351118,0.0363377,-2.5006,-0.316641,0,0,3.53389,5
1777151636516,-0.613262,0.0842351,0.483201,-0.249233,-2.50108,-0.230305,0,0,4.43874,4
1777151636534,-0.782472,0.176941,0.543763,-0.384731,-2.39893,-0.238231,0,0,6.58457,4
1777151636549,-0.774856,-0.11009,0.525841,-0.666103,-2.15299,-0.26079,0,0,4.01735,4
1777151636571,-0.626384,-0.0175565,0.659966,-1.18648,-1.98328,-0.19798,0,0,3.99392,4
1777151636586,-0.674947,0.244006,0.702146,-1.45663,-1.75989,-0.116666,0,0,4.84496,4
1777151636600,-0.705312,0.34939,0.655792,-1.67243,-1.47448,-0.0634339,0,0,3.83492,4
1777151636614,-0.608469,0.483638,0.643189,-1.92177,-1.23346,-0.0210687,0,0,3.63264,4
1777151636628,-0.522664,0.746874,0.639298,-2.12373,-1.05577,0.0295535,0,0,3.74138,4
1777151636642,-0.484449,1.00147,0.620497,-2.23234,-0.897508,0.0838484,0,0,3.63064,4
1777151636655,-0.467181,1.19351,0.567427,-2.3044,-0.736614,0.115391,0,0,3.63894,4
1777151636673,-0.441425,1.38827,0.50101,-2.39283,-0.549097,0.0821483,0,0,3.60005,4
1777151636687,-0.384296,1.55691,0.448341,-2.44255,-0.425105,0.00972306,0,0,3.73698,4
1777151636701,-0.34157,1.71119,0.419964,-2.41191,-0.343917,-0.0651662,0,0,3.63498,1
1777151636714,-0.284111,1.84876,0.332853,-2.30774,-0.257095,-0.122644,0,0,3.6034,1
1777151636728,-0.132178,1.92102,0.207633,-2.15571,-0.214401,-0.193051,0,0,3.7507,1
1777151636742,0.0504956,1.89892,0.0376966,-1.96573,-0.280797,-0.30628,0,0,3.519,1
1777151636756,0.210781,1.81433,-0.159547,-1.72526,-0.453496,-0.461531,0,0,3.7882,1
1777151636774,0.584214,1.68346,-0.414749,-1.29863,-0.609382,-0.531022,0,0,3.77805,1
1777151636788,0.789181,1.59448,-0.489114,-0.830574,-1.02168,-0.498592,0,0,3.68633,1
1777151636802,0.53696,1.46237,-0.481099,-0.51422,-1.48832,-0.520032,0,0,3.43457,2
1777151636815,-0.0263224,1.50279,-0.386802,-0.206322,-1.52502,-0.61385,0,0,3.46935,2
1777151636829,-0.16724,1.4504,-0.211092,0.151138,-1.17341,-0.6695,0,0,3.44972,2
1777151636842,0.137218,1.19133,0.00092334,0.418265,-0.925978,-0.585171,0,0,3.49151,2
1777151636856,0.455242,1.12615,0.224293,0.572666,-0.895958,-0.385761,0,0,3.46611,2
1777151636870,0.630454,0.877701,0.615383,0.658581,-0.962099,-0.195517,0,0,3.51322,2
1777151636883,0.203431,1.05334,1.27022,0.689982,-0.933061,-0.115348,0,0,3.50029,2
1777151636897,-0.294104,1.62261,0.598427,1.18409,-0.499347,-0.0507112,0,0,3.55122,2
1777151636911,-0.380582,0.973929,0.206863,1.27224,0.114037,0.148113,0,0,3.71242,2
1777151636925,-0.0284688,0.760824,0.322038,0.90263,0.41754,0.285247,0,0,3.60327,3
1777151636938,0.137021,1.03377,0.362919,0.864205,0.405284,0.310877,0,0,3.57007,3
1777151636952,-0.0247656,0.935377,0.349589,0.967238,0.288555,0.212771,0,0,4.10659,3
1777151636966,-0.0748559,0.781029,0.340828,0.912945,0.108284,0.134677,0,0,3.57455,2
1777151636980,0.0312003,0.795748,0.376583,0.867862,-0.140275,0.200714,0,0,3.54722,2
1777151636994,0.100105,0.872833,0.35465,0.874986,-0.376892,0.353224,0,0,3.56255,5
1777151637011,0.252742,0.884732,0.312492,0.841428,-0.420283,0.470687,0,0,5.64138,5
1777151637025,0.174727,0.929951,0.218628,0.670845,-0.20691,0.445824,0,0,4.32501,5
1777151637042,0.396292,0.912555,0.256457,0.588091,-0.0324205,0.204966,0,0,6.64507,5
1777151637058,0.504033,0.872685,0.303732,0.526099,-0.121554,-0.0427693,0,0,3.59579,5
1777151637072,0.228629,0.933192,0.330538,0.561205,-0.0318514,-0.141028,0,0,3.58264,5
1777151637085,0.229545,0.928995,0.325094,0.631793,0.11262,-0.158132,0,0,3.60159,5
1777151637099,0.238284,0.925822,0.267384,0.649368,0.121852,-0.151125,0,0,3.83859,5
1777151637113,-0.0542537,1.00625,0.113881,0.649004,0.139343,-0.141419,0,0,3.70205,5
1777151637127,-0.166629,0.97867,0.133175,0.594232,0.265809,-0.150308,0,0,3.92909,5
1777151637142,-0.0437022,0.961182,0.164881,0.532502,0.34563,-0.116008,0,0,4.18392,5
1777151637156,0.0731804,0.932872,0.141314,0.478022,0.318231,-0.0575681,0,0,3.91048,5
1777151637170,0.12769,0.946275,0.131079,0.415743,0.227799,-0.0418982,0,0,4.08542,5
1777151637184,0.10931,0.943304,0.11901,0.377093,0.164478,-0.0524724,0,0,3.64174,5
1777151637198,0.0826998,0.945163,0.143435,0.329164,0.130856,-0.0458491,0,0,3.5732,5
1777151637212,0.0997953,0.968939,0.127457,0.301091,0.100888,-0.0238347,0,0,3.52222,5
1777151637226,0.0968548,0.959871,0.132248,0.261636,0.0607566,-0.0186812,0,0,3.58661,5
1777151637239,0.0772006,0.965726,0.134617,0.238829,0.0549107,-0.0124667,0,0,3.48546,5
1777151637253,0.109117,0.960492,0.11005,0.216058,0.0415909,-0.000798897,0,0,3.56818,5
1777151637266,0.0998554,0.974039,0.115221,0.188536,0.00692245,0.00186504,0,0,3.50013,2
1777151637280,0.0695576,0.974757,0.108277,0.167173,-0.000328084,0.00981777,0,0,3.73159,2
1777151637294,0.100697,0.979458,0.110346,0.153115,-0.0139957,0.029415,0,0,3.51066,2
1777151637308,0.106085,0.980143,0.113164,0.139443,-0.0330395,0.0352964,0,0,3.73146,2
1777151637322,0.108647,0.989138,0.118376,0.136626,-0.0451257,0.0355614,0,0,3.74388,2
1777151637335,0.113114,0.978955,0.107471,0.133239,-0.0689909,0.0350965,0,0,3.4834,2
1777151637349,0.0768053,0.989253,0.101312,0.138314,-0.0649439,0.0381742,0,0,3.52711,2
1777151637363,0.102037,0.984952,0.104131,0.144027,-0.057548,0.0382175,0,0,3.46877,2
1777151637378,0.0998941,1.00542,0.114475,0.156116,-0.0576481,0.0357336,0,0,4.96314,2
1777151637391,0.10086,1.00621,0.10903,0.169839,-0.0579694,0.0285573,0,0,3.47951,2
1777151637405,0.076172,1.01243,0.101648,0.184564,-0.0710189,0.0301094,0,0,3.47653,5
1777151637419,0.0897474,1.0189,0.112517,0.195095,-0.0826083,0.0417892,0,0,3.53753,5
1777151637433,0.083025,1.02529,0.0948241,0.204165,-0.108124,0.0463448,0,0,3.79037,5
1777151637446,0.0964233,1.03579,0.0959169,0.209328,-0.132967,0.0432727,0,0,3.53831,5
1777151637460,0.112822,1.05125,0.100573,0.214037,-0.180246,0.0347867,0,0,3.71055,5
1777151637474,0.0695923,1.08653,0.115647,0.231026,-0.198871,0.0317812,0,0,3.53696,5
1777151637488,0.0432608,1.08878,0.11156,0.278797,-0.110355,0.0462963,0,0,3.60757,5
1777151637502,0.187923,1.0789,0.10925,0.322756,-0.0769221,0.020703,0,0,3.5195,5
1777151637515,0.231839,1.08434,0.0998983,0.36507,-0.093827,-0.0388929,0,0,3.55968,5
1777151637530,0.1877,1.13327,0.0977157,0.463181,-0.0963211,-0.114119,0,0,3.60131,5
1777151637544,0.239714,1.02485,0.0642333,0.474378,-0.180071,-0.182199,0,0,3.84188,5
1777151637558,0.12898,1.08415,0.0658724,0.445111,-0.331516,-0.213204,0,0,3.47698,5
1777151637572,0.283393,1.34231,0.0304745,0.538337,-0.436353,-0.188342,0,0,3.50003,3
1777151637585,0.255616,1.23899,0.0967257,0.62103,-0.545843,-0.271693,0,0,3.50011,3
1777151637599,0.24055,1.39446,0.210596,0.728148,-0.626681,-0.257154,0,0,3.55024,3
1777151637613,0.357715,1.42845,0.262481,0.902012,-0.783099,-0.235795,0,0,3.7787,3
1777151637627,0.321094,1.41737,0.277692,1.04815,-0.931541,-0.237026,0,0,3.50622,3
1777151637640,0.354503,1.48102,0.335234,1.20673,-1.07712,-0.196404,0,0,3.44485,3
1777151637654,0.401679,1.58379,0.384881,1.38444,-1.22596,-0.127812,0,0,3.52729,3
1777151637668,0.480106,1.64882,0.514598,1.57428,-1.38438,-0.0255138,0,0,3.55807,3
1777151637682,0.529356,1.60701,0.665287,1.75483,-1.59775,0.0778645,0,0,4.3267,3
1777151637696,0.578817,1.53792,0.719587,1.88833,-1.84852,0.178777,0,0,3.53142,3
1777151637710,0.602684,1.37728,0.79534,1.99004,-2.0967,0.311443,0,0,3.48448,2
1777151637725,0.524609,1.34014,0.667082,2.07753,-2.28811,0.54045,0,0,5.02979,2
1777151637739,0.437892,1.54589,0.481268,2.33943,-2.38741,0.807767,0,0,3.53016,2
1777151637753,0.315612,1.38498,0.369804,2.43947,-2.38066,0.960117,0,0,3.56055,2
1777151637767,0.269795,1.14842,0.21307,2.39356,-2.33874,0.959337,0,0,3.7624,2
1777151637780,0.315972,0.743981,0.0954044,2.11348,-2.41868,0.823449,0,0,3.52961,5
1777151637794,0.409143,0.363313,-0.0421348,1.60322,-2.46979,0.673414,0,0,3.5545,5
1777151637808,0.174907,0.107012,-0.0559447,0.870629,-2.48931,0.61686,0,0,3.56113,5
1777151637821,-0.370004,0.217384,0.203174,0.187006,-2.49677,0.751749,0,0,3.5215,5
1777151637835,-0.986277,0.48651,0.39684,-0.192343,-2.49961,1.1564,0,0,3.88418,5
1777151637849,-1.45599,0.50228,0.354382,-0.249207,-2.36299,1.5645,0,0,3.53251,5
1777151637863,-1.49958,0.247435,0.283103,-0.36217,-1.77731,1.77161,0,0,4.1654,5
1777151637877,-1.25401,0.109942,0.228703,-0.595116,-1.16721,1.78887,0,0,3.53233,5
1777151637891,-0.869853,0.160217,0.170632,-0.804963,-0.770327,1.69418,0,0,4.01701,5
1777151637905,-0.348699,0.121933,0.121477,-1.0283,-0.838156,1.54982,0,0,3.56901,5
1777151637918,-0.0571118,0.123185,0.129164,-1.31686,-1.28607,1.36721,0,0,3.48183,5
1777151637932,-0.220857,0.176731,0.303981,-1.65452,-1.78854,1.11512,0,0,3.44463,5
1777151637946,-0.696724,0.313663,0.481273,-1.9648,-2.05506,0.814496,0,0,3.6302,5
1777151637959,-1.09989,0.492667,0.504567,-2.14743,-1.95385,0.628713,0,0,3.46776,5
1777151637973,-1.29605,0.536545,0.497166,-2.2965,-1.66585,0.597097,0,0,3.70255,5
1777151637987,-1.25158,0.580469,0.491803,-2.42312,-1.36067,0.614035,0,0,3.4819,5
1777151638000,-1.13578,0.752381,0.473687,-2.47148,-1.12276,0.576016,0,0,3.616,5
1777151638015,-0.992383,0.939334,0.458585,-2.48996,-0.928757,0.475394,0,0,4.30872,5
1777151638029,-0.795406,1.0601,0.447598,-2.49701,-0.788462,0.353973,0,0,3.79835,4
1777151638043,-0.5931,1.15692,0.422539,-2.49971,-0.76153,0.222816,0,0,3.50301,4
1777151638056,-0.453978,1.27037,0.450564,-2.50074,-0.83791,0.0841173,0,0,3.62218,4
1777151638070,-0.436679,1.49512,0.473161,-2.50113,-0.927236,-0.0378825,0,0,3.44557,4
1777151638084,-0.473989,1.70057,0.480931,-2.50128,-0.975415,-0.130953,0,0,3.61764,4
1777151638098,-0.443782,1.89286,0.4336,-2.50134,-0.985184,-0.198112,0,0,3.43885,4
1777151638112,-0.436045,2.04961,0.314893,-2.50136,-1.00123,-0.275943,0,0,3.56042,4
1777151638125,-0.461865,2.15388,0.13116,-2.40277,-0.946781,-0.362192,0,0,3.41398,1
1777151638139,-0.284754,2.15118,-0.144196,-2.12907,-0.793884,-0.406506,0,0,3.42887,1
1777151638152,0.0220777,2.02135,-0.340937,-1.79534,-0.698731,-0.415081,0,0,3.39683,1
1777151638166,0.251466,1.94942,-0.424794,-1.46297,-0.806987,-0.442229,0,0,3.37214,1
1777151638179,0.0917045,1.93273,-0.503274,-1.05451,-0.909575,-0.452552,0,0,3.42277,2
1777151638193,-0.174611,1.80683,-0.602539,-0.600745,-0.754669,-0.419837,0,0,3.39472,1
1777151638206,-0.200569,1.62707,-0.632008,-0.20663,-0.446257,-0.375543,0,0,3.42516,1
1777151638220,0.0750025,1.52286,-0.554246,0.125922,-0.225418,-0.325175,0,0,3.5855,1
1777151638233,0.431573,1.36928,-0.380381,0.400849,-0.195131,-0.280318,0,0,3.4855,2
1777151638247,0.687567,1.17433,-0.206873,0.568326,-0.359537,-0.265874,0,0,3.46218,3
1777151638261,0.752254,1.01208,-0.0291741,0.622011,-0.620011,-0.263517,0,0,3.49985,3
1777151638274,0.674073,0.750257,0.36824,0.565381,-0.854432,-0.249172,0,0,3.53835,3
1777151638288,0.529378,0.656047,1.26285,0.457792,-1.00795,-0.258034,0,0,3.48814,3
1777151638302,0.201027,1.21973,1.1447,0.701416,-1.03771,-0.216789,0,0,3.62518,3
1777151638315,-0.0339629,1.45283,0.22526,1.1803,-0.946845,-0.101819,0,0,3.44542,3
1777151638329,-0.246186,0.917791,0.00314046,0.911245,-0.678794,-0.111263,0,0,3.42859,3
1777151638342,-0.204404,0.943241,0.25878,0.614385,-0.33646,-0.122418,0,0,3.61653,2
1777151638356,-0.106521,1.06136,0.375999,0.727733,-0.05723,-0.0128857,0,0,3.60485,2
1777151638370,-0.123687,0.860488,0.315556,0.825802,0.140716,0.126139,0,0,3.50029,2
1777151638383,0.033362,0.790862,0.254877,0.741777,0.303604,0.278835,0,0,3.56109,2
1777151638397,0.284567,0.886492,0.219618,0.623205,0.325815,0.329186,0,0,3.52461,2
1777151638411,0.260464,0.989786,0.208599,0.571168,0.226968,0.245052,0,0,3.62296,6
1777151638424,0.0725822,1.04539,0.223098,0.564077,0.23323,0.167247,0,0,3.52414,6
1777151638438,0.14008,0.985471,0.220812,0.574531,0.284828,0.124648,0,0,3.57159,6
1777151638452,0.358651,0.871985,0.176038,0.51139,0.174467,0.0536029,0,0,3.52126,6
1777151638465,0.362453,0.878499,0.195731,0.411032,-0.0500785,-0.00113311,0,0,3.4884,6
1777151638479,0.214512,0.951288,0.201076,0.379068,-0.207086,-0.00491474,0,0,3.52364,6
1777151638493,0.0700418,0.936309,0.178626,0.332183,-0.276257,0.00953985,0,0,3.51507,6
1777151638506,0.0573121,0.939435,0.195239,0.267238,-0.287487,0.0549266,0,0,3.49266,6
1777151638520,0.0570223,0.984147,0.216645,0.247715,-0.265215,0.113591,0,0,3.55353,6
1777151638533,0.0776234,0.977183,0.22188,0.243607,-0.205001,0.116986,0,0,3.54065,5
1777151638547,0.107267,0.968153,0.205851,0.235386,-0.126142,0.0777093,0,0,3.712,5
1777151638561,0.158694,0.945049,0.182149,0.236917,-0.0400201,0.0440245,0,0,3.54726,5
1777151638575,0.216637,0.939433,0.176175,0.238539,-0.0066999,0.0378573,0,0,3.53624,5
1777151638588,0.227672,0.958982,0.174915,0.234347,-0.0263369,0.0147905,0,0,3.53418,5
1777151638602,0.218311,0.954514,0.174012,0.215006,-0.0566718,-0.0246861,0,0,3.48948,5
1777151638615,0.22639,0.947943,0.160312,0.187757,-0.110059,-0.0420294,0,0,3.50827,5
1777151638629,0.242235,0.945,0.154743,0.161827,-0.197491,-0.0426623,0,0,3.45148,5
1777151638643,0.210251,0.961933,0.160732,0.144752,-0.274951,-0.0546986,0,0,3.52679,5
1777151638656,0.164195,0.980131,0.167295,0.132474,-0.296424,-0.0817057,0,0,3.45213,3
1777151638670,0.143245,0.978705,0.155501,0.125189,-0.262401,-0.0995699,0,0,3.51364,3
1777151638683,0.13435,0.980563,0.152367,0.124011,-0.215013,-0.102336,0,0,3.4854,3
1777151638697,0.132811,0.999041,0.146226,0.128373,-0.175776,-0.0957027,0,0,3.72431,3
1777151638711,0.14705,0.987109,0.153851,0.13287,-0.152344,-0.0916593,0,0,3.4937,3
1777151638725,0.162891,0.99701,0.156471,0.138739,-0.148489,-0.0931814,0,0,3.66679,3
1777151638738,0.190009,0.99672,0.161453,0.146454,-0.163907,-0.108813,0,0,3.52844,3
1777151638752,0.210989,0.990997,0.148157,0.151995,-0.21235,-0.142288,0,0,3.45237,3
1777151638766,0.204663,0.995943,0.151327,0.166378,-0.263454,-0.175644,0,0,3.52111,3
1777151638779,0.182263,1.01691,0.128011,0.191026,-0.300996,-0.167155,0,0,3.43422,3
1777151638793,0.162637,1.01488,0.139876,0.211858,-0.320761,-0.163393,0,0,3.49464,3
1777151638806,0.143903,1.02664,0.134589,0.233072,-0.323169,-0.195076,0,0,3.48763,3
1777151638820,0.130753,1.03606,0.136696,0.262688,-0.323333,-0.21883,0,0,3.45916,3
1777151638833,0.0829798,1.02419,0.103931,0.302166,-0.287116,-0.206391,0,0,3.4864,3
1777151638847,0.0568411,1.00828,0.0973584,0.34291,-0.207941,-0.200459,0,0,3.48244,3
1777151638861,0.0841873,1.03694,0.0987192,0.395555,-0.13387,-0.201874,0,0,3.5007,3
1777151638874,0.168648,1.13755,0.100482,0.526485,-0.111805,-0.22171,0,0,3.43977,3
1777151638888,0.202457,1.01944,0.0957513,0.565834,-0.106113,-0.255046,0,0,3.53646,3
1777151638901,0.327904,1.0195,0.225679,0.566191,-0.231603,-0.209656,0,0,3.43439,3
1777151638915,0.157036,1.12796,0.0997942,0.552316,-0.245945,-0.305168,0,0,3.44109,3
1777151638928,-0.0285877,1.23141,0.120363,0.642316,-0.228165,-0.319808,0,0,3.5097,3
1777151638942,-0.160519,1.21124,0.109104,0.705236,-0.196793,-0.278127,0,0,3.64416,3
1777151638956,-0.155472,1.21997,0.127333,0.743139,-0.127914,-0.229795,0,0,3.48431,3
1777151638969,-0.135305,1.27295,0.124758,0.808239,-0.0578225,-0.18831,0,0,3.41987,3
1777151638983,-0.101166,1.27792,0.129392,0.89071,-0.00227138,-0.164303,0,0,3.56568,3
1777151638997,-0.065675,1.25733,0.126414,0.95566,0.0382903,-0.151736,0,0,3.47105,3
1777151639010,-0.0146833,1.25898,0.132905,1.01448,0.0419417,-0.139954,0,0,3.53259,3
1777151639024,-0.103232,1.32723,0.181681,1.08371,0.0147937,-0.122149,0,0,3.50479,6
1777151639038,0.0379598,1.46972,0.231486,1.20705,0.0251353,-0.0917591,0,0,3.53864,6
1777151639052,0.205421,1.5179,0.327977,1.38985,-0.108816,-0.0694417,0,0,3.94816,6
1777151639065,0.413788,1.5301,0.436185,1.54983,-0.379454,-0.0599265,0,0,3.47779,6
1777151639079,0.544266,1.60687,0.555614,1.74912,-0.722352,-0.00307507,0,0,3.64416,6
1777151639093,0.430809,1.58489,0.739911,1.98758,-1.05459,0.081057,0,0,3.45448,6
1777151639106,0.178074,1.54355,0.878534,2.20345,-1.1972,0.12494,0,0,3.45409,6
1777151639120,-0.0608868,1.47379,0.980106,2.38753,-1.06688,0.0753692,0,0,3.65524,6
1777151639134,-0.267103,1.2669,0.801387,2.45784,-0.643167,-0.0630202,0,0,3.47579,2
1777151639147,-0.30451,1.31521,0.334608,2.4847,-0.00963552,-0.245337,0,0,3.55231,2
1777151639161,-0.259599,1.58952,-0.178539,2.49496,0.826136,-0.408578,0,0,3.51646,2
1777151639174,0.0968935,1.52054,-0.00929277,2.49888,1.4961,-0.517447,0,0,3.39294,2
1777151639188,0.740758,0.889421,0.156935,2.39191,1.49898,-0.531244,0,0,3.59309,6
1777151639202,1.19121,0.427014,-0.00693235,1.93055,0.895117,-0.473201,0,0,3.54287,6
1777151639216,1.1632,0.305654,-0.083519,1.3427,0.110307,-0.433716,0,0,3.5932,6
1777151639229,0.675894,0.203679,0.130394,0.629019,-0.460361,-0.537382,0,0,3.49529,6
1777151639243,0.00465726,0.344356,0.32772,0.0739609,-0.534066,-0.773617,0,0,3.47379,6
1777151639257,-0.423481,0.441788,0.309949,-0.13508,-0.135068,-0.944573,0,0,3.51661,6
1777151639270,-0.432987,0.27912,0.148773,-0.235874,0.36419,-0.914666,0,0,3.41311,6
1777151639284,-0.227448,-0.0624658,0.0649401,-0.591175,0.721051,-0.766191,0,0,3.66574,6
1777151639297,-0.0528492,-0.194271,0.0510344,-1.18678,0.904208,-0.664423,0,0,3.47105,6
1777151639311,0.088116,-0.199778,0.234298,-1.83789,0.947511,-0.652584,0,0,3.64088,6
1777151639325,0.325535,-0.070597,0.475067,-2.24795,0.885736,-0.650798,0,0,3.51031,2
1777151639338,0.47298,0.243488,0.52641,-2.40457,0.755612,-0.602844,0,0,3.38844,2
1777151639352,0.444782,0.485807,0.498402,-2.4644,0.694398,-0.531074,0,0,3.54651,2
1777151639366,0.456068,0.639961,0.386412,-2.48725,0.73598,-0.51253,0,0,3.45716,6
1777151639379,0.627905,0.707627,0.310299,-2.49598,0.751722,-0.545029,0,0,3.55435,6
1777151639393,0.844302,0.957211,0.31295,-2.49931,0.645356,-0.514558,0,0,3.42651,2
1777151639407,0.89525,1.19913,0.209339,-2.50059,0.539103,-0.329916,0,0,3.75722,2
1777151639420,0.827051,1.25879,0.0937065,-2.50107,0.542158,-0.0545418,0,0,3.45855,2
1777151639434,0.76106,1.42385,0.0826438,-2.50126,0.65877,0.251762,0,0,3.6779,2
1777151639448,0.71482,1.6715,0.0873606,-2.50133,0.835599,0.571013,0,0,3.53179,2
1777151639461,0.693314,1.81844,0.0632179,-2.50136,1.00929,0.853645,0,0,3.41679,2
1777151639475,0.715364,1.86027,0.0453478,-2.50137,1.1648,1.0477,0,0,3.60385,2
1777151639489,0.775439,1.8696,0.0386023,-2.50137,1.22888,1.1514,0,0,3.47429,2
1777151639502,0.826563,1.89247,-0.00578549,-2.50137,1.15177,1.14204,0,0,3.61122,2
1777151639516,0.797988,1.89867,-0.0811631,-2.50137,0.971023,1.0193,0,0,3.4789,2
1777151639530,0.700052,1.89586,-0.147477,-2.50137,0.730348,0.811157,0,0,3.61277,2
1777151639543,0.588565,1.97939,-0.206404,-2.50137,0.49311,0.59163,0,0,3.50846,2
1777151639557,0.544236,2.0235,-0.313447,-2.29002,0.276527,0.466214,0,0,3.59724,2
1777151639571,0.595692,1.99084,-0.500213,-2.00024,-0.0238801,0.413308,0,0,3.51794,2
1777151639585,0.481798,1.95748,-0.632347,-1.70641,-0.413297,0.364368,0,0,3.54548,2
1777151639598,0.0661811,2.01065,-0.73779,-1.31714,-0.631487,0.326379,0,0,3.50185,2
1777151639612,-0.480495,1.97247,-0.810967,-0.849014,-0.545978,0.319842,0,0,3.56664,2
1777151639626,-0.858605,1.89876,-0.852733,-0.373454,-0.172689,0.340651,0,0,3.55502,2
1777151639639,-0.808964,1.77305,-0.825119,0.0671545,0.279005,0.375349,0,0,3.55922,2
1777151639653,-0.527435,1.61935,-0.678986,0.38897,0.560613,0.383083,0,0,3.5964,2
1777151639667,-0.276557,1.54189,-0.477153,0.655597,0.638078,0.334188,0,0,3.67205,2
1777151639681,-0.174281,1.37674,-0.284709,0.874017,0.607515,0.230733,0,0,3.58085,2
1777151639694,-0.153279,1.2994,0.0230857,1.08525,0.534462,0.115401,0,0,3.75881,2
1777151639708,0.50792,1.05532,2.04392,1.20038,0.396303,0.196984,0,0,3.56859,2
1777151639722,0.542945,2.32602,0.822142,1.96004,-0.0672493,0.306744,0,0,3.75303,5
1777151639736,-0.0575072,1.22286,-0.222261,2.17411,-0.410802,0.066072,0,0,3.48253,2
1777151639749,-0.333562,0.442793,0.13805,1.17554,-0.29656,-0.227119,0,0,3.49155,5
1777151639763,-0.215973,1.05772,0.236149,0.930566,-0.08077,-0.175494,0,0,3.6787,5
1777151639777,-0.169183,1.10169,0.341067,1.23173,0.122242,0.181643,0,0,3.62133,5
1777151639791,-0.00164567,0.722978,0.216071,1.18971,0.328818,0.472755,0,0,3.5629,5
1777151639804,0.375777,0.835172,0.0561404,0.912152,0.259111,0.440292,0,0,3.54855,5
1777151639818,0.353562,0.927409,0.212764,0.635537,0.118645,0.242105,0,0,3.55392,5
1777151639832,0.186817,0.97713,0.216161,0.580927,0.143307,0.114933,0,0,3.56674,5
1777151639845,0.248535,0.880061,0.233313,0.512087,0.182639,0.079284,0,0,3.52272,5
1777151639859,0.388429,0.843187,0.255555,0.415167,0.108401,0.0287741,0,0,3.72409,5
1777151639873,0.242243,0.914923,0.23755,0.392725,0.0531527,-0.0492086,0,0,3.52181,5
1777151639887,0.204459,0.916326,0.213213,0.365517,0.0116689,-0.0944226,0,0,3.60905,5
1777151639900,0.202395,0.907672,0.219948,0.299172,-0.101599,-0.0834331,0,0,3.473,5
1777151639914,0.0911405,0.964155,0.226089,0.265527,-0.138212,-0.0258298,0,0,3.56463,5
1777151639927,0.0877778,0.977535,0.241476,0.268622,-0.109453,-0.00576161,0,0,3.46966,5
1777151639941,0.156891,0.959824,0.249077,0.277588,-0.0802104,-0.0474918,0,0,3.55011,5
1777151639955,0.189733,0.947003,0.245895,0.29059,-0.0730037,-0.104052,0,0,3.44818,5
1777151639968,0.223647,0.944201,0.249838,0.305841,-0.0341124,-0.123202,0,0,3.67461,5
1777151639982,0.231915,0.948266,0.249948,0.355212,0.0298552,-0.131555,0,0,3.56322,5
1777151639996,0.215538,0.932191,0.197999,0.384308,0.0794346,-0.167723,0,0,3.73242,5
1777151640010,0.150335,0.942082,0.142703,0.374191,0.105119,-0.193852,0,0,3.54001,5
1777151640023,0.113454,0.950895,0.137155,0.345087,0.0864807,-0.188971,0,0,3.55455,5
1777151640037,0.0517504,0.953235,0.134873,0.30722,0.0579428,-0.168518,0,0,3.58457,5
1777151640051,0.0259288,0.98296,0.141091,0.277706,0.0365215,-0.134522,0,0,3.48425,5
1777151640065,0.0495693,0.985906,0.149053,0.24893,-0.0068556,-0.105638,0,0,3.69401,5
1777151640078,0.0722444,0.992483,0.156748,0.23473,-0.0380494,-0.0889436,0,0,3.52337,5
1777151640092,0.0888143,1.00172,0.150616,0.241384,-0.0571355,-0.0942199,0,0,3.67472,5
1777151640106,0.103088,1.00403,0.145496,0.246332,-0.0761259,-0.109257,0,0,3.50466,5
1777151640119,0.0790414,1.0109,0.148484,0.247655,-0.097533,-0.105517,0,0,3.47946,5
1777151640133,0.0383556,1.03976,0.140506,0.252596,-0.112975,-0.0845571,0,0,3.51105,5
1777151640147,0.0360205,1.06164,0.143732,0.271608,-0.109202,-0.0623504,0,0,3.46957,5
1777151640160,0.0456989,1.09004,0.146592,0.318547,-0.114885,-0.0533021,0,0,3.48927,5
1777151640174,0.0595753,1.12931,0.150658,0.415547,-0.103421,-0.0600364,0,0,3.42513,5
1777151640187,0.115861,1.01695,0.134749,0.445851,-0.101543,-0.0842635,0,0,3.50679,5
1777151640201,0.161626,1.07814,0.134926,0.453369,-0.127622,-0.0920549,0,0,3.42831,5
1777151640215,0.147219,1.15462,0.144088,0.519978,-0.151596,-0.109279,0,0,3.54983,5
1777151640229,0.132152,1.14894,0.158626,0.592316,-0.154903,-0.130955,0,0,3.95998,5
1777151640243,0.00777142,1.14164,0.142115,0.644526,-0.100543,-0.14315,0,0,3.6482,5
1777151640256,-0.0443506,1.27903,0.0740548,0.713959,-0.0525102,-0.166302,0,0,3.47444,2
1777151640270,0.216011,1.24312,0.188233,0.820069,-0.0258129,-0.109992,0,0,3.4704,2
1777151640283,0.097841,1.26169,0.222172,0.872253,-0.0334015,-0.114668,0,0,3.48937,2
1777151640297,0.0818224,1.34846,0.201475,0.970831,-0.0332808,-0.139476,0,0,3.42488,2
1777151640311,0.0668985,1.33749,0.21203,1.08689,-0.0809317,-0.14565,0,0,3.52127,2
1777151640324,-0.00710729,1.32617,0.232977,1.1643,-0.112862,-0.14848,0,0,3.43588,2
1777151640338,-0.133904,1.40713,0.304286,1.22797,-0.0641036,-0.131067,0,0,3.4424,2
1777151640351,0.0352056,1.56398,0.336014,1.38307,-0.0164651,-0.103799,0,0,3.43924,2
1777151640365,0.140465,1.55006,0.404833,1.58734,-0.0754051,-0.0846557,0,0,3.68501,2
1777151640379,0.242059,1.49873,0.50463,1.75232,-0.17614,-0.0664454,0,0,3.63714,2
1777151640392,0.461341,1.54975,0.621849,1.94568,-0.352519,-0.014293,0,0,3.51564,2
1777151640406,0.665859,1.58207,0.827287,2.18136,-0.637003,0.0765834,0,0,3.65957,2
1777151640420,0.804204,1.54695,1.04092,2.37909,-0.93386,0.202632,0,0,3.49403,2
1777151640434,0.656029,1.47885,1.02758,2.45462,-1.28998,0.195391,0,0,3.646,2
1777151640447,0.470426,1.24089,0.972951,2.48347,-1.46422,-0.0402461,0,0,3.45268,2
1777151640461,0.166986,1.15883,0.680215,2.49449,-1.39703,-0.348592,0,0,3.46194,2
1777151640474,-0.0861435,1.65772,0.0823692,2.4987,-1.05371,-0.582522,0,0,3.47351,2
1777151640488,-0.0909705,2.09362,-0.119009,2.5003,-0.542081,-0.71377,0,0,3.66277,2
1777151640502,0.0334632,1.29375,0.0661577,2.50092,-0.0986411,-0.769516,0,0,3.53646,2
1777151640516,0.211921,0.454848,-0.015789,2.38736,0.216943,-0.705983,0,0,3.55505,2
1777151640529,0.444521,0.120417,-0.203583,1.78487,0.182222,-0.575093,0,0,3.56966,2
1777151640543,0.18911,0.100016,-0.224298,1.13958,-0.00272149,-0.460652,0,0,3.45338,2
1777151640557,-0.229015,0.0129895,-0.186763,0.417541,0.0370333,-0.365421,0,0,3.6057,2
1777151640570,-0.515087,0.0346433,-0.1717,-0.247378,0.363075,-0.259128,0,0,3.48698,2
1777151640586,-0.523564,0.0815121,-0.112881,-0.763288,0.795214,-0.075389,0,0,5.96581,6
1777151640600,-0.315707,-0.0249189,-0.0216005,-1.27404,1.11799,0.0763641,0,0,3.48888,6
1777151640614,-0.153606,-0.129373,0.0842679,-1.76743,1.28105,0.119751,0,0,3.70913,6
1777151640628,0.0308505,-0.0618411,0.261385,-2.18244,1.21039,0.0738588,0,0,3.50394,6
1777151640641,0.334915,-0.0348058,0.599675,-2.37955,0.86589,-0.00278449,0,0,3.73194,6
1777151640655,0.617383,0.0829973,0.507747,-2.45484,0.249311,-0.060744,0,0,3.49268,6
1777151640669,0.445073,0.0672767,0.471204,-2.4836,-0.294369,-0.0122568,0,0,3.48268,2
1777151640682,0.0290301,0.194495,0.43527,-2.49459,-0.493025,0.106753,0,0,3.49496,6
1777151640696,-0.237167,0.413416,0.465423,-2.49878,-0.420247,0.174809,0,0,3.43851,6
1777151640709,-0.140411,0.616825,0.494996,-2.50038,-0.285778,0.168346,0,0,3.42398,5
1777151640723,0.029469,0.783123,0.480509,-2.501,-0.264657,0.138325,0,0,3.48935,5
1777151640737,0.00749902,1.03002,0.463926,-2.50123,-0.314618,0.141625,0,0,3.46053,5
1777151640750,-0.187974,1.27323,0.335415,-2.50132,-0.205755,0.249508,0,0,3.54518,5
1777151640764,-0.22573,1.34572,0.251336,-2.50135,0.00821653,0.455745,0,0,3.60503,5
1777151640778,-0.142027,1.59437,0.228411,-2.50137,0.201853,0.687896,0,0,3.70918,5
1777151640791,-0.105151,2.00966,0.186266,-2.50137,0.369747,0.866445,0,0,3.53003,5
1777151640805,-0.04229,2.24316,0.0698897,-2.50137,0.511249,0.911338,0,0,3.63483,5
1777151640819,0.0444973,2.39845,-0.116404,-2.50137,0.523027,0.778554,0,0,3.45809,5
1777151640832,-0.0944466,2.6486,-0.282159,-2.50137,0.530497,0.549029,0,0,3.43757,5
1777151640846,-0.259529,2.91205,-0.509346,-2.49166,0.665308,0.338035,0,0,3.61538,5
1777151640860,-0.0532424,2.78461,-0.790909,-2.09283,0.752374,0.180967,0,0,3.48353,5
1777151640873,0.351056,2.61247,-1.05703,-1.61236,0.585877,0.0644525,0,0,3.53094,5
1777151640887,0.507021,2.44763,-1.20957,-1.13299,0.24176,-0.0411477,0,0,3.50389,5
1777151640901,0.447958,2.34408,-1.37771,-0.605671,-0.116844,-0.173622,0,0,3.50442,5
1777151640914,0.250644,2.11986,-1.38945,-0.114344,-0.401439,-0.298529,0,0,3.45455,5
1777151640928,-0.0583875,1.96441,-1.1545,0.359509,-0.428856,-0.322791,0,0,3.44238,5
1777151640941,-0.0495874,1.86405,-0.677066,0.828292,-0.258165,-0.26917,0,0,3.52214,5
1777151640955,1.529,1.00115,1.22504,1.03217,-0.317281,0.012348,0,0,3.47538,5
1777151640969,1.06366,1.20384,1.6787,0.930149,-1.04881,0.126766,0,0,3.5184,5
1777151640982,0.0803042,1.57701,0.0714989,1.90117,-1.28643,-0.0591929,0,0,3.49837,5
1777151640996,-1.20191,0.536922,-0.205451,1.07709,-0.415131,-0.0575687,0,0,3.557,5
1777151641010,-0.419161,0.819155,0.305373,0.431417,0.440172,0.0616576,0,0,3.5357,5
1777151641023,0.28178,1.33432,0.477251,0.89468,0.386566,0.211132,0,0,3.41059,5
1777151641037,0.134904,0.883617,0.378941,1.03865,-0.0188368,0.237512,0,0,3.54451,5
1777151641051,-0.0562403,0.726456,0.298789,0.882194,-0.282621,0.197486,0,0,3.49957,5
1777151641064,-0.0190963,0.925526,0.389374,0.807995,-0.350872,0.270892,0,0,3.65064,5
1777151641078,0.178778,0.980829,0.35976,0.871556,-0.20125,0.467829,0,0,3.56583,5
1777151641092,0.182871,0.954096,0.0985842,0.795393,-0.0349293,0.579473,0,0,3.6485,5
1777151641106,0.23071,0.865693,0.215996,0.598912,0.149847,0.392124,0,0,3.64614,5
1777151641119,0.382029,0.915545,0.228128,0.551227,0.225946,0.10043,0,0,3.51455,5
1777151641133,0.455901,0.860403,0.227563,0.520322,0.16929,-0.0273113,0,0,3.87214,5
1777151641147,0.375711,0.828913,0.253704,0.454545,0.0464994,-0.0563363,0,0,3.51311,5
1777151641161,0.257023,0.925559,0.274536,0.413805,-0.0677728,-0.0758678,0,0,3.43559,5
1777151641174,0.106075,0.968589,0.219986,0.410227,-0.153551,-0.0728546,0,0,3.52533,5
1777151641188,0.0069932,0.947673,0.24216,0.37692,-0.169378,-0.0334422,0,0,3.49705,5
1777151641202,0.0510898,0.975375,0.228769,0.344761,-0.126123,0.0312906,0,0,3.61048,5
1777151641215,0.100878,0.976843,0.223465,0.33979,-0.0915785,0.0527139,0,0,3.52018,5
1777151641229,0.162101,0.966719,0.209175,0.339023,-0.0343194,0.0119259,0,0,3.72561,5
1777151641243,0.21078,0.958494,0.195636,0.353875,0.011471,-0.0457366,0,0,3.55137,5
1777151641256,0.227277,0.95386,0.195085,0.35148,0.0254702,-0.0787543,0,0,3.75477,5
1777151641270,0.211892,0.963129,0.183816,0.349386,0.014305,-0.0869311,0,0,3.55988,5
1777151641284,0.192372,0.960319,0.164627,0.333347,-0.0225598,-0.0864689,0,0,3.55642,5
1777151641298,0.181453,0.960904,0.149675,0.300377,-0.0868857,-0.0823294,0,0,3.63696,5
1777151641311,0.170653,0.981952,0.151816,0.272875,-0.148491,-0.0747094,0,0,3.48205,5
1777151641325,0.173634,0.978463,0.148201,0.252557,-0.203678,-0.0794417,0,0,3.67653,5
1777151641339,0.166316,0.984955,0.141573,0.230218,-0.234524,-0.0990826,0,0,3.54157,3
1777151641353,0.173066,1.00774,0.152188,0.235131,-0.245457,-0.0983286,0,0,3.52501,3
1777151641366,0.21762,1.01242,0.159412,0.248944,-0.26072,-0.0837928,0,0,3.53422,6
1777151641380,0.247027,1.04026,0.168857,0.270921,-0.321418,-0.0814959,0,0,3.68007,5
1777151641394,0.238448,1.04474,0.151534,0.287525,-0.403858,-0.104632,0,0,3.52948,2
1777151641407,0.189331,1.03261,0.135859,0.287922,-0.467523,-0.155836,0,0,3.53196,2
1777151641421,0.123854,1.03533,0.134621,0.292179,-0.504107,-0.191198,0,0,3.67205,3
1777151641435,0.129598,1.06369,0.146639,0.332113,-0.493077,-0.163377,0,0,3.52146,3
1777151641449,0.160584,1.06636,0.126999,0.397234,-0.496365,-0.139352,0,0,3.72429,3
1777151641462,0.435778,1.25148,0.161072,0.528872,-0.533287,-0.0860166,0,0,3.52813,3
1777151641476,0.282979,1.00794,0.155153,0.605762,-0.656608,-0.125466,0,0,3.68464,3
1777151641490,0.174361,1.05272,0.111528,0.581631,-0.615631,-0.239609,0,0,3.51427,3
1777151641504,0.0872489,1.20454,0.146821,0.687717,-0.518361,-0.247116,0,0,3.51129,3
1777151641517,0.0388453,1.1905,0.159009,0.788957,-0.42648,-0.235122,0,0,3.7004,3
1777151641531,0.0297215,1.24111,0.171707,0.85584,-0.331327,-0.254791,0,0,3.53007,3
1777151641545,0.00443475,1.32975,0.174801,0.958853,-0.270166,-0.258624,0,0,3.60807,3
1777151641558,-0.0742312,1.32401,0.192849,1.06991,-0.20392,-0.23046,0,0,3.51948,3
1777151641572,-0.096076,1.34286,0.207433,1.16777,-0.131815,-0.198661,0,0,3.68364,3
1777151641586,-0.0883732,1.37889,0.230007,1.28242,-0.0983762,-0.160472,0,0,3.53618,3
1777151641600,-0.050465,1.41383,0.251842,1.41071,-0.126696,-0.111917,0,0,3.58996,3
1777151641614,-0.121868,1.5322,0.365819,1.54421,-0.188324,-0.0658186,0,0,3.73455,3
1777151641627,0.175663,1.7577,0.555314,1.77745,-0.213279,0.0172727,0,0,3.6042,3
1777151641641,0.54758,1.69569,0.705379,2.03369,-0.508286,0.0550024,0,0,3.60588,2
1777151641655,0.774409,1.59312,0.963937,2.22489,-1.11993,0.0399747,0,0,4.10635,2
1777151641669,0.575084,1.55348,1.14501,2.39572,-1.57354,0.0609374,0,0,3.53953,2
1777151641683,0.240076,1.44437,1.2162,2.46097,-1.55149,0.0281354,0,0,3.4357,2
1777151641696,0.040524,1.23244,1.06877,2.48589,-1.22546,-0.149187,0,0,3.48318,2
1777151641710,-0.118241,1.42315,0.388555,2.49541,-0.761817,-0.403272,0,0,3.41781,2
1777151641724,0.407117,2.27291,-0.196603,2.49905,-0.526738,-0.550757,0,0,3.62185,2
1777151641737,0.538477,1.40013,0.245311,2.50044,-0.491106,-0.546845,0,0,3.44426,2
1777151641751,0.679099,0.929965,0.24518,2.50097,-0.48377,-0.436039,0,0,3.71568,2
1777151641765,0.585132,0.369704,0.186862,2.28057,-0.528005,-0.444337,0,0,3.78711,2
1777151641779,0.464161,-0.0187391,-0.206726,1.74474,-0.539759,-0.693682,0,0,3.55716,2
1777151641793,-0.00671133,-0.238968,-0.185411,0.909401,-0.500325,-0.989667,0,0,3.50476,2
1777151641806,-0.335423,-0.0914894,-0.147757,0.0363617,-0.278057,-1.10673,0,0,3.45468,2
1777151641820,-0.541888,-0.083089,-0.133815,-0.656418,0.118549,-1.00727,0,0,3.68351,2
1777151641834,-0.468287,-0.119456,-0.131645,-1.32818,0.533906,-0.746836,0,0,3.46548,2
1777151641848,-0.251062,-0.189106,-0.0486659,-1.97739,0.803332,-0.518704,0,0,3.73468,2
1777151641861,-0.138426,-0.133881,0.209324,-2.30123,0.962622,-0.392643,0,0,3.51411,2
1777151641875,-0.057802,0.202424,0.464214,-2.42493,1.04026,-0.310005,0,0,3.71009,6
1777151641889,0.193801,0.374745,0.768435,-2.47217,0.991884,-0.249236,0,0,3.51214,6
1777151641903,0.433556,0.373594,0.547334,-2.49022,0.908724,-0.093407,0,0,3.75164,6
1777151641916,0.482586,0.35584,0.313094,-2.49711,0.923147,0.0928822,0,0,3.6502,6
1777151641931,0.492739,0.4531,0.190511,-2.49975,0.937337,0.148328,0,0,3.76566,6
1777151641944,0.744009,0.585064,0.249559,-2.50075,0.7807,0.012356,0,0,3.51959,6
1777151641958,0.996404,0.915111,0.344887,-2.50114,0.394775,-0.146628,0,0,3.48016,6
1777151641972,0.879312,1.25296,0.309018,-2.50128,0.0180783,-0.147533,0,0,3.46785,6
1777151641985,0.570939,1.27463,0.127944,-2.50134,-0.0936786,0.0256432,0,0,3.40703,6
1777151641999,0.363736,1.35329,0.068169,-2.50136,-0.0358764,0.293288,0,0,3.71762,6
1777151642013,0.152842,1.67677,0.0644903,-2.50137,0.152552,0.609992,0,0,3.53298,6
1777151642027,-0.00609775,1.87079,0.00354084,-2.50137,0.471409,0.891367,0,0,3.76261,4
1777151642041,0.0619415,1.8955,-0.0579634,-2.50137,0.773752,1.06914,0,0,3.55779,3
1777151642055,0.228041,1.91206,-0.0693175,-2.50137,0.913109,1.13789,0,0,4.07838,3
1777151642069,0.294088,2.03808,-0.10509,-2.50137,0.906989,1.12749,0,0,3.55824,3
1777151642082,0.196976,2.1553,-0.231334,-2.50137,0.887903,1.05261,0,0,3.49189,3
1777151642096,0.0660528,2.24998,-0.401435,-2.37145,0.941236,0.917343,0,0,3.55764,3
1777151642110,0.0937746,2.25844,-0.587307,-2.10088,0.973591,0.742397,0,0,3.57529,3
1777151642124,0.143921,2.3052,-0.782396,-1.72895,0.941366,0.594805,0,0,3.67765,3
1777151642138,0.133574,2.24608,-0.97598,-1.27306,0.884097,0.503423,0,0,3.5419,3
1777151642152,0.204081,2.14858,-1.13382,-0.809576,0.764186,0.460876,0,0,3.75492,3
1777151642165,0.206744,2.09236,-1.24042,-0.31074,0.584398,0.445049,0,0,3.64677,2
1777151642179,0.0822757,1.99778,-1.23036,0.176973,0.460951,0.390929,0,0,3.80912,2
1777151642193,0.0880699,2.2352,-0.856941,0.687991,0.394833,0.292743,0,0,3.56325,2
1777151642207,0.103345,1.63649,0.168181,1.24089,0.30032,0.166026,0,0,3.87859,2
1777151642221,0.182099,1.83432,2.13069,1.45948,0.134669,0.247034,0,0,3.58577,2
1777151642234,0.282611,1.94187,0.316157,2.10336,-0.141567,0.17692,0,0,3.48246,2
1777151642248,-0.022602,0.122602,-0.235635,1.36695,-0.213725,-0.010408,0,0,3.55129,2
1777151642262,-0.0264797,0.631489,0.250958,0.560014,-0.0696523,-0.0894152,0,0,3.54416,2
1777151642275,-0.118452,1.37291,0.360734,1.05722,-0.0677442,0.0632222,0,0,3.56607,2
1777151642289,-0.146236,0.892563,0.171742,1.40169,0.0779632,0.354632,0,0,3.55672,2
1777151642303,0.357049,0.646559,0.0418714,1.14433,0.0319495,0.499012,0,0,3.77737,5
1777151642317,0.237109,0.921992,0.191118,0.792015,-0.0896069,0.393094,0,0,3.52465,5
1777151642331,-0.0374142,1.03168,0.228895,0.725852,0.179821,0.286635,0,0,4.14562,5
1777151642345,0.362111,0.823284,0.215062,0.627077,0.22343,0.214975,0,0,3.56846,5
1777151642359,0.372176,0.90206,0.214914,0.46409,0.0363716,0.145379,0,0,3.48705,5
1777151642372,0.112017,0.963011,0.207748,0.469441,0.0129963,0.0672773,0,0,3.51001,5
1777151642386,0.0979744,0.894886,0.183256,0.437658,0.0215709,0.0069679,0,0,3.52231,5
1777151642399,0.10107,0.939842,0.159149,0.35744,-0.0797479,0.0368185,0,0,3.52516,5
1777151642413,0.0398174,0.978318,0.184334,0.299247,-0.122883,0.128989,0,0,3.48929,5
1777151642427,0.0401333,0.993352,0.202374,0.285889,-0.0810941,0.155185,0,0,3.74605,5
1777151642441,0.0928814,0.997363,0.210333,0.295884,-0.0165387,0.0881011,0,0,3.58514,5
1777151642455,0.143468,0.967861,0.207101,0.297154,0.0343975,0.0102041,0,0,3.66087,5
1777151642469,0.163393,0.965153,0.200597,0.306178,0.0665916,-0.0271928,0,0,3.8395,5
1777151642483,0.15441,0.973718,0.176981,0.311229,0.0790301,-0.0442607,0,0,4.18557,5
1777151642497,0.147546,0.977302,0.169545,0.29358,0.0848191,-0.0680944,0,0,3.55322,5
1777151642511,0.172653,0.97349,0.170297,0.273911,0.0663191,-0.0887567,0,0,3.64877,5
1777151642525,0.189674,0.969779,0.148686,0.265125,0.00650756,-0.0938183,0,0,3.61577,5
1777151642539,0.183399,0.971896,0.165404,0.259835,-0.072622,-0.101319,0,0,3.47453,5
1777151642553,0.1534,1.00287,0.165322,0.274373,-0.117519,-0.121687,0,0,3.47898,5
1777151642566,0.12636,1.0092,0.147747,0.292004,-0.116033,-0.140034,0,0,3.52429,5
1777151642580,0.111697,1.01339,0.142917,0.31143,-0.089423,-0.142561,0,0,3.50124,5
1777151642594,0.100686,1.0265,0.142191,0.332578,-0.0564718,-0.145743,0,0,3.50501,5
1777151642608,0.109392,1.0375,0.123911,0.357405,-0.0330818,-0.152714,0,0,3.51744,5
1777151642621,0.125274,1.03657,0.106935,0.366793,-0.0358006,-0.155424,0,0,3.52183,5
1777151642635,0.135187,1.07071,0.118523,0.379579,-0.0734493,-0.148156,0,0,3.9487,5
1777151642650,0.0834136,1.07789,0.116127,0.405457,-0.101795,-0.136227,0,0,3.67526,5
1777151642663,0.0703907,1.06977,0.120985,0.405623,-0.132861,-0.125585,0,0,3.49792,5
1777151642677,0.0544444,1.07279,0.106159,0.41163,-0.166665,-0.106612,0,0,3.47476,5
1777151642691,0.0804358,1.1019,0.111651,0.435061,-0.198071,-0.0937975,0,0,3.49513,5
1777151642705,-0.00274981,1.00482,0.0927243,0.469723,-0.20417,-0.107869,0,0,3.46803,5
1777151642718,0.0361992,1.05254,0.0636199,0.488058,-0.180929,-0.102817,0,0,3.48003,5
1777151642732,0.113468,1.0482,0.0597149,0.521245,-0.169126,-0.106454,0,0,3.49224,3
1777151642746,0.150922,1.06386,0.0637557,0.55567,-0.189292,-0.133839,0,0,3.48787,3
1777151642760,0.100895,1.09919,0.0589309,0.598542,-0.205582,-0.17421,0,0,4.00263,3
1777151642774,0.0127758,1.14699,0.0740989,0.647612,-0.183497,-0.202981,0,0,3.48874,3
1777151642787,-0.0303231,1.21204,0.0796435,0.707164,-0.129298,-0.212037,0,0,3.64481,3
1777151642801,-0.00247617,1.26228,0.117188,0.777655,-0.0914232,-0.221016,0,0,3.59179,2
1777151642815,0.0341351,1.28756,0.128777,0.858977,-0.0915815,-0.239825,0,0,3.63213,2
1777151642829,0.0440986,1.28229,0.150883,0.9375,-0.118109,-0.261352,0,0,3.50407,2
1777151642842,-0.00484408,1.34946,0.175714,1.03255,-0.159945,-0.265565,0,0,3.45488,2
1777151642856,0.0360218,1.52753,0.252411,1.16746,-0.107894,-0.24165,0,0,3.6739,2
1777151642870,0.205957,1.46317,0.339514,1.3401,-0.159676,-0.249877,0,0,3.48592,2
1777151642884,0.228207,1.44858,0.410761,1.46454,-0.301458,-0.288498,0,0,3.48013,2
1777151642897,0.387184,1.51192,0.522266,1.63478,-0.441431,-0.270319,0,0,3.46672,2
1777151642911,0.501101,1.48563,0.639611,1.85168,-0.619729,-0.181002,0,0,3.5555,2
1777151642925,0.505652,1.41955,0.713805,2.06969,-0.821961,-0.102728,0,0,3.49505,2
1777151642939,0.447683,1.37891,0.836027,2.25067,-0.940865,-0.0731595,0,0,3.44114,2
1777151642953,0.411309,1.29315,0.834145,2.39363,-0.919808,-0.158675,0,0,3.58542,2
1777151642966,0.327088,1.17598,0.618815,2.46017,-0.876806,-0.363256,0,0,3.47415,2
1777151642980,0.231935,1.32931,0.247696,2.44242,-0.77947,-0.574631,0,0,3.49846,2
1777151642993,-0.029643,1.88345,-0.113307,2.47881,-0.485642,-0.735335,0,0,3.48064,2
1777151643007,-0.0729493,1.59214,-0.043591,2.49271,-0.0112696,-0.939386,0,0,3.77187,2
1777151643021,0.113764,0.706518,-0.08969,2.49802,0.228614,-1.05634,0,0,3.52774,2
1777151643035,0.576825,0.185368,-0.199723,1.89862,-0.0253859,-0.838092,0,0,3.69216,2
1777151643049,0.527543,-0.0404935,-0.275536,1.07791,-0.510965,-0.500862,0,0,3.52507,2
1777151643062,-0.0788546,0.173877,-0.130742,0.256462,-0.701157,-0.297039,0,0,3.44644,2
1777151643076,-0.616579,0.510252,0.0228134,-0.281824,-0.332122,-0.252776,0,0,3.5487,2
1777151643089,-0.819631,0.57035,0.0399577,-0.511492,0.367568,-0.289794,0,0,3.49426,2
1777151643103,-0.685497,0.492348,0.0419995,-0.652388,1.04405,-0.260812,0,0,3.71427,2
1777151643117,-0.353924,0.407806,0.0782511,-0.814998,1.48158,-0.132882,0,0,3.4807,6
1777151643131,-0.0438936,0.352118,0.104489,-0.989157,1.66837,0.00420615,0,0,3.73701,6
1777151643145,0.167816,0.306545,0.0521757,-1.17608,1.71245,0.056522,0,0,3.54992,6
1777151643159,0.284636,0.235918,0.00073582,-1.41821,1.68192,-0.000112476,0,0,3.7535,6
1777151643173,0.444749,0.15673,0.00454128,-1.74079,1.53165,-0.105439,0,0,3.5452,6
1777151643186,0.671611,0.128922,0.0562605,-2.11877,1.18882,-0.16138,0,0,3.45387,6
1777151643200,0.739005,0.248442,0.097907,-2.35523,0.74117,-0.125474,0,0,3.55822,6
1777151643214,0.574449,0.365553,0.128696,-2.44555,0.37944,-0.0341507,0,0,3.4975,6
1777151643228,0.359568,0.531885,0.068742,-2.48005,0.245753,0.066498,0,0,3.72796,6
1777151643241,0.284275,0.665057,0.0827203,-2.49323,0.250737,0.122729,0,0,3.49777,6
1777151643255,0.289674,0.834739,0.0507976,-2.49826,0.267643,0.113541,0,0,3.76233,6
1777151643269,0.323198,0.986207,0.0310855,-2.50019,0.22546,0.106776,0,0,3.55355,6
1777151643283,0.348558,1.13777,0.0206015,-2.50092,0.123294,0.169959,0,0,3.6614,6
1777151643297,0.243316,1.33043,-0.000818628,-2.5012,0.115455,0.308924,0,0,3.86225,2
1777151643311,0.0955378,1.49144,-0.0679755,-2.50131,0.275132,0.470042,0,0,4.2205,2
1777151643325,0.11353,1.57456,-0.110618,-2.50135,0.496245,0.589188,0,0,3.57339,2
1777151643339,0.327258,1.64154,-0.114411,-2.50136,0.578155,0.635075,0,0,3.54368,2
1777151643354,0.522373,1.8073,-0.0560316,-2.50137,0.456962,0.66001,0,0,3.58457,2
1777151643367,0.479057,2.01429,-0.0965089,-2.50137,0.264513,0.684206,0,0,3.51137,2
1777151643386,0.213471,2.11172,-0.200593,-2.50137,0.2128,0.670567,0,0,8.04881,2
1777151643399,-0.138065,2.19506,-0.30065,-2.38659,0.331327,0.616669,0,0,3.5189,2
1777151643415,-0.283834,2.28744,-0.423084,-2.05185,0.564841,0.538431,0,0,5.02401,2
1777151643428,-0.0993089,2.23805,-0.567456,-1.62893,0.72801,0.474578,0,0,3.50307,2
1777151643442,0.257424,2.12894,-0.74604,-1.17244,0.70098,0.448207,0,0,3.51096,2
1777151643456,0.414137,1.99995,-0.923552,-0.717973,0.475004,0.446484,0,0,3.59098,2
1777151643470,0.134133,1.89982,-1.00652,-0.273958,0.330943,0.441628,0,0,3.56838,2
1777151643483,-0.1838,1.80236,-0.939352,0.141627,0.400184,0.401039,0,0,3.82033,2
1777151643498,-0.260147,1.71173,-0.707809,0.53187,0.58265,0.356474,0,0,4.19449,2
1777151643513,-0.162542,1.62047,-0.339253,0.884834,0.685559,0.326336,0,0,5.13875,2
1777151643527,0.0491652,0.762655,1.92017,0.844906,0.643249,0.314258,0,0,3.74918,2
1777151643541,0.259357,2.05567,0.722709,1.24223,0.494422,0.406502,0,0,3.59059,2
1777151643555,0.290262,1.27425,-0.0243113,1.99627,0.0412321,0.361769,0,0,3.49383,2
1777151643570,0.0571748,0.584326,0.076442,0.990188,-0.288125,0.0795881,0,0,4.90625,2
1777151643584,-0.00560168,1.00444,0.467465,0.703795,-0.367081,-0.112975,0,0,3.48276,2
1777151643597,-0.138883,1.13321,0.399466,1.07001,-0.340201,-0.089906,0,0,3.4709,5
1777151643612,-0.278468,0.761435,0.306223,1.12794,-0.154478,0.133094,0,0,4.87859,5
1777151643626,-0.0447697,0.7161,0.244092,0.892849,-0.0235273,0.407929,0,0,3.52463,5
1777151643640,0.140714,0.921364,0.306705,0.780078,0.0827277,0.607593,0,0,3.56903,5
1777151643654,0.384682,0.975847,0.234479,0.764461,0.113076,0.57247,0,0,4.00138,5
1777151643668,0.480926,0.88776,0.226793,0.622811,-0.0480514,0.26103,0,0,3.52568,5
1777151643682,0.286254,0.918013,0.271668,0.519971,-0.0565683,0.0231817,0,0,4.65303,5
1777151643696,0.22442,0.914175,0.262603,0.541927,0.00297265,0.0236686,0,0,3.67937,5
1777151643710,0.276202,0.866419,0.248925,0.494407,-0.0666596,0.0640503,0,0,3.5079,5
1777151643724,0.203966,0.949718,0.256442,0.43422,-0.137651,0.0491392,0,0,3.597,5
1777151643737,0.135187,0.979179,0.244127,0.426092,-0.16038,0.00471042,0,0,3.45916,5
1777151643751,0.0792748,0.946115,0.266155,0.41709,-0.134528,-0.0336316,0,0,3.77214,5
1777151643765,0.146704,0.962623,0.249075,0.406434,-0.0504885,-0.0502584,0,0,3.5264,5
1777151643778,0.194897,0.954692,0.241921,0.419206,-0.0100852,-0.0873695,0,0,3.75088,5
1777151643792,0.165213,0.946014,0.228361,0.424273,0.0341262,-0.141127,0,0,3.55077,5
1777151643806,0.135957,0.953982,0.191381,0.43003,0.0934267,-0.165105,0,0,3.7355,5
1777151643820,0.100217,0.944626,0.155638,0.413027,0.140893,-0.150627,0,0,3.56011,5
1777151643833,0.093845,0.948734,0.142478,0.370442,0.164166,-0.121225,0,0,3.55894,5
1777151643847,0.122256,0.957837,0.154466,0.327048,0.131728,-0.102493,0,0,3.61357,5
1777151643861,0.135871,0.968052,0.146239,0.291602,0.0653181,-0.0956683,0,0,3.4817,5
1777151643874,0.122374,0.972499,0.14922,0.251076,-0.0101041,-0.0931087,0,0,3.50561,5
1777151643888,0.103626,0.982373,0.149352,0.221585,-0.0465085,-0.0829312,0,0,3.428,5
1777151643901,0.106697,0.983565,0.145752,0.210132,-0.0664997,-0.0750808,0,0,3.52974,5
1777151643915,0.126393,0.983287,0.145917,0.212928,-0.0783817,-0.0768944,0,0,3.49314,5
1777151643929,0.125945,0.978396,0.143984,0.215506,-0.0948563,-0.0941939,0,0,3.48838,5
1777151643942,0.0893787,0.99139,0.142203,0.223615,-0.0761446,-0.095329,0,0,3.46953,5
1777151643956,0.119825,1.0017,0.147258,0.221664,-0.0538532,-0.0900068,0,0,3.41483,5
1777151643969,0.127473,1.01412,0.149879,0.229647,-0.0540666,-0.102363,0,0,3.54246,5
1777151643983,0.106757,1.01332,0.136982,0.240527,-0.0699056,-0.119632,0,0,3.47579,5
1777151643997,0.100089,1.01853,0.130512,0.257469,-0.0878916,-0.119812,0,0,3.60835,5
1777151644010,0.0784072,1.03609,0.138363,0.281443,-0.0991965,-0.117805,0,0,3.46718,5
1777151644024,0.100235,1.06575,0.145029,0.313576,-0.11913,-0.12638,0,0,3.44794,5
1777151644037,0.114711,1.1104,0.167207,0.359063,-0.14203,-0.139563,0,0,3.47676,5
1777151644051,0.12086,1.25076,0.175174,0.462679,-0.136671,-0.154977,0,0,3.558,5
1777151644064,0.131283,1.11167,0.127906,0.577884,-0.129387,-0.206864,0,0,3.48424,5
1777151644078,0.158809,0.994889,0.115671,0.560179,-0.154157,-0.227437,0,0,3.42238,3
1777151644092,0.0921761,1.11673,0.11256,0.552897,-0.162722,-0.188259,0,0,3.49553,3
1777151644105,-0.00294409,1.30677,0.0556016,0.666976,-0.146462,-0.203017,0,0,3.41094,3
1777151644119,0.178348,1.1802,0.0710406,0.69701,-0.106282,-0.211107,0,0,3.39805,3
1777151644132,0.0524413,1.19707,0.124187,0.738582,-0.135472,-0.188155,0,0,3.45644,3
1777151644146,-0.0263297,1.20498,0.103216,0.802488,-0.107463,-0.193636,0,0,3.64002,3
1777151644161,0.0113914,1.19809,0.102923,0.86884,-0.0914807,-0.210826,0,0,5.2599,3
1777151644175,0.0213811,1.19157,0.101669,0.924897,-0.078771,-0.199842,0,0,3.69364,3
1777151644189,0.0378411,1.19593,0.0997757,0.978909,-0.0906174,-0.18673,0,0,3.52468,3
1777151644202,-0.0393071,1.20412,0.112742,1.02964,-0.108399,-0.18375,0,0,3.44792,3
1777151644216,-0.0821855,1.3286,0.140921,1.08803,-0.0368286,-0.176715,0,0,3.49874,3
1777151644230,0.0761897,1.36867,0.194029,1.22847,-0.00298041,-0.16044,0,0,3.49894,3
1777151644243,0.137267,1.3137,0.221057,1.33236,-0.0757271,-0.143137,0,0,3.61657,3
1777151644257,0.185734,1.34782,0.272139,1.42785,-0.177442,-0.115816,0,0,3.46914,3
1777151644270,0.287092,1.40929,0.357784,1.57251,-0.321548,-0.066506,0,0,3.45826,3
1777151644284,0.397032,1.43008,0.443461,1.7441,-0.512559,-0.00747532,0,0,3.50488,3
1777151644298,0.50841,1.44024,0.579313,1.93759,-0.742811,0.0469648,0,0,3.47925,2
1777151644311,0.58267,1.46106,0.747208,2.18162,-0.958282,0.125128,0,0,3.5302,2
1777151644325,0.485553,1.42489,0.77559,2.37919,-1.15343,0.125922,0,0,3.48709,2
1777151644338,0.409758,1.35116,0.641024,2.45466,-1.22722,-0.0676303,0,0,3.49935,2
1777151644352,0.207389,1.29051,0.346893,2.48263,-1.20007,-0.366553,0,0,3.47307,2
1777151644366,0.037949,1.45028,-0.0101882,2.44902,-0.957199,-0.581363,0,0,3.46527,2
1777151644379,0.0322474,1.85153,-0.175457,2.48133,-0.653168,-0.67917,0,0,3.48663,2
1777151644393,0.181233,1.47508,0.214205,2.49367,-0.401119,-0.615096,0,0,3.46468,2
1777151644406,0.316271,0.853267,0.154542,2.49838,-0.254128,-0.4865,0,0,3.51324,2
1777151644420,0.395995,0.106948,-0.155874,1.99165,-0.141557,-0.47885,0,0,3.44759,2
1777151644433,0.255936,-0.195034,-0.469028,1.22375,-0.125403,-0.630814,0,0,3.51161,2
1777151644447,-0.135654,-0.230155,-0.346991,0.281454,-0.038936,-0.685698,0,0,3.48961,2
1777151644461,-0.357226,-0.0689516,-0.205396,-0.531664,0.225642,-0.508938,0,0,3.48507,2
1777151644474,-0.349743,0.116706,-0.169752,-1.09097,0.56783,-0.172223,0,0,3.54229,2
1777151644488,-0.186912,0.0148851,-0.0357675,-1.56461,0.782463,0.102171,0,0,3.49303,2
1777151644501,-0.0568533,-0.0680529,0.0912966,-2.0376,0.845622,0.224059,0,0,3.53611,2
1777151644515,0.0590139,0.0431578,0.394933,-2.32423,0.749914,0.273635,0,0,3.50701,6
1777151644529,0.159055,0.200141,0.567831,-2.43371,0.568945,0.307904,0,0,3.62844,6
1777151644542,0.223209,0.246368,0.376808,-2.47553,0.335121,0.33694,0,0,3.51137,6
1777151644556,0.228629,0.162908,0.281878,-2.4915,0.168012,0.39686,0,0,3.46694,6
1777151644570,0.099088,0.275109,0.234766,-2.4976,0.108853,0.430221,0,0,3.48496,6
1777151644583,0.122454,0.52893,0.317113,-2.49993,0.0682337,0.386209,0,0,3.46774,6
1777151644597,0.330131,0.759632,0.354215,-2.50082,-0.099431,0.353876,0,0,3.48868,6
1777151644610,0.355591,0.907729,0.326424,-2.50116,-0.340533,0.342328,0,0,3.438,6
1777151644624,0.153365,1.1496,0.260693,-2.50129,-0.454563,0.424536,0,0,3.49442,5
1777151644637,-0.0842367,1.41337,0.170333,-2.50134,-0.359746,0.53864,0,0,3.42042,5
1777151644651,-0.269487,1.54181,0.0836346,-2.50136,-0.0803722,0.679741,0,0,3.54998,5
1777151644665,-0.300641,1.6767,0.00953757,-2.50137,0.285064,0.89659,0,0,3.5677,5
1777151644678,-0.180709,1.86001,-0.0146444,-2.50137,0.593876,1.12798,0,0,3.52957,5
1777151644692,-0.0503867,2.02149,-0.0350104,-2.50137,0.856433,1.26473,0,0,3.53609,5
1777151644706,0.115232,2.09334,-0.0667303,-2.50137,1.02329,1.2561,0,0,3.53701,5
1777151644719,0.201653,2.1413,-0.117336,-2.50137,1.08264,1.10089,0,0,3.55888,5
1777151644733,0.205135,2.20276,-0.236766,-2.38197,1.10238,0.819864,0,0,3.59037,5
1777151644747,0.153278,2.19572,-0.307823,-2.06022,1.21263,0.464131,0,0,3.52248,5
1777151644760,0.377468,2.09081,-0.408838,-1.83599,1.14278,0.332121,0,0,3.47846,5
1777151644774,0.45046,1.88967,-0.484066,-1.52252,0.833697,0.412853,0,0,3.53507,5
1777151644788,0.311711,1.76863,-0.535267,-1.20996,0.562119,0.494501,0,0,3.47561,5
1777151644801,0.290393,1.72305,-0.597275,-0.885777,0.343931,0.421188,0,0,3.51244,5
1777151644815,0.182045,1.66749,-0.636273,-0.56182,0.152364,0.265992,0,0,3.52468,5
1777151644829,0.00379926,1.62957,-0.632105,-0.21186,0.0612646,0.152269,0,0,4.37512,5
1777151644843,-0.0636746,1.54154,-0.595997,0.138833,0.0631722,0.0996785,0,0,3.56124,5
1777151644857,-0.0337404,1.45841,-0.485373,0.43003,0.100983,0.0707211,0,0,3.57096,5
1777151644871,-0.0176483,1.38115,-0.33967,0.685387,0.147082,0.0455069,0,0,3.59981,5
1777151644884,-0.0164418,1.23924,-0.182179,0.870534,0.212104,0.0399333,0,0,3.56503,5
1777151644900,0.0966895,0.843078,0.565005,0.882942,0.245197,0.0981452,0,0,3.60764,5
1777151644914,0.366372,0.339915,2.89424,0.584562,0.157253,0.193978,0,0,3.51425,5
1777151644929,0.353515,2.30037,0.240755,1.56088,0.0256724,0.288659,0,0,4.86722,5
1777151644942,-0.0802388,1.35963,-0.558401,1.93776,-0.0205768,0.320626,0,0,3.48713,5
1777151644956,0.0499964,0.509664,0.119747,0.940902,0.0622943,0.196019,0,0,3.5892,5
1777151644970,0.326509,0.9713,0.371311,0.739035,-0.0148918,-0.0297215,0,0,3.47288,5
1777151644983,-0.0331397,1.22618,0.42828,1.07964,-0.113962,-0.142508,0,0,3.73026,5
1777151644997,-0.309163,0.872814,0.335199,1.16974,0.0367676,0.00118989,0,0,3.54713,5
1777151645011,-0.00597679,0.661724,0.112366,0.959769,0.249935,0.331551,0,0,3.56592,5
1777151645025,0.355178,0.853036,0.107192,0.685476,0.174348,0.536006,0,0,3.59596,5
1777151645038,0.272763,1.0219,0.207674,0.549993,-0.03012,0.423926,0,0,3.50285,5
1777151645052,0.0755478,1.04215,0.272632,0.557782,-0.00504142,0.231749,0,0,3.56483,5
1777151645066,0.206428,0.890228,0.257616,0.52292,0.0738425,0.13617,0,0,3.49477,5
1777151645079,0.367922,0.796131,0.25063,0.440535,0.00291782,0.13113,0,0,3.59535,5
1777151645093,0.270078,0.867162,0.239442,0.377599,-0.0749839,0.162843,0,0,3.48937,5
1777151645107,0.20332,0.937375,0.224086,0.342378,-0.111722,0.12891,0,0,3.64348,5
1777151645120,0.128522,0.957161,0.234209,0.320622,-0.119622,0.0569766,0,0,3.48507,5
1777151645134,0.0597462,0.965516,0.2176,0.302357,-0.0829621,0.0433707,0,0,3.7524,5
1777151645148,0.0973735,0.952478,0.230134,0.291936,-0.0234797,0.0623761,0,0,3.56344,5
1777151645162,0.159979,0.951592,0.245096,0.308856,0.0180646,0.0413758,0,0,3.5879,5
1777151645176,0.18874,0.968856,0.247594,0.341172,0.0540782,-0.015758,0,0,4.18214,5
1777151645190,0.205945,0.961334,0.26247,0.377907,0.0658056,-0.0717854,0,0,3.65175,5
1777151645204,0.211814,0.97133,0.259312,0.412084,0.0831646,-0.108802,0,0,3.54237,5
1777151645218,0.19334,0.964283,0.217072,0.436272,0.100269,-0.135632,0,0,3.82129,5
1777151645232,0.194512,0.950094,0.156623,0.418242,0.0782592,-0.157061,0,0,3.53766,5
1777151645245,0.157308,0.949666,0.138987,0.370688,0.0262596,-0.162322,0,0,3.56613,5
1777151645259,0.115202,0.979494,0.131323,0.336861,-0.0172859,-0.136024,0,0,3.5234,5
1777151645272,0.0999928,0.976678,0.133658,0.303229,-0.0660471,-0.106353,0,0,3.47731,5
1777151645286,0.123738,0.979745,0.120171,0.267312,-0.113545,-0.0842158,0,0,3.53907,5
1777151645300,0.131878,0.978249,0.123611,0.243497,-0.15707,-0.077836,0,0,3.47511,5
1777151645313,0.145094,0.992336,0.138128,0.230721,-0.178035,-0.069266,0,0,3.50127,5
1777151645327,0.14256,0.982799,0.12161,0.227633,-0.17991,-0.0607086,0,0,3.45694,5
1777151645341,0.153168,0.973934,0.113645,0.213291,-0.183362,-0.0747544,0,0,3.807,5
1777151645355,0.142179,0.969757,0.118696,0.202246,-0.178831,-0.0876679,0,0,3.495,5
1777151645369,0.133841,0.972385,0.096482,0.198405,-0.165259,-0.0716061,0,0,3.64907,5
1777151645382,0.144898,0.982668,0.0959538,0.188776,-0.163896,-0.0821721,0,0,3.58407,5
1777151645396,0.141504,0.988958,0.0977705,0.184343,-0.171679,-0.112014,0,0,3.52435,5
1777151645410,0.124021,0.986512,0.096203,0.184159,-0.16498,-0.120299,0,0,3.48242,5
1777151645423,0.119056,0.984401,0.0860963,0.185316,-0.1519,-0.115302,0,0,3.43511,5
1777151645437,0.127888,0.983059,0.0818497,0.185333,-0.140111,-0.118913,0,0,3.48052,5
1777151645450,0.132221,0.982792,0.0806484,0.184585,-0.13523,-0.127086,0,0,3.47244,2
1777151645464,0.131463,0.994296,0.0890361,0.187271,-0.130111,-0.130821,0,0,3.48963,2
1777151645477,0.137014,1.00528,0.0814716,0.194006,-0.130703,-0.13272,0,0,3.47774,3
1777151645491,0.127874,1.01445,0.0796989,0.201673,-0.134986,-0.141324,0,0,3.65079,3
1777151645505,0.105562,1.02154,0.0812805,0.207905,-0.135018,-0.147771,0,0,3.47911,3
1777151645518,0.104671,1.0268,0.0688763,0.217645,-0.13102,-0.150187,0,0,3.48627,3
1777151645532,0.123092,1.02154,0.0650491,0.228111,-0.149355,-0.159743,0,0,3.42498,3
1777151645545,0.107168,1.03259,0.0525594,0.252726,-0.174522,-0.172687,0,0,3.4857,3
1777151645559,0.0904536,0.987148,0.0554925,0.24321,-0.172482,-0.178481,0,0,3.41533,3
1777151645573,0.103781,1.00795,0.0423644,0.22929,-0.167315,-0.173994,0,0,3.6305,3
1777151645586,0.148301,1.04113,0.0343309,0.238976,-0.172277,-0.169214,0,0,3.45751,3
1777151645600,0.0796882,1.03145,0.0269439,0.257536,-0.221398,-0.191213,0,0,3.62,3
1777151645614,0.0561127,1.0482,0.0498961,0.265853,-0.18916,-0.23132,0,0,3.46185,3
1777151645627,0.00216863,1.04995,0.0350997,0.29243,-0.157834,-0.226164,0,0,3.43844,3
1777151645641,-0.00244749,1.04571,0.0323236,0.304987,-0.136103,-0.214334,0,0,3.49114,3
1777151645654,0.0192443,1.06488,0.0312645,0.319502,-0.137426,-0.225762,0,0,3.41714,3
1777151645668,-0.0669808,1.11459,0.0721468,0.33368,-0.134393,-0.238241,0,0,3.48281,3
1777151645681,0.0443307,1.27065,0.115106,0.375187,-0.0460969,-0.223571,0,0,3.43435,3
1777151645695,0.16211,1.27403,0.117676,0.493135,-0.0719095,-0.250284,0,0,3.62983,3
1777151645709,0.110953,1.218,0.12496,0.565031,-0.139987,-0.323046,0,0,3.48629,3
1777151645723,0.112697,1.19781,0.111908,0.627405,-0.224491,-0.335647,0,0,3.68714,3
1777151645736,0.0627646,1.19347,0.116813,0.698078,-0.305834,-0.303944,0,0,3.47889,2
1777151645750,0.0349375,1.23942,0.126007,0.781025,-0.374269,-0.301743,0,0,3.45426,2
1777151645764,0.0339269,1.26745,0.142873,0.880409,-0.443861,-0.313357,0,0,3.49401,2
1777151645777,0.0190328,1.25479,0.137872,0.971352,-0.504882,-0.306611,0,0,3.414,2
1777151645791,-0.0254946,1.24773,0.150334,1.06582,-0.530596,-0.273747,0,0,3.43203,2
1777151645804,-0.0472774,1.29182,0.163782,1.16908,-0.513951,-0.228122,0,0,3.44946,2
1777151645818,-0.0577656,1.3426,0.225393,1.30614,-0.472304,-0.170451,0,0,3.63327,2
1777151645831,-0.0906104,1.27219,0.229828,1.44142,-0.384403,-0.116106,0,0,3.42938,2
1777151645845,-0.126844,1.16658,0.193675,1.52933,-0.256518,-0.0869033,0,0,3.5994,2
1777151645859,-0.130726,1.03491,0.135848,1.55975,-0.0890645,-0.0795231,0,0,3.50816,2
1777151645873,-0.103665,0.937401,0.0705475,1.53089,0.103977,-0.069533,0,0,3.76731,2
1777151645886,-0.0411496,0.880517,-0.0016283,1.44716,0.264755,-0.0618013,0,0,3.50955,2
1777151645900,0.0667176,0.906907,-0.102175,1.38225,0.321969,-0.0827203,0,0,3.45046,6
1777151645913,0.143986,0.998179,-0.243475,1.37591,0.304523,-0.125056,0,0,3.51613,6
1777151645927,0.117536,1.06613,-0.436467,1.4225,0.297104,-0.20237,0,0,3.43416,6
1777151645941,0.0871686,1.06052,-0.604378,1.42992,0.317765,-0.317152,0,0,3.51866,6
1777151645954,0.200898,1.01899,-0.628792,1.42709,0.260787,-0.400342,0,0,3.49237,6
1777151645968,0.243631,0.862244,-0.598407,1.335,0.163066,-0.371824,0,0,3.67298,6
1777151645982,0.210866,0.735635,-0.596242,1.11536,0.116541,-0.288984,0,0,3.50126,6
1777151645995,0.185584,0.65995,-0.59836,0.946312,0.117311,-0.251492,0,0,3.49605,6
1777151646009,0.200128,0.460099,-0.618577,0.704727,0.0364109,-0.274772,0,0,3.52088,6
1777151646022,0.32732,0.32872,-0.506051,0.329428,-0.263075,-0.285033,0,0,3.47026,6
1777151646036,0.279689,0.348183,-0.402449,-0.0754788,-0.611378,-0.249181,0,0,3.64053,6
1777151646050,0.00691959,0.436729,-0.276225,-0.261419,-0.772112,-0.214445,0,0,3.44581,6
1777151646063,-0.256701,0.488408,-0.214569,-0.329988,-0.642293,-0.20264,0,0,3.59261,5
1777151646077,-0.314571,0.436172,-0.219557,-0.370522,-0.394512,-0.18676,0,0,3.47568,5
1777151646090,-0.192643,0.329131,-0.259571,-0.488428,-0.250377,-0.122053,0,0,3.48859,5
1777151646104,-0.0805512,0.268849,-0.30523,-0.677546,-0.26944,-0.0215684,0,0,3.49148,5
1777151646118,0.00453378,0.204083,-0.289797,-0.916793,-0.416605,0.0801735,0,0,3.42024,5
1777151646131,0.0517881,0.167342,-0.194105,-1.2243,-0.621286,0.148569,0,0,3.43701,5
1777151646145,0.0415031,0.256505,-0.0942663,-1.50443,-0.81864,0.177194,0,0,3.49701,5
1777151646158,-0.0634582,0.406722,-0.0209064,-1.66922,-0.931293,0.188081,0,0,3.45861,5
1777151646172,-0.196577,0.54166,-0.0166628,-1.72646,-0.937948,0.190446,0,0,3.35994,5
1777151646186,-0.32121,0.616716,-0.0806911,-1.7419,-0.856702,0.190454,0,0,3.6997,5
1777151646200,-0.357189,0.610579,-0.160735,-1.8056,-0.743389,0.197203,0,0,3.63907,5
1777151646213,-0.347248,0.642543,-0.157031,-1.91324,-0.669584,0.220398,0,0,3.54865,5
1777151646227,-0.403814,0.840736,-0.133821,-1.96474,-0.578221,0.276766,0,0,3.58266,5
1777151646241,-0.522679,1.01992,-0.167241,-1.90458,-0.408583,0.332831,0,0,3.5559,5
1777151646255,-0.609282,1.08588,-0.22154,-1.84113,-0.182296,0.362738,0,0,3.46987,5
1777151646269,-0.621431,1.12863,-0.245475,-1.7983,0.0537401,0.385012,0,0,3.60729,5
1777151646282,-0.589912,1.14173,-0.255662,-1.76288,0.291896,0.403003,0,0,3.48968,5
1777151646296,-0.466196,1.10737,-0.199176,-1.75242,0.48708,0.422566,0,0,3.50057,5
1777151646310,-0.327703,1.12827,-0.136294,-1.74941,0.61702,0.439049,0,0,3.46618,5
1777151646323,-0.231139,1.16363,-0.0789689,-1.73208,0.705528,0.439212,0,0,3.35579,5
1777151646337,-0.113141,1.18396,-0.0184657,-1.70579,0.762877,0.432622,0,0,3.41035,5
1777151646350,0.0122548,1.24447,0.0261738,-1.65192,0.734538,0.423689,0,0,3.46324,5
1777151646364,0.0536112,1.31246,0.0421982,-1.58214,0.666344,0.404614,0,0,3.51555,5
1777151646378,0.0593077,1.35603,0.0457007,-1.50193,0.592788,0.36185,0,0,3.70957,5
1777151646391,0.0618035,1.42899,0.0458348,-1.42195,0.524025,0.308056,0,0,3.51563,5
1777151646405,0.0265159,1.52582,0.030978,-1.28525,0.486531,0.270713,0,0,3.50351,5
1777151646419,0.020124,1.56824,-0.015193,-1.08994,0.47372,0.269376,0,0,3.55605,5
1777151646432,0.0688919,1.54746,-0.0980979,-0.894991,0.462693,0.288869,0,0,3.50783,5
1777151646446,0.106277,1.49723,-0.148955,-0.716262,0.432108,0.294946,0,0,3.55433,5
1777151646460,0.1299,1.49861,-0.165656,-0.480417,0.378909,0.302929,0,0,3.5822,5
1777151646474,0.109525,1.48598,-0.165734,-0.167604,0.321649,0.332917,0,0,3.70359,5
1777151646487,0.0324402,1.43721,-0.149535,0.171589,0.276801,0.35843,0,0,3.56161,5
1777151646501,-0.0864076,1.27384,-0.0958132,0.45679,0.284911,0.344681,0,0,3.6135,5
1777151646515,0.0440374,1.07639,-0.0753753,0.623378,0.290321,0.31183,0,0,3.5914,2
1777151646529,0.0939726,0.190357,0.689114,0.0289685,0.133161,0.11991,0,0,3.80087,2
1777151646543,0.250106,1.18043,0.439356,-0.150898,-0.248718,-0.166311,0,0,3.47785,5
1777151646556,-0.111869,1.35641,0.565575,0.228734,-0.354388,-0.214826,0,0,3.48814,5
1777151646570,-0.28666,0.993867,0.284033,0.317268,-0.244676,-0.0662514,0,0,3.48751,5
1777151646584,-0.174056,0.785288,0.168741,0.181574,-0.0732184,0.0667388,0,0,3.86066,5
1777151646597,0.00688462,0.975752,0.2005,0.120826,-0.0491499,0.0809263,0,0,3.42403,5
1777151646611,0.0383071,1.08722,0.253106,0.164238,-0.10393,0.0165218,0,0,3.51505,5
1777151646625,-0.0828636,1.02245,0.230967,0.188558,-0.0613526,-0.0218546,0,0,3.46551,5
1777151646638,-0.156468,0.932395,0.218709,0.171946,0.0685156,0.00467345,0,0,3.55251,5
1777151646652,-0.0730459,0.920957,0.242742,0.137766,0.135813,0.0598614,0,0,3.51233,5
1777151646666,0.0155585,0.947903,0.259584,0.136505,0.101035,0.0875935,0,0,3.6364,5
1777151646679,0.0218947,0.944325,0.255568,0.153715,0.0435458,0.0560561,0,0,3.59651,5
1777151646693,-0.015799,0.914201,0.239872,0.147881,0.0209262,0.00041723,0,0,3.58242,5
1777151646707,-0.0285943,0.910299,0.2229,0.123007,0.0245055,-0.00526612,0,0,4.04177,5
1777151646722,-0.0211241,0.938347,0.220914,0.11025,0.0152103,0.0383259,0,0,3.7154,5
1777151646736,-0.0306395,0.95797,0.23534,0.115144,0.00146945,0.0640819,0,0,3.78077,5
1777151646750,-0.0378412,0.945745,0.239983,0.114182,0.000419744,0.0565583,0,0,3.65768,5
1777151646763,-0.0401594,0.938002,0.238332,0.107682,0.0121436,0.0527881,0,0,3.54976,5
1777151646777,-0.0418989,0.945277,0.234821,0.099207,0.0256327,0.0682378,0,0,3.76827,5
1777151646791,-0.0472599,0.952089,0.228393,0.0992253,0.0411643,0.0884341,0,0,3.61059,5
1777151646805,-0.0499789,0.951467,0.234933,0.0976283,0.0664399,0.0996867,0,0,3.60255,5
1777151646819,-0.0425763,0.949777,0.228098,0.0944706,0.0868509,0.10356,0,0,3.76374,5
1777151646833,-0.0214858,0.946915,0.216958,0.0883108,0.0859665,0.104332,0,0,3.6184,5
1777151646846,-0.0151938,0.948974,0.213869,0.0763808,0.0706732,0.10274,0,0,3.5142,5
1777151646860,-0.0151551,0.945332,0.211881,0.0626242,0.050631,0.101471,0,0,3.65948,5
1777151646874,-0.0184537,0.946312,0.208923,0.0512365,0.0314641,0.0991938,0,0,3.56924,6
1777151646888,-0.0162044,0.953084,0.20764,0.040329,0.00244105,0.0966726,0,0,3.54711,6
1777151646902,-0.0149837,0.946821,0.210704,0.0280009,-0.034404,0.0951435,0,0,3.79805,6
1777151646915,-0.016743,0.950102,0.207055,0.0173947,-0.0690473,0.0942292,0,0,3.51259,6
1777151646929,-0.014826,0.955463,0.211178,0.00923898,-0.0860541,0.094682,0,0,3.72009,6
