timestamp,ax,ay,az,gx,gy,gz,roll_k,pitch_k,delay_ms,classe_prevista
1774533157908,-0.062982,0.9916,0.0822672,-1.10684,-0.786236,1.3053,0,0,3.61025,-1
1774533157922,-0.0463884,0.995117,0.0744637,-0.603069,-0.564892,-0.213695,0,0,3.23009,-1
1774533157935,-0.0537102,0.986573,0.0771482,-0.267186,-0.312985,-0.473275,0,0,3.23525,-1
1774533157948,-0.0610344,0.987549,0.093016,0.0152587,0.0152573,-1.38165,0,0,3.23083,-1
1774533157962,-0.0595705,0.980225,0.0764177,0.129768,0.137401,-1.71755,0,0,3.22555,-1
1774533157975,-0.0603027,0.990722,0.0769042,-0.183197,-0.206097,-1.39696,0,0,3.21935,-1
1774533157988,-0.071288,0.988037,0.0798337,-0.167939,-0.0458063,-0.992379,0,0,3.22507,-1
1774533158001,-0.0671391,0.990234,0.0859369,-0.0610719,-0.0687016,-0.442765,0,0,3.25868,-1
1774533158015,-0.0751945,0.990723,0.0881345,0.335866,-0.00763542,-1.32821e-05,0,0,3.25461,-1
1774533158028,-0.0708012,0.988281,0.0812995,0.625945,-0.00763359,-0.0763336,0,0,3.29861,0
1774533158042,-0.0727537,0.996825,0.0798341,0.961822,-0.0534337,-2.28987e-06,0,0,3.24755,0
1774533158055,-0.0681157,0.989503,0.079834,1.19847,-0.0381684,-0.580135,0,0,3.25092,0
1774533158068,-0.0710446,0.989014,0.0732428,1.24427,-0.0534347,-0.366419,0,0,3.23637,0
1774533158082,-0.0671391,0.978761,0.0788569,1.37404,-0.0763352,-0.396946,0,0,3.26799,5
1774533158095,-0.0598152,0.989013,0.0808104,1.15268,-0.458004,-0.114512,0,0,3.25718,5
1774533158109,-0.0583498,0.983643,0.081787,1.12977,-0.343515,0.0839635,0,0,3.73535,5
1774533158123,-0.0639643,0.985351,0.0759283,1.66411,-0.603046,-0.0152642,0,0,3.73264,5
1774533158138,-0.0722648,0.981446,0.0686042,1.14505,-0.854954,0.450368,0,0,5.33636,5
1774533158151,-0.075195,0.983398,0.06958,1.08397,-1.06106,1.20608,0,0,3.27974,5
1774533158166,-0.0773924,0.987548,0.0681154,0.473301,-1.56487,2.42744,0,0,3.82103,5
1774533158179,-0.0793455,0.998046,0.0732417,0.129781,-1.91602,3.67935,0,0,3.27479,5
1774533158193,-0.0729987,0.987794,0.070801,0.198471,-2.49617,5.09919,0,0,3.61946,5
1774533158206,-0.0700687,0.982667,0.071289,-0.335862,-2.64122,5.81677,0,0,3.28918,5
1774533158220,-0.0727536,0.996825,0.0808096,-0.404578,-2.68702,6.99996,0,0,3.27224,5
1774533158233,-0.0651863,0.985841,0.0659195,0.0152546,-2.29009,6.3588,0,0,3.28855,5
1774533158247,-0.066162,0.988769,0.0695797,-0.656468,-2.48854,6.58778,0,0,3.28609,5
1774533158262,-0.0544445,0.997558,0.0773918,0.015247,-2.00765,6.40459,0,0,4.79094,5
1774533158275,-0.0554198,0.989991,0.0791014,-0.1832,-1.58017,5.22904,0,0,3.25798,5
1774533158289,-0.0583493,0.990723,0.073731,0.267162,-1.41222,5.93128,0,0,3.7184,5
1774533158302,-0.0393085,0.982911,0.0644541,0.114508,-1.29008,5.43513,0,0,3.28438,5
1774533158316,-0.0478507,0.98291,0.0637208,0.190837,-0.870242,3.34357,0,0,3.27535,5
1774533158329,-0.0458986,0.973878,0.0656736,-0.198462,-0.297727,3.23664,0,0,3.28511,5
1774533158343,-0.0463867,0.987303,0.0708003,-0.473274,-0.0916092,1.626,0,0,3.27133,5
1774533158356,-0.0522455,0.979737,0.0664067,-0.396949,0.541966,0.427517,0,0,3.3267,3
1774533158370,-0.0673813,0.967286,0.0593269,-1.59538,0.664118,1.67935,0,0,3.27205,3
1774533158383,-0.0466329,0.965576,0.061035,-3.15263,0.335888,2.45036,0,0,3.28003,3
1774533158397,-0.0512691,0.969482,0.0637204,-4.85491,0.0229102,2.54198,0,0,3.29905,3
1774533158410,-0.0600577,0.992918,0.060059,-5.7099,0.335868,3.77096,0,0,3.64601,3
1774533158424,-0.0522469,1.00293,0.0866673,-6.21373,0.86258,2.77102,0,0,3.28546,3
1774533158437,-0.0578608,0.993897,0.0712906,-5.96947,1.2061,2.78626,0,0,3.26062,3
1774533158451,-0.0576172,0.995361,0.0874007,-5.96183,1.26717,3.01526,0,0,3.34387,5
1774533158464,-0.0732406,0.997558,0.0742201,-5.89313,2.07631,4.1908,0,0,3.27059,5
1774533158478,-0.026616,0.958256,0.100827,-5.46566,9.74786,6.33581,0,0,3.3094,5
1774533158491,-0.0817816,0.992672,0.0532274,-7.77092,2.9544,7.11448,0,0,3.27077,5
1774533158505,-0.0683607,0.982179,0.0725078,-8.13739,4.67934,8.86254,0,0,3.60481,5
1774533158518,-0.0588388,0.985351,0.0732421,-9.82438,5.15266,9.55723,0,0,3.27638,5
1774533158532,-0.0707996,0.988769,0.0849598,-10.1985,7.09918,9.32062,0,0,3.25242,5
1774533158545,-0.14013,0.962161,0.0727551,-12.8472,13.6487,12.9007,0,0,3.28059,5
1774533158558,-0.0883841,1.00073,0.115962,-13.7023,23.6028,10.5344,0,0,3.26562,5
1774533158572,-0.0610379,0.989991,0.106446,-12.7481,27.9922,9.43515,0,0,3.32842,5
1774533158585,0.027579,0.952396,0.0373604,-14.8549,23.5345,8.81681,0,0,3.26476,5
1774533158599,-0.00951778,0.913822,0.10888,-22.0761,17.7254,9.47326,0,0,3.31059,5
1774533158612,-0.0300272,1.03441,0.152339,-21.4504,16.7252,9.99998,0,0,3.27418,5
1774533158626,-0.0703085,1.00879,0.125003,-16.3589,17.9771,12.4427,0,0,3.62938,5
1774533158639,-0.0148981,0.960942,0.143309,-17.2595,15.0764,11.8855,0,0,3.46187,5
1774533158653,-0.038816,0.988034,0.134034,-16.5344,14.4657,13.145,0,0,3.31779,5
1774533158667,-0.048583,0.998778,0.150145,-14.1298,16.6946,10.8321,0,0,3.29266,5
1774533158680,-0.0454105,0.989747,0.125247,-11.9237,24.4501,11.313,0,0,3.27042,5
1774533158693,-0.0437013,1.00586,0.16235,-8.61842,32.2593,7.84743,0,0,3.34674,5
1774533158707,0.0209896,1.00147,0.20483,-2.92383,36.2594,3.29785,0,0,3.28544,5
1774533158720,0.014405,1.00513,0.225828,2.90059,34.6489,0.580234,0,0,3.34761,5
1774533158734,0.0681099,0.99463,0.200442,9.35095,26.1224,-4.10673,0,0,3.30985,5
1774533158747,-0.0275783,0.969729,0.133796,10.9313,18.13,-3.1069,0,0,3.26357,5
1774533158761,-0.0107439,0.952883,0.106448,8.51916,14.0536,-0.626029,0,0,3.28122,5
1774533158774,-0.0170892,0.987057,0.123533,7.18325,10.4123,0.457983,0,0,3.26327,5
1774533158787,0.00146299,0.985596,0.13452,8.33584,5.93907,-0.709889,0,0,3.30701,5
1774533158801,-0.00756746,0.971925,0.128174,8.32824,3.13749,-0.404589,0,0,3.27087,5
1774533158815,-0.010986,0.985594,0.118409,8.30534,1.41227,-1.90072,0,0,3.5329,5
1774533158828,-0.0231921,0.996337,0.123535,9.41218,1.29008,-1.93893,0,0,3.28638,5
1774533158842,-0.0205081,0.9917,0.106203,10.4656,-0.175529,-3.50377,0,0,3.37062,5
1774533158855,-0.0107432,0.981446,0.109619,9.80918,-1.99231,-3.79388,0,0,3.28246,5
1774533158868,-0.00878926,1.01367,0.115234,11.1984,-1.78627,-5.0076,0,0,3.27033,5
1774533158882,-0.0231919,0.893078,0.0908228,5.19865,-8.24408,-3.84736,0,0,3.29966,5
1774533158895,-0.0671343,0.979972,0.0830086,0.0459561,-6.86264,0.129652,0,0,3.25866,5
1774533158909,-0.0324742,0.98413,0.0668961,0.412203,-7.88547,-2.32054,0,0,3.27351,5
1774533158922,-0.0727499,0.948734,0.0883768,-2.94646,-6.92369,-1.02294,0,0,3.28514,5
1774533158936,-0.0214895,0.996821,0.0878907,-3.67937,-6.99236,-1.62594,0,0,3.64042,5
1774533158950,-0.0471166,0.984864,0.112546,-3.03055,-6.94657,-2.39692,0,0,3.27114,5
1774533158963,-0.0373545,0.99414,0.0957048,-2.3588,-6.2901,-3.13738,0,0,3.27314,5
1774533158977,-0.0598122,0.990723,0.103759,-1.09164,-4.397,-3.1832,0,0,3.45757,5
1774533158990,-0.048341,0.98462,0.102539,-0.335901,-3.27484,-3.96944,0,0,3.2807,5
1774533159003,-0.0480957,0.980713,0.089845,-0.435112,-2.12981,-4.48853,0,0,3.28855,5
1774533159017,-0.0476075,0.983886,0.0996084,-0.526715,-1.542,-4.61832,0,0,3.27603,3
1774533159031,-0.0483398,0.982666,0.107909,-0.473284,-1.37405,-5.19082,0,0,3.57564,3
1774533159044,-0.0595692,0.973878,0.114013,-0.908384,-1.03054,-5.16031,0,0,3.26857,3
1774533159057,-0.0817849,0.991209,0.102052,-0.73283,-0.641233,-3.855,0,0,3.24866,3
1774533159071,-0.0524932,0.987305,0.106933,-0.931292,-1.23662,-2.48096,0,0,3.28374,3
1774533159084,-0.0825165,0.98584,0.112548,-0.694664,-1.61831,-0.389376,0,0,3.25877,3
1774533159098,-0.058352,0.990722,0.108643,0.00761252,-2.13739,0.129755,0,0,3.28757,3
1774533159111,-0.0624996,0.977296,0.109619,-0.465635,-2.70227,1.21371,0,0,3.26209,3
1774533159124,-0.0610353,0.998289,0.109619,-0.175581,-2.46566,0.748106,0,0,3.31266,3
1774533159138,-0.054444,0.9834,0.109131,0.60303,-2.09161,0.763358,0,0,3.27516,3
1774533159152,-0.0556639,0.982666,0.096925,0.793887,-1.85497,0.580158,0,0,3.58799,3
1774533159165,-0.0637199,0.979981,0.104491,0.977094,-1.45039,1.30532,0,0,3.29139,3
1774533159178,-0.0576178,0.995848,0.112304,1.38167,-1.12215,2.14501,0,0,3.2847,3
1774533159192,-0.0622554,0.987794,0.106446,1.84731,-1.35877,2.80151,0,0,3.40974,3
1774533159206,-0.0566412,0.987061,0.118407,2.05343,-1.61831,3.07633,0,0,3.26331,3
1774533159219,-0.0566406,0.98999,0.104249,2.7328,-2.16792,3.687,0,0,3.35633,5
1774533159233,-0.0593259,0.987305,0.107177,2.84732,-2.38931,4.63356,0,0,3.27653,5
1774533159247,-0.0371116,0.987793,0.101319,3.40456,-2.22901,3.38935,0,0,3.79781,5
1774533159260,-0.0522446,0.973878,0.104248,3.45038,-2.14504,3.16031,0,0,3.27422,5
1774533159273,-0.0427256,0.969971,0.0942393,2.97711,-1.94657,2.03057,0,0,3.25487,5
1774533159287,-0.0527334,0.967041,0.0878913,2.5649,-1.80153,2.1374,0,0,3.28457,5
1774533159300,-0.0541991,0.972656,0.0688496,2.34352,-1.56489,2.67937,0,0,3.26133,5
1774533159314,-0.0483404,0.951418,0.0915505,1.09164,-2.14502,3.40456,0,0,3.29075,5
1774533159327,-0.0439458,0.97656,0.0988762,0.450401,-2.42747,4.09922,0,0,3.30325,5
1774533159341,-0.0424806,0.973145,0.107177,1.53432,-4.16789,5.40454,0,0,3.36611,5
1774533159354,-0.0461422,0.985106,0.0996101,1.96182,-4.84731,7.71749,0,0,3.28046,5
1774533159368,-0.0329603,0.991454,0.0947271,2.7557,-4.68703,6.07639,0,0,3.49405,5
1774533159381,-0.032959,0.968752,0.0874031,2.15269,-3.75575,5.69467,0,0,3.27031,5
1774533159394,-0.0212414,0.997067,0.10327,1.9313,-2.60309,3.11458,0,0,3.30183,5
1774533159408,-0.0261226,0.996338,0.0898451,2.14503,-1.90078,1.66417,0,0,3.2802,5
1774533159422,-0.0419906,1.00757,0.107664,1.4962,-1.35116,1.63359,0,0,3.24666,5
1774533159436,-0.0473627,1.03857,0.122557,2.80149,-1.53435,2.95416,0,0,4.86725,5
1774533159450,-0.0439457,1.03906,0.111573,4.13736,-1.47328,3.8702,0,0,3.25181,5
1774533159464,-0.0566394,1.03003,0.115722,5.46561,-0.893147,4.05343,0,0,3.79461,5
1774533159477,-0.0246614,1.01196,0.112305,6.53432,-0.946563,2.4657,0,0,3.26833,5
1774533159490,-0.0183112,0.990237,0.0922872,6.19848,-0.847331,0.90081,0,0,3.24948,5
1774533159504,-0.0124518,0.986084,0.093994,5.74047,-0.473294,-0.893076,0,0,3.27246,5
1774533159517,-0.0129394,0.989257,0.0830089,5.70992,-1.06105,-1.458,0,0,3.24072,5
1774533159531,-0.0383275,0.977052,0.106199,5.67176,-1.51144,-1.68702,0,0,3.29574,5
1774533159544,-0.0366213,0.99243,0.0900895,6.59539,-1.84732,-1.19849,0,0,3.25314,5
1774533159557,-0.0534651,0.984376,0.0815438,7.39692,-2.87783,0.290032,0,0,3.28346,5
1774533159571,-0.0456551,0.991698,0.0754401,7.53435,-2.75573,1.31295,0,0,3.26288,5
1774533159584,-0.032472,0.995117,0.0900864,8.55722,-2.55726,1.08398,0,0,3.25235,5
1774533159597,-0.0280766,0.997558,0.0971673,9.64119,-2.54199,-0.274768,0,0,3.27561,5
1774533159611,-0.0407702,0.973147,0.0620152,8.90079,-1.58018,-0.206109,0,0,3.24751,5
1774533159624,-0.035645,0.987059,0.0642088,8.5878,-1.40459,-1.48851,0,0,3.29868,5
1774533159637,-0.0397945,0.98169,0.0646972,9.11449,-0.793911,-0.778647,0,0,3.2655,5
1774533159651,-0.052489,0.990722,0.0756825,8.80154,-0.625959,-1.16793,0,0,3.26596,5
1774533159664,-0.0317404,0.990234,0.0659189,8.73283,0.480883,-1.42747,0,0,3.26094,5
1774533159677,-0.0454088,0.994384,0.0612798,8.91603,0.442749,-1.67938,0,0,3.29796,5
1774533159691,-0.0568836,1.00708,0.0541999,8.98473,2.41979,-2.09159,0,0,3.31551,5
1774533159704,-0.030032,0.991945,0.0512698,9.55723,3.25952,-1.80154,0,0,3.29166,5
1774533159718,-0.0576144,0.99414,0.0588371,8.83208,1.7863,-0.992391,0,0,3.27985,5
1774533159731,-0.0622554,1.00366,0.0607908,8.82443,1.58016,1.01521,0,0,3.28205,5
1774533159745,-0.0598147,1.01147,0.0483411,8.87786,1.35115,1.5954,0,0,3.34553,5
1774533159758,-0.0473645,1.00171,0.0502928,9.06106,1.46565,2.48852,0,0,3.26368,5
1774533159771,-0.0246605,0.996827,0.029299,9.1832,1.95418,2.03818,0,0,3.29538,5
1774533159785,-0.0317376,0.986817,0.0153823,9.32824,2.3435,0.885531,0,0,3.30525,5
1774533159798,-0.0219736,0.980958,0.0375954,8.90841,2.72518,0.870229,0,0,3.28698,5
1774533159812,-0.0429667,0.988281,0.0490711,8.6565,2.76336,-0.114474,0,0,3.3159,5
1774533159825,-0.0505364,0.987793,0.0314959,8.52672,3.03053,0.251897,0,0,3.28738,5
1774533159838,-0.0339372,1.0105,0.0349118,8.51908,2.64123,-0.511427,0,0,3.31575,5
1774533159852,-0.060056,1.00781,0.0258798,9.77095,2.75572,0.274786,0,0,3.31118,5
1774533159865,-0.0463881,1.01001,0.0209966,10.1069,3.52669,0.465643,0,0,3.34479,5
1774533159879,-0.0500485,1.0227,0.0415019,10.9694,2.74048,0.801517,0,0,3.29625,5
1774533159892,-0.0593252,1.02197,0.0439451,12.2977,3.41219,2.18316,0,0,3.27964,5
1774533159906,-0.0246617,1.02026,0.0405277,13.5038,3.56488,2.48854,0,0,3.29111,5
1774533159919,-0.0439434,1.02734,0.0700654,15.4885,3.26718,4.10682,0,0,3.25701,5
1774533159932,-0.0698216,1.07983,0.0554214,18.7404,3.59541,7.19838,0,0,3.40714,5
1774533159946,-0.0656742,1.12353,0.0917932,22.5724,2.78628,13.9387,0,0,3.28216,5
1774533159959,-0.0405299,1.18481,0.101562,27.1983,2.61833,15.7175,0,0,3.3144,5
1774533159973,-0.0954535,1.30004,0.0981449,38.3432,2.16795,25.5188,0,0,3.28544,5
1774533159986,-0.0788591,1.34008,0.148188,46.0074,2.90837,32.5876,0,0,3.27355,5
1774533159999,-0.0659193,1.40502,0.184078,61.0301,4.56484,26.5269,0,0,3.30383,5
1774533160013,-0.053468,1.3357,0.171632,71.6256,3.79392,28.7557,0,0,3.26413,5
1774533160026,-0.0156288,1.34741,0.195798,80.8318,2.67942,26.0764,0,0,3.34711,5
1774533160040,0.0388129,1.41918,0.179689,98.7857,0.0229805,25.8092,0,0,3.29314,5
1774533160053,0.0983827,1.3086,0.181396,115.801,-2.02284,16.0766,0,0,3.32892,5
1774533160067,0.100342,1.23145,0.0993734,129.076,-3.12974,9.29028,0,0,3.28803,5
1774533160080,0.154047,1.27295,0.145991,133.946,-3.99234,-3.86983,0,0,3.26727,5
1774533160093,0.154541,1.44822,0.166502,152.725,-3.61833,-13.6104,0,0,3.2884,5
1774533160107,0.19067,1.36866,0.142336,170.977,-2.81682,-27.0225,0,0,3.26064,5
1774533160120,0.26342,1.41528,0.174069,181.725,-1.83209,-40.9156,0,0,3.30348,5
1774533160133,0.315669,1.41162,0.140872,197.129,-4.12207,-53.7477,0,0,3.28211,5
1774533160147,0.355953,1.49364,0.0949753,212.74,-7.83195,-71.2056,0,0,3.30259,5
1774533160160,0.455068,1.5581,0.0915531,230.32,-14.9311,-78.4883,0,0,3.2855,5
1774533160174,0.497554,1.58911,-0.0173231,246.374,-26.6332,-90.305,0,0,3.27027,5
1774533160187,0.378674,1.61889,-0.113272,250.13,-33.0838,-105.213,0,0,3.33033,5
1774533160200,0.226334,1.8054,-0.0883814,250.13,-28.1986,-120.465,0,0,3.33022,5
1774533160214,0.336415,1.70021,-0.168449,250.13,-25.0001,-132.648,0,0,3.31524,5
1774533160227,0.271491,1.6189,-0.0119785,250.13,-20.1757,-148.16,0,0,3.32805,5
1774533160241,0.270752,1.35745,0.31442,250.13,-12.6338,-160,0,0,3.32257,3
1774533160254,0.0681355,1.65061,0.824656,250.13,1.67133,-183.305,0,0,3.33201,3
1774533160268,-0.456491,1.58277,-0.16079,250.13,92.6003,-152.207,0,0,3.31033,3
1774533160281,-0.414311,0.104152,-0.0127101,245.076,124.472,-125.886,0,0,3.29796,3
1774533160294,-0.251725,-0.146703,-0.00878945,189.467,160.808,-84.8562,0,0,3.2852,3
1774533160308,0.0712568,-0.774107,-0.183576,104.201,167.862,-56.5657,0,0,3.27292,3
1774533160321,0.144524,-0.724858,-0.107674,-6.7524,158.794,-18.5966,0,0,3.28601,3
1774533160335,0.337627,0.169588,0.00267451,-68.5249,138.489,10.0831,0,0,3.27842,3
1774533160348,0.360105,-0.0112124,0.0410118,-106.724,113.329,31.7245,0,0,3.30979,3
1774533160361,0.40356,-0.0605419,0.0788536,-157.304,84.5581,45.137,0,0,3.31001,5
1774533160375,0.446285,-0.00879424,0.127681,-196.716,60.2679,48.9694,0,0,3.35588,5
1774533160388,0.41138,-0.189923,0.138183,-245.205,31.7413,41.9468,0,0,3.30987,5
1774533160402,0.314219,-0.131354,0.291244,-250.137,16.4966,28.9928,0,0,3.29405,5
1774533160415,0.273686,0.334426,0.418933,-250.137,2.41264,21.2674,0,0,3.27257,5
1774533160429,0.107194,0.594701,0.376713,-250.137,-6.96155,22.6641,0,0,3.32729,5
1774533160442,-0.0436861,0.764876,0.321295,-250.137,-8.77857,25.4274,0,0,3.30548,5
1774533160455,-0.117424,0.74634,0.258795,-250.137,-2.96201,15.7865,0,0,3.29529,5
1774533160469,-0.107179,0.781002,0.223636,-250.137,5.3738,2.59582,0,0,3.2854,5
1774533160482,-0.0334546,0.963361,0.261959,-250.137,8.81669,2.67175,0,0,3.25207,5
1774533160496,0.0434493,1.1826,0.245363,-250.137,5.41232,21.0376,0,0,3.27418,5
1774533160509,0.000980809,1.4055,0.20435,-250.137,0.114663,46.5107,0,0,3.24887,5
1774533160522,-0.114735,1.48559,0.143317,-250.137,3.65638,60.8316,0,0,3.29142,5
1774533160536,-0.351295,1.44263,0.0996137,-250.137,20.9537,63.7633,0,0,3.2807,5
1774533160550,-0.431877,1.61619,0.109618,-250.137,45.1596,50.2905,0,0,4.38259,5
1774533160564,-0.509514,1.74755,0.106202,-250.137,69.6329,46.252,0,0,3.29766,5
1774533160577,-0.377699,1.89085,0.104248,-250.137,84.8316,40.0842,0,0,3.30546,5
1774533160593,-0.108425,2.07933,0.0773953,-250.137,91.809,23.0921,0,0,3.29811,5
1774533160606,0.143041,2.2141,0.0522486,-250.137,84.5956,-0.235941,0,0,3.25375,5
1774533160620,0.396459,2.04054,0.00806106,-250.137,67.3822,-23.4726,0,0,3.33677,5
1774533160633,0.627907,1.99634,-0.00292859,-239.26,38.3062,-38.1217,0,0,3.27714,5
1774533160649,0.759264,1.94288,-0.0544382,-216.298,-2.79266,-38.9694,0,0,5.19123,5
1774533160662,0.803706,1.84376,-0.18236,-195.069,-40.808,-29.5346,0,0,3.25962,5
1774533160675,0.543483,1.72706,-0.324205,-177.985,-74.1211,1.38075,0,0,3.29522,5
1774533160689,0.0552246,1.71021,-0.491194,-158.001,-86.7477,28.1137,0,0,3.24938,5
1774533160702,-0.480415,1.84984,-0.632798,-120.65,-67.9929,32.2442,0,0,3.25809,5
1774533160715,-0.775849,1.81861,-0.815167,-74.0701,-25.9478,12.2449,0,0,3.25459,5
1774533160729,-0.536157,1.62258,-0.841306,-30.7876,13.4874,-12.6939,0,0,3.40029,5
1774533160742,-0.123088,1.65527,-0.735362,9.58658,26.7477,-10.1833,0,0,3.38994,5
1774533160756,0.121313,1.49318,-0.546894,43.6097,19.1605,5.96135,0,0,3.29238,5
1774533160769,0.132323,1.26003,-0.341573,63.5796,10.527,12.9769,0,0,3.27307,5
1774533160783,0.0271101,1.21021,-0.152363,77.4423,6.68714,11.5497,0,0,3.29174,3
1774533160796,-0.130844,1.11915,-0.00318874,88.3814,13.4196,0.198814,0,0,3.27127,3
1774533160809,-0.212394,0.89553,0.0798257,88.7481,29.9461,-10.9157,0,0,3.29064,3
1774533160823,-0.942554,3.82295,0.195301,67.8556,17.0691,-61.8916,0,0,3.26842,3
1774533160836,0.348992,0.377542,0.57711,153.936,42.7321,-102.854,0,0,3.251,3
1774533160849,-0.544588,0.838089,0.566896,157.122,53.1066,-59.5586,0,0,3.25625,3
1774533160863,-0.359394,0.818361,0.425307,160.939,57.8701,-14.6426,0,0,3.28201,3
1774533160876,0.154978,1.02952,0.500237,171.923,55.4657,-34.6788,0,0,3.45162,3
1774533160890,0.0146625,1.16258,0.268578,174.801,21.5583,-30.2749,0,0,3.26338,5
1774533160905,-0.0739657,0.982684,0.191902,160.863,1.73342,-20.1148,0,0,4.28844,5
1774533160919,-0.273173,1.0332,0.181886,136.604,-0.580083,-3.43561,0,0,3.29781,5
1774533160933,-0.157726,0.960456,0.0727648,119.42,1.52665,6.51115,0,0,3.32135,5
1774533160947,-0.175535,0.826918,-0.010978,88.52,5.22126,15.1066,0,0,3.26507,5
1774533160960,-0.0910729,0.910148,-0.054439,66.3594,6.55721,15.0076,0,0,3.31075,5
1774533160973,-0.0185619,0.927977,0.0646854,49.0921,5.46568,14.687,0,0,3.27113,5
1774533160992,-0.0847102,0.985102,0.13305,42.5345,4.05348,16.4427,0,0,7.97506,5
1774533161005,-0.0527376,0.988281,0.146239,40.3894,4.458,13.855,0,0,3.35688,5
1774533161023,-0.0473638,0.976075,0.117435,41.2366,1.3436,11.5115,0,0,8.16636,5
1774533161037,-0.0480956,0.885019,-0.113014,34.6185,3.24422,4.81699,0,0,3.33622,5
1774533161055,-0.167957,0.820075,0.0956823,13.1686,5.29001,0.862714,0,0,8.3989,5
1774533161069,-0.0920486,0.988509,0.128415,14.4427,3.65654,-3.28232,0,0,3.28244,5
1774533161085,-0.0412648,0.98999,0.12378,14.9771,5.45033,-2.46567,0,0,3.28674,5
1774533161098,-0.0634743,0.981446,0.121826,14.1985,4.57255,-2.30535,0,0,3.26555,5
1774533161112,-0.0534678,1.0454,0.143308,15.7022,4.95419,-4.36635,0,0,3.2959,5
1774533161125,-0.0878872,0.98194,0.0983932,15.855,4.96183,-2.88554,0,0,3.25668,5
1774533161139,-0.0432174,1.07397,0.0105068,14.771,5.0229,-6.27471,0,0,3.28333,5
1774533161152,-0.0927685,1.04224,0.0898358,17.1221,3.77103,-1.63373,0,0,3.27709,5
1774533161166,-0.073,0.972419,0.116452,16.0306,4.06106,-0.335917,0,0,3.67414,5
1774533161179,-0.0480982,1.01025,0.112549,14.7787,3.3588,-0.770979,0,0,3.27459,5
1774533161193,-0.0415046,0.923349,0.0903343,12.2825,-2.14487,2.35105,0,0,3.25296,5
1774533161206,-0.0925242,1.03148,0.0898438,14.29,2.35864,-1.64873,0,0,3.28525,5
1774533161219,-0.0976557,1.01538,0.0957025,13.8015,-0.641131,-2.77096,0,0,3.27414,5
1774533161233,-0.0620153,0.975834,0.117429,13.1451,0.488516,-2.67939,0,0,3.35574,5
1774533161246,-0.0766587,0.982177,0.0834995,14.3206,-0.862555,-2.51146,0,0,3.28468,5
1774533161260,-0.0766602,0.964601,0.0754403,12.4581,-1.0458,-1.01531,0,0,3.68838,5
1774533161273,-0.0629896,0.998532,0.0124575,10.8703,-2.96941,4.60288,0,0,3.27864,5
1774533161287,-0.0837382,0.962894,0.0661567,10.7176,-3.88547,2.13748,0,0,3.27829,5
1774533161300,-0.103758,0.962891,0.0578622,10.5267,-3.07636,5.09151,0,0,3.2827,5
1774533161314,-0.0849628,0.983396,0.0737289,8.72524,-4.99994,0.656622,0,0,3.27518,5
1774533161327,-0.0539582,0.989745,0.155509,8.11452,-5.229,2.99993,0,0,3.29774,5
1774533161341,-0.0234406,0.988526,0.076668,9.84728,2.72495,-0.587679,0,0,3.26311,5
1774533161354,-0.074946,0.950199,0.0852042,8.53439,2.11452,-1.55722,0,0,3.30703,5
1774533161367,-0.0915511,1.00122,0.04932,8.43512,0.580199,-1.77099,0,0,3.27237,5
1774533161381,-0.0957027,0.978274,0.0517576,8.17558,1.22135,-0.122187,0,0,3.58459,5
1774533161394,-0.091309,0.988036,0.0446784,7.48857,0.229037,1.56483,0,0,3.27887,5
1774533161408,-0.101806,0.989502,0.05371,7.64122,-0.603028,4.34343,0,0,3.29942,5
1774533161421,-0.103515,0.993652,0.0576168,8.01526,-1.28242,6.82435,0,0,3.29324,5
1774533161435,-0.125974,1.02881,0.0805641,8.25953,-1.12978,9.28237,0,0,3.28238,5
1774533161448,-0.0690975,1.03223,0.0634783,11.9617,-1.51907,10.5038,0,0,3.31207,5
1774533161462,-0.0646977,1.02441,0.0615236,13.5572,-3.74802,11.3664,0,0,3.26881,5
1774533161476,-0.0500503,1.03564,0.0681146,16.1373,-4.12213,9.1451,0,0,3.86674,5
1774533161489,-0.0893515,1.04004,0.0734858,19.4045,-3.6565,11.2824,0,0,3.27366,5
1774533161503,-0.103514,1.12865,0.0881333,22.2213,-2.18325,8.0688,0,0,3.26303,5
1774533161516,-0.0891128,1.11743,0.0793466,29.7097,-2.21374,13.7937,0,0,3.30961,5
1774533161529,-0.0686056,1.17626,0.0949691,31.7633,-4.77855,23.4654,0,0,3.2514,5
1774533161543,-0.131097,1.28954,0.110594,39.3509,-3.12982,27.0381,0,0,3.30253,5
1774533161556,-0.0647039,1.32861,0.179192,48.4959,-3.25954,28.5877,0,0,3.25514,5
1774533161570,-0.129144,1.35669,0.186279,60.3126,-1.2138,29.5038,0,0,3.31939,5
1774533161583,-0.0742242,1.4536,0.215817,76.114,-2.82438,28.771,0,0,3.27735,5
1774533161597,-0.143792,1.41504,0.225097,93.8392,-2.61833,31.1984,0,0,3.26696,5
1774533161610,-0.095952,1.41211,0.227783,112.992,-2.88549,31.3969,0,0,3.27624,5
1774533161623,-0.0583534,1.32203,0.165289,131.396,-4.87017,27.3513,0,0,3.27113,5
1774533161637,-0.0583496,1.36792,0.192624,145.267,-5.32823,26.2901,0,0,3.29831,5
1774533161650,-0.00952637,1.53514,0.243647,168.015,-7.52665,27.2977,0,0,3.27301,5
1774533161664,0.0297812,1.67162,0.295649,191.549,-7.56488,23.5803,0,0,3.29885,5
1774533161677,0.261451,1.65405,0.401357,219.098,-10.5572,9.64927,0,0,3.27414,5
1774533161690,0.298092,1.77001,0.455317,245.572,-16.3815,-1.49585,0,0,3.2737,5
1774533161704,0.351557,1.8972,0.507807,250.13,-19.6793,-17.0835,0,0,3.27924,1
1774533161717,0.367918,2.06663,0.585197,250.13,-32.9156,-23.725,0,0,3.2919,4
1774533161730,0.214859,2.04761,0.488535,250.13,-39.1907,-10.5805,0,0,3.28868,4
1774533161744,0.0947386,1.4898,0.37965,250.13,-61.3581,25.0371,0,0,3.2634,4
1774533161757,-0.436714,2.00263,0.159934,250.13,-38.1228,-0.441984,0,0,3.31968,4
1774533161771,0.0983352,2.05322,0.261709,250.13,-42.6487,17.862,0,0,3.29122,4
1774533161784,0.202382,1.69779,0.321039,250.13,-62.549,81.1813,0,0,3.33755,4
1774533161798,0.206787,1.52272,0.756548,250.13,-97.1593,136.189,0,0,3.28387,4
1774533161811,0.245846,1.65526,1.476,250.13,-129.9,144.259,0,0,3.26981,4
1774533161824,-0.0793132,1.01178,1.41114,250.13,-140.626,123.55,0,0,3.28763,4
1774533161838,-0.548049,-1.72263,-0.631143,250.13,-102.001,64.4293,0,0,3.25714,4
1774533161851,-0.681383,-1.94016,-0.28275,174.04,-54.1007,31.7109,0,0,3.255,4
1774533161864,-0.577403,-1.72707,-0.177257,12.0583,6.23483,-46.4633,0,0,3.23907,4
1774533161878,-0.470714,-1.36918,0.172328,-178.704,41.1516,-95.7313,0,0,3.29122,2
1774533161891,-0.181914,0.147309,0.431859,-250.135,58.8086,-86.5881,0,0,3.26374,2
1774533161905,0.129119,0.596879,0.432617,-250.137,48.8553,-56.7414,0,0,3.27524,2
1774533161918,0.217032,-0.147631,0.514396,-250.137,23.7488,-5.90229,0,0,3.29138,2
1774533161931,0.254147,-0.0771555,0.59716,-250.137,-6.38841,45.3191,0,0,3.28831,2
1774533161945,0.253174,0.556089,0.638424,-250.137,-25.2895,71.8084,0,0,3.33348,2
1774533161958,0.0649602,0.462168,0.596684,-250.137,-32.5494,69.7863,0,0,3.29233,2
1774533161972,-0.0754254,0.583484,0.608397,-250.137,-31.7481,51.283,0,0,3.29929,2
1774533161985,-0.110104,0.796121,0.623534,-250.137,-32.7099,29.4129,0,0,3.2512,2
1774533161999,-0.0754429,0.960189,0.604738,-250.137,-40.5417,11.2372,0,0,3.28201,2
1774533162012,-0.0444367,1.17625,0.641354,-250.137,-56.0224,6.37419,0,0,3.26122,2
1774533162025,-0.119866,1.38011,0.561776,-250.137,-72.8163,15.6715,0,0,3.27937,2
1774533162039,-0.174555,1.5742,0.507818,-250.137,-84.9996,16.8015,0,0,3.26264,5
1774533162052,-0.430883,1.67968,0.454839,-250.137,-83.7863,13.3283,0,0,3.27707,5
1774533162066,-0.634501,1.52223,0.416264,-250.137,-67.7486,14.5343,0,0,3.28079,5
1774533162079,-0.736562,1.59618,0.398439,-250.137,-37.4818,9.51923,0,0,3.29561,5
1774533162092,-0.625255,2.09785,0.420896,-250.137,-5.74904,6.53444,0,0,3.26885,5
1774533162106,-0.364284,2.72015,0.265885,-250.137,12.488,29.0986,0,0,3.29953,5
1774533162119,-0.0730272,2.49392,-0.0507496,-250.137,13.0916,68.1591,0,0,3.26922,5
1774533162132,0.0500365,2.30568,-0.353241,-250.137,6.96202,97.7548,0,0,3.30718,2
1774533162146,-1.64607,3.99971,-2.65456,-250.137,14.0685,-28.042,0,0,3.25359,2
1774533162159,-0.362677,1.3777,-1.21645,-226.024,28.3889,28.3876,0,0,3.32729,2
1774533162173,-0.478504,3.00887,-1.35545,-216.71,30.6641,48.9536,0,0,3.26401,2
1774533162186,-0.71482,2.08774,-1.5532,-185.344,59.2205,33.3134,0,0,3.30509,2
1774533162200,-0.342567,2.63398,-1.49439,-100.537,93.0524,-15.5787,0,0,3.27659,2
1774533162213,0.342217,3.16596,-1.64183,-18.6818,84.1071,-26.0455,0,0,3.24337,2
1774533162226,0.592748,3.11353,-1.49416,121.805,48.6881,-44.0071,0,0,3.28263,2
1774533162240,0.716784,3.99979,-1.63378,250.126,-9.91427,-31.3821,0,0,3.25724,2
1774533162253,-1.04523,-0.0376822,0.200988,250.13,1.82408,1.89976,0,0,3.32813,5
1774533162266,0.297229,0.014155,0.795351,184.628,17.3736,-16.0834,0,0,3.26031,5
1774533162280,0.0180943,0.820476,0.141667,142.314,27.9157,-43.9915,0,0,3.31776,5
1774533162293,-0.412555,1.98865,0.240713,169.801,33.8014,-10.001,0,0,3.4704,5
1774533162307,0.117135,0.637098,-0.00119651,177.152,34.4427,-2.59564,0,0,3.27679,5
1774533162320,-0.083476,1.20795,0.00683513,133.314,16.0693,-0.73288,0,0,3.29774,5
1774533162334,-0.204334,0.692434,-0.226051,94.4744,11.7024,1.38162,0,0,3.28188,5
1774533162347,-0.109629,0.807117,-0.00661374,63.0544,13.1221,4.06099,0,0,3.27133,5
1774533162360,-0.0708047,0.959702,0.016111,57.9162,10.1222,6.93121,0,0,3.27644,5
1774533162374,-0.0578626,0.921635,-0.0546804,47.5881,1.96971,9.79381,0,0,3.28774,5
1774533162387,-0.113764,0.901125,-0.0676257,38.2904,-2.79375,18.5875,0,0,3.28194,5
1774533162401,-0.0944843,0.897217,0.0893398,17.1228,-1.30539,7.09958,0,0,3.59714,5
1774533162414,0.0275757,0.960687,0.180899,21.0991,1.39687,3.60316,0,0,3.30794,5
1774533162428,-0.00878543,0.997067,0.10035,20.9924,2.25188,-0.961695,0,0,3.27457,5
1774533162441,0.0656664,0.977053,0.13525,20.7328,4.79382,-11.3203,0,0,3.2819,5
1774533162454,0.01978,0.955569,0.134766,21.145,8.19837,-20.328,0,0,3.2874,5
1774533162468,-0.0353949,0.972166,0.11426,19.4581,7.67177,-22.8167,0,0,3.28272,5
1774533162481,-0.0983824,0.999997,0.100831,16.8169,1.60324,-22.5267,0,0,3.2807,5
1774533162495,-0.120115,1.01806,0.124021,14.7787,3.68696,-15.0079,0,0,3.68533,5
1774533162508,-0.149411,1.01563,0.106447,14.0229,0.855047,-8.59561,0,0,3.2784,5
1774533162522,-0.154052,1.05175,0.105469,14.5267,-1.65641,0.900478,0,0,3.25894,5
1774533162535,-0.125003,1.03931,0.102783,16.1526,-1.77099,5.77085,0,0,3.28216,5
1774533162549,-0.0847208,1.00513,0.0954597,17.977,-1.96946,8.6335,0,0,3.25422,5
1774533162562,-0.0964344,0.970462,0.107177,18.4504,4.75552,6.63365,0,0,3.33846,5
1774533162575,-0.0410212,0.959474,0.0852073,16.5955,9.13727,3.56498,0,0,3.26085,5
1774533162589,-0.0410156,0.948976,0.080811,15.0611,1.17581,1.19854,0,0,3.32031,5
1774533162602,-0.0571273,0.977292,0.037602,11.481,1.43511,0.0534695,0,0,3.27807,5
1774533162616,-0.0722641,0.960695,0.0651828,9.25961,1.20611,-2.75564,0,0,3.2672,5
1774533162629,-0.0786126,0.973143,0.0610356,8.93131,1.04581,-1.51912,0,0,3.34487,5
1774533162642,-0.0634781,0.963624,0.0729969,7.97713,6.76319,-0.00767893,0,0,3.23914,5
1774533162656,-0.0891088,0.985838,0.0969214,9.25187,5.34355,-0.00763359,0,0,3.28242,5
1774533162669,-0.0634791,0.981934,0.0710475,8.92367,4.27484,0.0152665,0,0,3.24292,5
1774533162682,-0.0678707,0.984375,0.0612803,9.53433,2.6718,-1.4198,0,0,3.29311,5
1774533162696,-0.0998503,1.01904,0.0881321,9.43512,2.95419,-0.160343,0,0,3.26912,5
1774533162709,-0.050542,1.01514,0.0773937,10.603,1.43516,-0.160305,0,0,3.24633,5
1774533162723,-0.0361343,0.995119,0.0864249,9.96948,-1.28236,0.503797,0,0,3.2834,5
1774533162736,-0.0551739,1.02881,0.0737317,11.7786,-3.17552,-3.26706,0,0,3.27275,5
1774533162749,-0.0925256,0.979985,0.0585953,12.1298,-5.39688,1.48077,0,0,3.30153,5
1774533162763,-0.125485,0.98291,0.0375998,12.7633,-5.84731,5.09149,0,0,3.2579,5
1774533162776,-0.199455,0.956546,0.0105008,12.0611,-6.08396,11.8242,0,0,3.30739,5
1774533162789,-0.120613,1.07885,0.0698183,11.8473,-3.39703,15.5495,0,0,3.2719,5
1774533162803,-0.0456618,1.07983,0.107662,16.4121,-5.81672,16.1145,0,0,3.60394,5
1774533162817,-0.115227,1.21556,0.109375,23.1448,-4.65652,22.2441,0,0,3.2914,5
1774533162830,-0.165034,1.26147,0.144284,33.5646,-2.80158,23.0687,0,0,3.31159,5
1774533162844,-0.140627,1.19556,0.118411,43.6409,-0.824487,29.8624,0,0,3.32024,5
1774533162857,-0.121828,1.23779,0.0839878,50.2746,-1.04579,32.2671,0,0,3.27722,5
1774533162870,-0.0820352,1.35814,0.244857,59.9615,-2.02287,34.9007,0,0,3.27711,5
1774533162884,-0.0939929,1.41894,0.224367,75.885,-1.1527,33.9008,0,0,3.27996,5
1774533162898,-0.00245056,1.55101,0.346423,98.1062,-2.50378,32.4886,0,0,3.81494,5
1774533162911,0.00903205,1.56299,0.33008,125.404,-3.13739,26.9009,0,0,3.29753,5
1774533162925,0.0793387,1.46437,0.269049,150.847,-5.89305,19.5422,0,0,3.28433,5
1774533162938,0.0197813,1.44751,0.313472,169.931,-9.50371,13.6032,0,0,3.28812,5
1774533162952,-0.0353949,1.7385,0.430652,195.053,-10.6946,13.8779,0,0,3.26094,4
1774533162965,-0.00879172,2.02194,0.557604,232.48,-10.8092,12.4733,0,0,3.30116,4
1774533162979,0.153548,1.85793,0.580808,250.129,-13.9999,4.17582,0,0,3.27585,4
1774533162992,0.189938,2.0554,0.704089,250.13,-18.7632,-1.44258,0,0,3.28583,4
1774533163005,0.0913185,2.30491,0.75024,250.13,-29.6867,-4.63349,0,0,3.27479,4
1774533163019,-0.0710287,2.39818,0.544454,250.13,-15.7714,-13.5799,0,0,3.25161,4
1774533163032,0.352741,1.56185,0.482672,250.13,-24.87,-7.15286,0,0,3.31683,4
1774533163045,-0.106888,2.47403,0.439457,250.13,-19.0689,-27.1902,0,0,3.27016,4
1774533163059,0.47211,1.94146,0.727998,250.13,-25.3968,-1.51222,0,0,3.26124,5
1774533163072,0.57372,1.6719,1.00998,250.13,-49.3962,32.3196,0,0,3.29737,5
1774533163086,0.654533,1.58765,1.42403,250.13,-69.7856,46.8087,0,0,3.27051,5
1774533163099,0.881325,1.00421,1.70114,250.13,-107.602,40.7941,0,0,3.25477,3
1774533163113,0.235172,0.38556,-0.258349,250.13,-133.885,46.4655,0,0,3.9687,3
1774533163128,0.0847318,-0.179143,-0.126966,250.13,-134.489,48.2519,0,0,4.9109,3
1774533163141,-0.52533,-1.0485,-0.279282,199.78,-108.108,31.2295,0,0,3.27677,3
1774533163155,-0.8486,-1.39474,-0.295653,74.0801,-42.6356,5.07712,0,0,3.30992,3
1774533163168,-0.550079,-1.39038,-0.171399,-61.7593,9.39539,-29.9608,0,0,3.27524,3
1774533163182,-0.286647,-1.1094,-0.0305317,-211.11,33.3504,-51.7932,0,0,3.28885,2
1774533163196,-0.141128,-0.258142,0.176981,-250.136,34.2671,-19.9704,0,0,3.26016,2
1774533163210,0.0453915,-0.523899,0.290028,-250.137,15.9013,16.7012,0,0,3.9209,2
1774533163223,0.128654,-0.294945,0.471417,-250.137,-2.946,47.4113,0,0,3.28083,2
1774533163237,0.155027,-0.0569086,0.654523,-250.137,-29.3046,69.5108,0,0,3.62025,2
1774533163250,0.138674,0.699387,0.815414,-250.137,-46.2209,100.259,0,0,3.28201,2
1774533163264,0.0529871,1.13887,0.797121,-250.137,-54.641,114.671,0,0,3.2634,2
1774533163277,-0.210667,1.23778,0.521756,-250.137,-55.2901,129.656,0,0,3.28498,2
1774533163290,-0.418924,1.17652,0.409679,-250.137,-39.7715,120,0,0,3.26279,2
1774533163304,-0.553209,1.03688,0.33326,-250.137,-15.5809,90.6268,0,0,3.26674,2
1774533163317,-0.568114,1.0581,0.372311,-250.137,13.0755,54.4362,0,0,3.35131,2
1774533163331,-0.526127,1.40158,0.382323,-250.137,38.9458,25.1612,0,0,3.36085,2
1774533163345,-0.500491,1.68674,0.284922,-250.137,55.7323,27.2671,0,0,3.29337,2
1774533163358,-0.420906,1.60597,0.189463,-250.137,68.2821,41.7171,0,0,3.25837,2
1774533163371,-0.396975,1.51661,0.142583,-250.137,86.1674,48.2135,0,0,3.27657,5
1774533163385,-0.304697,1.5415,0.143799,-250.137,108.694,40.1071,0,0,3.24325,5
1774533163398,-0.0122363,1.86545,0.0981491,-250.137,123.45,32.4201,0,0,3.26288,5
1774533163411,0.324917,2.21408,-0.0466164,-250.137,116.397,31.5573,0,0,3.2475,5
1774533163425,0.546609,2.61178,-0.229718,-250.137,89.3596,40.7478,0,0,3.24444,5
1774533163438,0.601801,2.75633,-0.514864,-250.137,60.3673,39.4275,0,0,3.71475,5
1774533163452,0.400655,2.66163,-0.786838,-248.267,40.3975,31.0308,0,0,3.23931,5
1774533163466,0.0703455,2.71459,-1.16915,-203.024,33.4124,24.1452,0,0,3.29868,5
1774533163480,-0.156471,2.82543,-1.53097,-148.391,45.0226,13.1148,0,0,3.23864,5
1774533163498,0.128389,2.48026,-1.75657,-55.2776,59.2133,-14.358,0,0,4.21953,5
1774533163511,1.38318,3.99973,-0.61901,-42.1302,51.0613,-13.9313,0,0,3.26394,5
1774533163525,1.83394,3.99988,-1.89392,250.121,-37.9057,-4.17587,0,0,3.30211,5
1774533163538,-0.534919,-0.173899,0.840059,250.13,-18.6418,-26.2207,0,0,3.28992,5
1774533163552,-0.233429,0.249469,1.07102,184.819,12.5945,-27.0687,0,0,3.27642,5
1774533163565,0.186726,1.07804,0.298905,181.076,26.3431,-34.4502,0,0,3.26564,5
1774533163578,-0.242145,1.29197,0.297608,191.015,47.2665,-43.2364,0,0,3.30977,5
1774533163592,0.0800459,1.06008,0.295654,193.832,39.3666,-21.8098,0,0,3.27444,5
1774533163605,-0.0261124,1.1018,0.187755,165.726,17.2984,-23.5801,0,0,3.25033,5
1774533163618,-0.18846,0.876243,0.0276039,139.993,10.4811,1.22063,0,0,3.27603,5
1774533163632,-0.196288,0.719742,0.00146746,103.436,9.41988,18.2972,0,0,3.26338,5
1774533163645,-0.0215019,0.908673,-0.0986228,77.0848,4.67953,17.0458,0,0,3.32157,5
1774533163659,-0.114737,0.919677,0.0434428,60.5196,0.419975,20.3968,0,0,3.27322,5
1774533163672,-0.0376054,0.898928,0.103998,52.298,-6.48071,23.7785,0,0,3.31888,5
1774533163686,-0.0375977,0.901855,0.0788599,45.0079,-4.07641,21.8474,0,0,3.27725,5
1774533163699,0.0224549,0.768568,0.0900868,25.7029,4.74783,5.58827,0,0,3.25487,5
1774533163712,-0.030024,1.05051,0.132808,21.5726,5.09159,7.22133,0,0,3.28077,5
1774533163726,-0.00610591,0.959482,0.0949745,21.6794,6.48851,-2.25926,0,0,3.25279,5
1774533163739,0.0529726,0.955811,0.134273,18.2444,8.25949,-7.00749,0,0,3.29085,5
1774533163752,0.0151405,0.951416,0.124513,16.3054,5.1604,-13.1907,0,0,3.27129,5
1774533163766,-0.0676187,1.00341,0.13745,15.5038,0.503956,-11.0535,0,0,3.31924,5
1774533163779,-0.192614,1.06884,0.116701,12.8932,-0.0839518,-1.79417,0,0,3.27246,5
1774533163793,-0.11036,1.01465,0.126708,11.5344,-4.66398,5.183,0,0,3.25798,5
1774533163806,-0.0864282,1.00855,0.113283,12.687,-5.32059,10.6411,0,0,3.27657,5
1774533163819,-0.0754406,1.02368,0.12329,12.9389,-4.36644,13.1297,0,0,3.25224,5
1774533163833,-0.0529808,1.04687,0.12622,14.3129,-3.45041,11.6871,0,0,3.35325,5
1774533163846,-0.00269058,1.0542,0.118897,13.1603,-2.72521,12.9923,0,0,3.44977,5
1774533163860,-0.0124502,0.984626,0.0690968,14.5954,-1.96185,5.41244,0,0,3.28481,5
1774533163873,0.00878694,0.984863,0.07373,16.0916,-2.37403,1.9085,0,0,3.27675,5
1774533163887,-0.0519959,0.951175,0.089598,16.2443,-3.22898,1.11453,0,0,3.32031,5
1774533163900,-0.0200227,0.935793,0.0837408,14.2062,-3.51144,0.129801,0,0,3.28101,5
1774533163913,-0.0341783,0.93872,0.0744638,11.5573,-5.32819,1.06867,0,0,3.24846,5
1774533163927,-0.0183121,0.947265,0.0786129,9.15274,-4.11454,1.01527,0,0,3.28224,5
1774533163940,-0.015137,1.02245,0.108395,12.1602,-2.93133,1.95417,0,0,3.26227,5
1774533163954,0.0114719,0.941658,0.0817898,11.4962,1.41208,-0.305276,0,0,3.35825,5
1774533163967,-0.0136694,0.979977,0.0866694,13.7099,5.41209,-0.717545,0,0,3.28129,5
1774533163981,-0.0146483,0.984619,0.0649436,12.1527,0.503964,-3.67167,0,0,3.88051,5
1774533163994,-0.0314925,0.993651,0.0849589,12.145,-0.160285,-3.41985,0,0,3.27531,5
1774533164008,-0.0263677,0.983888,0.0888668,10.8855,0.541964,-4.72515,0,0,3.27774,5
1774533164021,-0.0349113,0.991698,0.0798349,8.66419,0.106883,-5.67173,0,0,3.281,5
1774533164035,-0.0234386,0.992676,0.0710458,9.13739,-1.4198,-4.80919,0,0,3.27522,5
1774533164048,-0.0344227,0.999023,0.0808096,8.51147,-1.56488,-4.63359,0,0,3.43059,5
1774533164062,-0.0317385,1.02026,0.0874017,9.29769,-2.15265,-2.24435,0,0,3.27353,5
1774533164075,-0.0615205,0.989505,0.0617701,10.1068,-2.27481,-1.45041,0,0,3.26783,5
1774533164088,-0.0671381,1.00439,0.0556647,9.542,-2.90074,2.3892,0,0,3.27392,5
1774533164102,-0.0705563,0.999756,0.0661611,10.3817,-2.58016,4.52665,0,0,3.25157,5
1774533164115,-0.0563979,1.03125,0.0903296,12.6412,-1.96185,6.36636,0,0,3.2779,5
1774533164128,-0.0776346,1.0332,0.0644557,15.3969,-1.34353,9.53426,0,0,3.24585,5
1774533164142,-0.0637221,1.04321,0.0742178,17.8931,0.190794,13.0762,0,0,3.30287,5
1774533164155,-0.0334503,1.11669,0.0834952,23.5952,-2.58007,11.3588,0,0,3.26948,5
1774533164169,-0.0432119,1.11157,0.0881343,30.6028,-2.80915,15.7938,0,0,3.30327,5
1774533164182,-0.0471187,1.14013,0.103514,32.0076,-2.61833,19.7174,0,0,3.28935,5
1774533164195,0.0180599,1.23095,0.17553,35.0381,-4.40453,24.4273,0,0,3.26968,5
1774533164209,-0.0544361,1.40843,0.208737,44.1448,-3.64888,24.4351,0,0,3.28403,5
1774533164222,-0.0402846,1.43701,0.22827,63.3735,-5.03813,24.5954,0,0,3.25014,5
1774533164235,-0.0500479,1.44873,0.235107,80.7247,-3.27486,23.0535,0,0,3.29372,5
1774533164249,-0.0351577,1.47119,0.268307,99.259,-4.44271,23.8473,0,0,3.28398,5
1774533164262,-0.0439444,1.40259,0.253175,116.007,-1.79397,23.6107,0,0,3.26566,5
1774533164276,0.0561423,1.37207,0.222659,137.183,-3.1908,17.9773,0,0,3.2732,5
1774533164289,-0.0170825,1.44701,0.300529,152.717,-5.37398,14.649,0,0,3.33242,5
1774533164303,0.0405216,1.69333,0.416736,182.595,-7.37399,14.3817,0,0,3.29568,5
1774533164316,0.132559,1.89207,0.553941,215.831,-10.0915,11.8321,0,0,3.25616,5
1774533164329,0.187983,1.97314,0.633293,249.335,-19.244,5.58797,0,0,3.28055,5
1774533164343,0.257561,2.1162,0.770006,250.13,-28.9463,-1.7784,0,0,3.27296,5
1774533164356,0.0876635,2.63081,0.95213,250.13,-37.8471,-1.54199,0,0,3.29042,4
1774533164372,0.00879695,2.41823,0.742941,250.13,-29.8094,-3.64116,0,0,5.57318,4
1774533164385,0.119374,2.27077,0.618421,250.13,-37.9005,30.2509,0,0,3.28955,4
1774533164400,-0.0883581,2.09181,0.355251,250.13,-39.2824,21.6338,0,0,4.79346,4
1774533164414,0.152076,1.91286,0.647432,250.13,-42.206,51.9533,0,0,3.76038,4
1774533164427,0.421604,1.45512,1.18183,250.13,-69.0145,98.5635,0,0,3.27146,4
1774533164441,0.50463,1.06498,1.44626,250.13,-107.251,101.84,0,0,3.28503,4
1774533164454,0.0837823,1.60834,-0.0215817,250.13,-120.946,75.0695,0,0,3.29279,4
1774533164468,-0.330037,-0.882075,0.242649,250.13,-94.642,55.0082,0,0,3.27718,4
1774533164481,-0.520977,-0.0493997,-0.174763,250.13,-64.5811,31.4129,0,0,3.26644,4
1774533164494,-0.973588,-1.10658,-0.313219,220.528,-0.276738,15.0921,0,0,3.27625,4
1774533164508,-0.91651,-1.12378,-0.305909,110.744,78.0816,-34.8229,0,0,3.2734,4
1774533164522,-0.5806,-1.12134,-0.173841,8.20918,133.685,-77.3957,0,0,3.27572,4
1774533164536,-0.305692,-0.748817,-0.0300437,-85.2796,162.014,-84.9769,0,0,3.57346,1
1774533164549,0.0448868,-0.523948,0.118393,-153.96,156.939,-79.336,0,0,3.28653,1
1774533164562,0.431602,-0.333027,0.112061,-209.624,125.177,-59.1838,0,0,3.27087,1
1774533164576,0.741424,-0.236338,0.050055,-250.136,77.0014,-55.7864,0,0,3.28963,1
1774533164590,0.892563,-0.133067,0.0495606,-250.137,25.7573,-74.3582,0,0,3.2532,5
1774533164604,0.761244,-0.146239,0.0397959,-250.137,-23.7466,-96.7398,0,0,4.76009,5
1774533164618,0.474882,-0.0854553,0.107415,-250.137,-66.6018,-108.45,0,0,3.25872,5
1774533164632,0.258567,0.0727381,0.214345,-250.137,-95.1747,-107.992,0,0,3.85374,5
1774533164645,0.120131,0.42184,0.295646,-250.137,-116.099,-91.4814,0,0,3.27137,5
1774533164659,0.0312589,0.805382,0.40038,-250.137,-126.046,-56.7339,0,0,3.26044,5
1774533164672,-0.159405,1.10764,0.358891,-250.137,-128.87,-8.65793,0,0,3.27605,5
1774533164685,-0.397681,1.17773,0.320316,-250.137,-113.291,29.9072,0,0,3.2564,5
1774533164700,-0.539781,1.27904,0.194104,-250.137,-64.6732,21.3743,0,0,3.29224,5
1774533164714,-0.552001,1.27808,0.128669,-250.137,-14.345,-3.06034,0,0,3.26164,5
1774533164728,-0.42677,1.34301,0.149168,-250.137,25.4187,-14.1447,0,0,4.72799,5
1774533164742,-0.108674,1.59787,0.268787,-250.137,48.3428,-1.3439,0,0,3.25761,3
1774533164755,0.136938,1.68456,0.300046,-250.137,49.7557,32.6402,0,0,3.50588,3
1774533164769,0.281236,1.62256,0.318846,-250.137,43.2979,58.9458,0,0,3.27468,3
1774533164782,0.285644,1.88694,0.385491,-250.137,36.0155,74.053,0,0,3.24918,3
1774533164797,0.257571,2.37202,0.335942,-250.137,25.4965,81.8471,0,0,3.27983,3
1774533164810,0.145763,2.49437,0.109398,-250.137,16.8552,74.5193,0,0,3.25492,3
1774533164824,-0.0517381,2.4336,-0.142797,-250.137,15.2062,53.9166,0,0,3.28487,3
1774533164838,-0.116693,2.48291,-0.376441,-250.137,17.8091,35.0311,0,0,3.25322,3
1774533164853,-0.0329674,2.5891,-0.579325,-228.588,15.4352,26.2064,0,0,4.69707,5
1774533164866,0.165507,2.35915,-1.0644,-167.384,1.44317,21.2063,0,0,3.29361,5
1774533164881,0.76703,2.09109,-1.43063,-111.811,-12.3889,-36.2502,0,0,3.89399,5
1774533164894,0.218317,2.47042,-1.56298,-38.2846,-45.5944,-7.62681,0,0,3.29218,5
1774533164908,-0.516528,2.01958,-1.63183,20.8914,-45.6107,34.4491,0,0,3.27137,5
1774533164921,-1.16766,2.1638,-0.128812,54.0295,14.0593,-3.45688,0,0,3.27887,5
1774533164934,0.246685,0.442067,0.723059,250.124,48.3577,-69.9904,0,0,3.2739,5
1774533164948,0.074236,-0.215022,0.685307,172.735,5.52037,-80.7936,0,0,3.27788,5
1774533164961,-0.219941,0.542893,0.671388,177.954,71.5629,-108.381,0,0,3.27466,5
1774533164975,-0.298576,1.14887,0.34183,181.901,66.7101,-55.223,0,0,3.27637,5
1774533164988,-0.144303,1.36546,0.212659,200.511,43.7182,-17.7339,0,0,3.23885,5
1774533165002,0.0556441,0.110721,0.281487,206.069,24.1304,-31.0988,0,0,3.54433,5
1774533165015,-0.275113,1.15419,0.252444,195.626,-0.358044,0.84637,0,0,3.26524,5
1774533165029,-0.14845,0.775184,0.0410368,157.917,-7.79367,22.4574,0,0,3.26353,5
1774533165042,-0.208246,0.870352,0.0122099,124.65,-3.92378,33.5951,0,0,3.29346,5
1774533165055,-0.099132,0.876952,-0.0407662,93.3063,-4.4809,28.9696,0,0,3.28,5
1774533165069,-0.113036,1.00243,0.00341355,76.3059,3.27458,43.0912,0,0,3.28416,5
1774533165082,-0.0639697,0.971195,-0.0051261,61.8707,4.24425,37.5574,0,0,3.26957,5
1774533165096,-0.00122698,0.849377,0.0327111,48.1454,4.46564,31.6109,0,0,3.71712,5
1774533165110,0.082267,0.927971,0.0869086,40.3132,9.86243,20.4278,0,0,3.26316,5
1774533165123,0.0978988,0.89844,0.0239321,35.8322,12.5877,11.2904,0,0,3.27214,5
1774533165136,0.0700711,0.912596,0.136463,23.321,8.28257,8.3665,0,0,3.27307,5
1774533165150,0.0622566,0.967524,0.101566,17.7254,5.8703,2.05362,0,0,3.30863,5
1774533165163,0.0429707,0.919927,0.126218,14.5421,2.02302,-0.198406,0,0,3.28014,5
1774533165177,-0.00829566,0.964839,0.0922885,11.7482,1.20613,0.625929,0,0,3.27494,5
1774533165190,-0.0139155,1.00512,0.133297,10.939,0.0229363,0.648854,0,0,3.56525,5
1774533165204,-0.0239248,1.02783,0.124757,11.542,-3.04571,0.648855,0,0,3.80525,5
1774533165218,-0.00586118,0.981694,0.0974148,11.5573,-3.05343,2.05339,0,0,3.26168,5
1774533165233,-0.0390592,0.969484,0.0957033,12.0534,-2.3359,3.88544,0,0,4.77594,5
1774533165246,-0.0231949,0.960206,0.115721,10.5955,-2.94655,7.38157,0,0,3.24729,5
1774533165261,0.0434504,1.00952,0.122314,12.5267,-0.48099,4.14514,0,0,4.74714,5
1774533165274,0.0188013,0.926278,0.113526,13.3588,0.37402,2.40463,0,0,3.26264,5
1774533165288,0.0378399,0.95239,0.100831,11.5268,1.10685,-0.694564,0,0,3.26185,5
1774533165301,-0.0781134,1.07225,-0.00682517,11.6718,1.74807,-7.64101,0,0,3.27268,5
1774533165315,0.0295303,0.989754,0.106922,12.1145,-0.137348,-7.19849,0,0,3.82335,5
1774533165328,-0.014644,0.956058,0.0766632,12.2595,2.05337,-9.61061,0,0,3.27216,5
1774533165342,-0.0170896,0.968016,0.0676279,10.9237,0.854998,-10.771,0,0,3.25113,5
1774533165355,0.0158658,0.983153,0.072021,13.9083,-0.335842,-12.2671,0,0,3.27724,5
1774533165368,-0.0107395,0.968019,0.0776362,14.1527,0.946526,-13.3587,0,0,3.26157,5
1774533165382,-0.0654242,0.923588,0.063478,15.1374,0.816798,-12.5802,0,0,3.38561,5
1774533165396,-0.0900854,0.973872,0.0834941,16.4656,0.709927,-7.29024,0,0,3.2599,5
1774533165410,-0.0744645,0.991453,0.0625021,16.3206,3.748,-1.12232,0,0,3.84586,5
1774533165423,-0.0039133,1.03149,0.122308,14.0611,-0.580023,-0.694669,0,0,3.28196,5
1774533165437,-0.0405237,0.990971,0.0900911,18.0991,2.99226,1.67932,0,0,3.87035,5
1774533165450,-0.0346686,1.01343,0.090332,17.5038,-1.15255,2.12212,0,0,3.33877,5
1774533165464,-0.0166034,1.08129,0.0991202,25.1524,-1.99234,2.32824,0,0,3.27138,5
1774533165477,-0.0353985,0.993417,0.0730007,25.9923,-1.6565,3.27478,0,0,3.29114,5
1774533165491,-0.0551738,0.974855,0.064454,22.5268,-2.36639,6.29762,0,0,3.26583,5
1774533165506,-0.0390641,1.03271,0.0566414,19.3665,-1.96948,8.50375,0,0,5.00505,5
1774533165519,-0.0341802,1.05932,0.0786111,24.8472,-2.56487,11.435,0,0,3.28181,5
1774533165533,-0.0715295,1.07788,0.0754398,29.0686,-1.93132,11.7481,0,0,3.34696,5
1774533165549,-0.121333,1.10107,0.0522484,30.7862,-2.85493,20.6333,0,0,3.2989,5
1774533165563,-0.00733562,1.18481,0.110102,34.7174,-4.3282,32.3813,0,0,4.21064,5
1774533165577,-0.0314917,1.17432,0.100831,43.9463,-3.99238,29.2749,0,0,3.35209,5
1774533165590,-0.0163589,1.14722,0.075442,51.412,-3.9313,32.0992,0,0,3.28503,5
1774533165604,-0.0705512,1.14014,0.0671395,55.2976,-2.08402,30.8626,0,0,3.28564,5
1774533165617,0.0937336,1.24535,0.122309,61.0609,-4.66404,25.1376,0,0,3.27837,5
1774533165631,-0.0263552,1.23193,0.0781294,68.8776,-3.34355,21.5803,0,0,3.93148,5
1774533165645,0.124008,1.30346,0.16088,85.3812,-4.57248,17.8169,0,0,3.27557,5
1774533165658,0.0510327,1.30859,0.0463982,100.793,-5.61066,13.6566,0,0,3.83101,5
1774533165672,-0.0351476,1.32886,0.0695778,114.16,-5.35879,12.5573,0,0,3.2832,5
1774533165685,-0.0161152,1.38842,0.100339,127.763,-3.20617,11.5344,0,0,3.29842,5
1774533165699,0.00585718,1.47387,0.211415,143.641,-4.45034,13.7099,0,0,3.29181,5
1774533165714,0.0830001,1.52099,0.269525,162.015,-7.27472,13.0077,0,0,4.94983,5
1774533165727,0.117428,1.79026,0.340569,198.174,-9.96938,13.0305,0,0,3.45098,5
1774533165742,0.335916,1.9038,0.486069,231.61,-18.2593,8.67952,0,0,4.82142,5
1774533165756,0.233897,2.03295,0.609607,250.129,-24.3968,4.65661,0,0,3.29746,5
1774533165771,0.0110086,2.03198,0.569828,250.13,-24.7633,1.48864,0,0,4.72394,5
1774533165784,0.343473,2.26463,0.636712,250.13,-33.8394,-5.69444,0,0,3.3232,5
1774533165797,-0.102739,2.17384,0.396264,250.13,-33.6794,8.77056,0,0,3.28727,5
1774533165812,-0.0178308,1.54401,0.211444,250.13,-34.6412,39.1441,0,0,4.12427,5
1774533165825,-0.128651,2.11908,0.108897,250.13,-22.5576,21.1303,0,0,3.27403,5
1774533165839,0.179657,2.00099,0.334694,250.13,-37.8316,81.273,0,0,3.29679,5
1774533165852,0.400369,1.42755,0.599583,250.13,-77.5179,134.418,0,0,3.29803,4
1774533165866,0.304941,0.942431,0.908905,250.13,-104.076,130.58,0,0,3.29575,4
1774533165879,-0.771377,1.72233,0.801524,250.13,-41.5439,70.3148,0,0,3.304,4
1774533165892,-0.317184,-1.58927,-0.475702,250.13,5.70851,2.55165,0,0,3.29216,4
1774533165909,-0.370356,-0.232069,-0.521236,223.299,63.1051,-28.2586,0,0,6.3059,4
1774533165924,-0.125513,-0.354236,-0.473882,112.057,93.2892,-54.3656,0,0,4.42881,4
1774533165937,0.316362,-0.808304,-0.349378,28.3766,97.1526,-91.9454,0,0,3.30963,4
1774533165953,0.416494,-0.393108,-0.219251,-55.3257,73.0694,-95.5724,0,0,3.29939,4
1774533165967,0.410157,-0.195821,-0.159674,-103.151,39.8331,-76.3899,0,0,3.28085,4
1774533165980,0.35523,-0.157475,-0.0700773,-139.602,7.33685,-58.199,0,0,3.30316,5
1774533165994,0.310307,-0.160644,-0.010504,-171.129,-19.1213,-53.7559,0,0,3.27975,5
1774533166007,0.171401,-0.254629,-0.000489283,-205.434,-36.5873,-59.6105,0,0,3.29957,5
1774533166021,0.103522,-0.487526,0.00878813,-250.136,-48.3508,-78.2971,0,0,3.2874,5
1774533166034,0.0373601,-0.721412,0.067377,-250.137,-57.7096,-97.0987,0,0,3.30857,5
1774533166048,-0.00731975,-0.745847,0.247052,-250.137,-69.8699,-101.649,0,0,3.28961,5
1774533166061,-0.042477,-0.33842,0.499975,-250.137,-84.8316,-88.3897,0,0,3.70703,5
1774533166075,-0.112786,0.329279,0.743872,-250.137,-96.3126,-51.3065,0,0,3.59322,5
1774533166089,-0.0617727,0.859322,0.743408,-250.137,-102.114,-2.34498,0,0,3.3695,5
1774533166103,-0.154776,0.879637,0.654794,-250.137,-98.565,40.1285,0,0,3.87848,5
1774533166116,-0.320052,1.0515,0.531751,-250.137,-75.5121,40.6717,0,0,3.28188,5
1774533166130,-0.392327,0.986091,0.495609,-250.137,-37.2454,12.3596,0,0,3.32159,5
1774533166143,-0.182394,1.23923,0.523435,-250.137,-12.0008,-10.8848,0,0,3.28877,2
1774533166157,0.0549079,1.73725,0.581537,-250.137,-12.2748,3.22858,0,0,3.91542,2
1774533166171,0.0549316,2.0051,0.488291,-250.137,-18.0991,31.1976,0,0,3.28739,2
1774533166184,-0.197729,1.85402,0.40577,-250.137,-7.32093,46.7476,0,0,3.30048,2
1774533166197,-0.448217,1.96947,0.328133,-250.137,19.9228,48.6259,0,0,3.30007,2
1774533166211,-0.494868,2.25315,0.276128,-250.137,49.1747,50.4427,0,0,3.28726,2
1774533166224,-0.37843,2.56857,0.219732,-250.137,68.8544,54.58,0,0,3.29905,2
1774533166238,-0.209001,2.79881,0.0266306,-250.137,82.9385,40.7256,0,0,3.29727,2
1774533166251,-0.00172971,2.85644,-0.239231,-250.137,94.7325,4.90184,0,0,3.31298,2
1774533166265,0.504832,2.77638,-0.524386,-241.466,93.1298,-33.6935,0,0,3.31501,2
1774533166279,1.03291,2.69483,-0.749245,-192.269,59.0468,-30.2825,0,0,3.70422,2
1774533166292,1.28708,2.35257,-0.950419,-135.796,-14.7917,34.0286,0,0,3.2927,2
1774533166306,0.774709,1.99198,-1.13646,-100.841,-87.3795,99.5248,0,0,3.3014,2
1774533166319,-0.241109,2.01611,-1.18603,-52.4442,-104.816,86.3134,0,0,3.29505,2
1774533166333,-1.22866,1.82595,-1.37498,-0.299274,-60.6273,34.1619,0,0,3.31003,5
1774533166346,-1.03884,1.53982,-1.31739,40.9988,3.29579,-46.8067,0,0,3.31005,5
1774533166359,-0.472713,1.81174,-1.04812,80.5103,29.6175,-78.0754,0,0,3.27272,5
1774533166374,0.0641553,1.76978,0.453951,162.204,-41.1658,-32.8182,0,0,3.94007,5
1774533166387,-0.0759137,0.389786,1.20647,169.152,-40.6031,-107.349,0,0,3.32138,5
1774533166401,-0.359591,0.856643,0.301848,194.221,-2.37519,-89.8937,0,0,3.33585,5
1774533166414,-0.561991,0.802007,0.313231,187.725,16.4193,-27.8874,0,0,3.29353,5
1774533166428,0.111505,1.01072,0.272709,185.069,26.6485,-21.0002,0,0,3.3907,2
1774533166442,-0.0226917,1.09911,0.288817,185.656,2.28317,-31.0608,0,0,4.02079,2
1774533166455,-0.295627,0.979992,0.209725,174.061,-5.50358,-5.97022,0,0,3.39957,2
1774533166469,-0.184337,0.961916,0.160405,143.795,-7.66406,7.20571,0,0,3.32324,2
1774533166483,-0.089365,0.977049,0.15625,123.344,0.274571,9.40451,0,0,3.32353,2
1774533166497,-0.0625027,0.857922,0.0935121,98.8175,4.16019,13.0152,0,0,4.01713,2
1774533166511,-0.0068415,0.873778,0.0507855,75.7641,4.47327,5.01551,0,0,3.27448,2
1774533166524,-0.170638,0.962149,0.122307,69.0307,9.27467,14.244,0,0,3.29438,2
1774533166537,-0.0444462,1.00512,0.0529854,67.397,14.0533,13.3588,0,0,3.28316,2
1774533166551,-0.0307631,0.946539,-0.117903,59.4506,17.4426,10.71,0,0,3.30224,2
1774533166564,-3.07569e-06,0.700952,0.0851848,31.3367,9.09185,2.17583,0,0,3.28594,2
1774533166578,-0.0329557,0.981417,0.143305,17.634,4.31312,4.73275,0,0,3.29401,2
1774533166592,-0.0466295,0.970704,0.114505,19.5801,2.77104,10.0151,0,0,4.06924,5
1774533166608,-0.0297868,0.9729,0.148922,13.5422,-1.59529,10.1756,0,0,5.87601,5
1774533166622,-0.0339351,1.01782,0.163817,14.8626,-0.244315,9.93894,0,0,3.38766,5
1774533166635,-0.0776323,1.01489,0.153321,15.0153,-2.97702,12.5801,0,0,3.37703,5
1774533166649,-0.0620133,1.03564,0.191891,15.2519,-2.64123,20.1982,0,0,3.84903,5
1774533166663,-0.0495618,1.02759,0.122077,16.3664,-3.33586,21,0,0,3.31385,5
1774533166676,-0.00415493,0.999515,0.110353,15.2977,-2.24431,20.8397,0,0,3.29527,5
1774533166690,0.0395464,0.994385,0.0495666,16.374,-2.13741,17.8474,0,0,3.29274,5
1774533166703,0.0354008,0.940923,0.0922809,14.2901,-1.73284,14.5039,0,0,3.29972,5
1774533166716,0.0424798,0.957762,0.105223,12.1375,-2.21373,8.69483,0,0,3.29157,5
1774533166732,0.00293364,0.898688,0.0227133,9.54206,-2.80914,5.03064,0,0,4.91733,5
1774533166746,-0.0058585,1.01122,0.0949635,9.20612,-4.1679,3.16036,0,0,4.08933,5
1774533166759,0.0197728,0.96436,0.117429,9.78624,-4.01527,1.7863,0,0,3.24977,5
1774533166772,-0.0112274,0.977538,0.0749554,8.77866,-4.29007,0.0611205,0,0,3.30468,5
1774533166786,0.0134253,0.980713,0.0861805,6.66419,-4.82441,0.870205,0,0,3.29729,5
1774533166801,0.0153807,0.971436,0.105467,9.13733,-2.53442,-1.73275,0,0,4.92775,5
1774533166814,0.00488386,0.964844,0.0983894,10.2824,-3.08395,-3.2137,0,0,3.29203,5
1774533166828,-0.0356405,0.983641,0.0622595,10.8702,-3.03054,-1.57257,0,0,3.25905,5
1774533166841,0.00780816,0.954837,0.0727529,10.6718,-1.6947,-2.79386,0,0,3.31451,5
1774533166855,0.0117184,1.03368,0.0419953,15.2441,2.31286,-3.18319,0,0,3.25612,5
1774533166869,0.00268645,1.0022,0.0627421,14.4809,-2.65634,-3.61831,0,0,4.03416,5
1774533166882,0.119373,0.930915,0.885904,16.5496,-7.70977,14.3582,0,0,3.31799,5
1774533166896,0.0224706,0.915529,0.099688,-4.45739,-6.42752,-10.5641,0,0,3.28401,5
1774533166909,0.00146694,1.00951,0.0881359,12.9995,-1.71007,-1.38195,0,0,3.29433,5
1774533166923,-0.0119615,0.982913,0.0720231,10.565,-2.54959,-4.73272,0,0,3.29603,5
1774533166936,-0.0339333,0.998289,0.0629892,13.4045,-1.28248,-4.17559,0,0,3.33855,5
1774533166950,-0.0278326,1.00635,0.0756823,13.2824,-1.29008,-3.20614,0,0,3.41579,3
1774533166963,-0.0246585,1.01392,0.0605484,12.9008,0.305296,-2.6107,0,0,3.33783,3
1774533166977,-0.0573698,0.986819,0.0522469,12.8321,-0.114491,-0.916081,0,0,3.38555,3
1774533166990,-0.0366232,1.01489,0.0747048,11.855,-0.740439,2.78615,0,0,3.39538,3
1774533167004,-0.0695768,1.03393,0.0739747,11.9084,-0.854958,5.05337,0,0,3.33527,3
1774533167017,-0.0446802,1.04443,0.0708011,14.3511,-0.885495,8.32051,0,0,3.30059,3
1774533167031,-0.0529777,1.02979,0.0515156,14.4504,-1.47326,12.0381,0,0,3.34255,5
1774533167044,-0.0185581,1.06445,0.0617666,15.9313,-1.74045,14.7938,0,0,3.3025,5
1774533167058,0.0170863,1.04859,0.0607911,18.1526,-2.65646,16.0687,0,0,3.3014,5
1774533167072,-0.00170711,1.08056,0.0590822,21.0152,-1.81682,19.1297,0,0,3.34768,5
1774533167086,0.00805566,1.08594,0.0815407,23.0457,-3.41217,16.6795,0,0,4.07574,5
1774533167099,0.00756841,1.09082,0.0754401,27.2518,-3.08398,18.9847,0,0,3.2974,5
1774533167113,0.0434534,1.12109,0.0825188,30.6411,-3.6183,15.3589,0,0,3.31103,5
1774533167126,0.0053749,1.15942,0.0720225,38.7097,-4.16792,17.6946,0,0,3.48025,5
1774533167140,0.00219758,1.15649,0.0607921,44.4578,-4.53434,16.2825,0,0,3.36,5
1774533167153,-0.036129,1.21215,0.0788556,51.3051,-4.71755,17.1145,0,0,3.35027,5
1774533167167,0.0114698,1.14649,0.0791015,58.3433,-4.96182,15.2443,0,0,3.49962,5
1774533167181,-0.0388133,1.27074,0.105466,65.641,-2.35122,18.9007,0,0,3.77801,5
1774533167194,0.0285577,1.16847,0.0612837,78.4805,-3.93888,15.1223,0,0,3.30498,5
1774533167208,-0.0549233,1.13013,0.0117237,83.1983,-2.74813,18.0991,0,0,3.27374,5
1774533167221,-0.00879368,1.18432,0.0368627,89.038,-1.78629,18.8778,0,0,3.29527,5
1774533167235,-0.0388154,1.23583,0.0935002,98.4425,-1.79389,19.1145,0,0,3.31509,5
1774533167248,0.0309989,1.33886,0.1145,114.198,-3.51903,19.2595,0,0,3.3192,5
1774533167262,0.0954525,1.34766,0.116943,129.412,-7.30523,22.7175,0,0,3.27775,5
1774533167275,0.0947266,1.4558,0.168696,148.465,-8.32821,20.3741,0,0,3.31092,5
1774533167289,0.1394,1.41529,0.197263,163.778,-9.67172,20.3206,0,0,3.44138,5
1774533167303,0.134766,1.43262,0.138922,181.236,-13.4426,19.7023,0,0,3.88494,5
1774533167316,0.100589,1.38526,0.014905,201.747,-12.4275,18.2214,0,0,3.30713,5
1774533167330,0.226062,1.39258,0.0866627,210.16,-17.3052,10.0689,0,0,3.32431,5
1774533167343,0.233642,1.35645,0.0771494,225.786,-18.4732,4.14522,0,0,3.32449,5
1774533167357,0.16944,1.54734,0.0913072,243.587,-16.4581,-1.31281,0,0,3.28183,5
1774533167370,0.245598,1.55005,0.0532265,250.13,-23.2822,-2.21371,0,0,3.33757,5
1774533167384,0.171882,1.55493,-0.103012,250.13,-25.8473,7.70199,0,0,3.31851,5
1774533167398,0.135013,1.51001,-0.156977,250.13,-34.1448,27.2361,0,0,3.79737,5
1774533167411,-0.210171,1.41383,-0.457489,250.13,-25.359,13.9164,0,0,3.29585,5
1774533167424,-0.0837529,1.23195,-0.418461,250.13,-21.1681,37.9306,0,0,3.3309,5
1774533167438,0.126444,1.395,-0.108429,250.13,-35.8545,73.6936,0,0,3.2937,5
1774533167451,0.0817916,1.34693,-0.00806668,250.13,-55.1826,102.671,0,0,3.28794,5
1774533167465,0.160637,0.727357,0.178692,250.13,-72.3812,112.328,0,0,3.41894,5
1774533167479,0.158203,0.786859,0.295154,246.305,-75.9236,78.4743,0,0,3.36359,5
1774533167492,0.175047,-0.811364,-1.22226,236.977,-71.9467,24.0169,0,0,3.39983,5
1774533167506,-0.255084,-0.3001,-0.66363,112.584,-49.4663,-6.85404,0,0,3.34185,5
1774533167520,-0.301509,-0.681114,-0.626469,39.7732,-23.0084,-46.0828,0,0,3.84075,5
1774533167533,-0.220467,-0.354525,-0.497327,-21.3035,-3.8937,-56.076,0,0,3.30018,5
1774533167547,-0.118663,-0.223646,-0.394297,-77.5785,3.35093,-50.962,0,0,3.29235,5
1774533167560,-0.0932643,-0.16773,-0.332037,-120.64,1.70997,-34.4051,0,0,3.32781,1
1774533167574,-0.146479,-0.12891,-0.315431,-156.694,1.20612,1.93021,0,0,3.323,1
1774533167587,-0.211663,-0.0852094,-0.302736,-185.396,-0.450332,30.5869,0,0,3.33703,1
1774533167601,-0.239011,0.157691,-0.296143,-198.061,7.13718,36.9082,0,0,3.29885,1
1774533167615,-0.300531,0.250235,-0.320798,-204.977,22.9537,23.9393,0,0,3.90544,1
1774533167628,-0.318358,0.106704,-0.360592,-210.565,43.4727,-0.884751,0,0,3.28494,1
1774533167642,-0.165299,-0.106424,-0.371581,-226.839,55.2516,-25.9992,0,0,3.27196,1
1774533167655,0.0488067,0.0280627,-0.272715,-246.732,50.4429,-39.0378,0,0,3.29735,1
1774533167669,0.181383,0.0859317,-0.28369,-250.137,33.5883,-39.7557,0,0,3.34324,1
1774533167682,0.283193,0.133052,-0.249759,-250.137,8.5809,-32.9926,0,0,3.33016,1
1774533167696,0.244389,0.39719,-0.217288,-250.137,-16.6786,-21.1759,0,0,3.29698,5
1774533167709,0.0217508,0.663792,-0.233153,-250.137,-31.1064,-11.6033,0,0,3.36457,5
1774533167724,-0.258761,0.861064,-0.269283,-250.137,-25.1605,-13.0916,0,0,3.29616,5
1774533167738,-0.365956,0.805425,-0.40941,-241.061,-6.39751,-28.1599,0,0,3.98146,5
1774533167752,-0.279061,0.657974,-0.42163,-246.74,7.3889,-38.5493,0,0,3.2865,5
1774533167765,-0.226812,1.02291,-0.375981,-250.137,13.3281,-36.9924,0,0,3.26577,5
1774533167778,-0.167486,1.17577,-0.379882,-243.565,17.9159,-35.6565,0,0,3.30714,5
1774533167792,-0.0954662,1.19897,-0.4165,-240.344,21.0686,-36.3282,0,0,3.28361,5
1774533167805,0.127175,1.22705,-0.349128,-247.901,15.9315,-30.0842,0,0,3.39152,5
1774533167819,0.300032,1.54733,-0.292242,-242.191,4.75606,-17.2905,0,0,3.34592,5
1774533167833,0.218758,1.91988,-0.331295,-217.062,-0.534192,-9.77885,0,0,3.4784,5
1774533167846,0.0537274,1.84742,-0.444325,-194.474,8.40431,-12.5114,0,0,3.2935,5
1774533167860,0.0217317,2.09275,-0.498774,-167.978,22.6637,-15.6335,0,0,3.73025,5
1774533167873,0.0451637,2.61201,-0.620105,-106.345,33.1676,-7.25216,0,0,3.29375,5
1774533167887,-0.0656627,2.07647,-0.884983,-64.8028,46.0072,21.3045,0,0,3.33033,5
1774533167901,-0.186511,2.02344,-0.96215,-39.5046,70.2588,40.0376,0,0,3.60512,5
1774533167914,-0.535854,3.99968,-0.473193,70.6379,53.512,21.0158,0,0,3.28881,5
1774533167929,-0.115765,-0.66384,-1.14105,109.213,59.6945,20.8092,0,0,5.12983,5
1774533167943,0.0522293,0.107101,0.145135,-54.0256,-19.6388,3.1074,0,0,3.50379,5
1774533167957,0.61176,2.18534,0.316877,26.7609,2.34285,-0.717443,0,0,3.96399,5
1774533167971,0.183392,0.342714,0.0588637,22.7635,3.03815,-31.4266,0,0,3.30374,5
1774533167984,-0.0173139,1.06609,0.0751937,-6.2205,-2.34335,-11.5807,0,0,3.27251,5
1774533167998,-0.00195466,1.15795,0.124751,19.2893,2.67924,-39.8083,0,0,3.31185,5
1774533168012,-0.211649,0.883572,-0.0322109,8.78657,-1.29759,-20.8861,0,0,3.65868,5
1774533168026,-0.126717,1.0388,0.0322201,7.59546,-1.03818,-10.7942,0,0,4.26511,5
1774533168039,-0.165768,0.997319,0.026856,3.72531,-1.6412,-1.74073,0,0,3.28922,5
1774533168053,-0.160401,1.00976,0.0422348,3.04582,-1.27482,11.4271,0,0,3.28516,5
1774533168066,-0.0932684,1.02856,0.0817832,1.7634,-1.08398,17.1907,0,0,3.29151,5
1774533168079,0.0124406,1.02173,0.0678725,5.15257,-0.251933,16.4733,0,0,3.32414,5
1774533168093,0.0285628,0.986088,0.073974,4.60307,1.01523,10.9467,0,0,3.28037,5
1774533168106,0.0427232,0.989746,0.0708011,4.37405,1.99997,5.95435,0,0,3.34709,5
1774533168120,0.0319835,0.973879,0.0529803,3.22141,1.2214,0.137579,0,0,3.32483,5
1774533168133,-0.00317031,0.982665,0.0388198,2.03057,0.236671,-1.9694,0,0,3.26861,5
1774533168146,-0.0268531,0.967043,0.0458977,0.305395,-0.770962,-1.54963,0,0,3.26711,5
1774533168160,-0.0353995,0.995114,0.0466308,1.07631,-1.30533,-0.793916,0,0,3.27351,5
1774533168174,-0.0400386,0.973147,0.0476073,-0.68697,-1.29008,1.76328,0,0,3.46327,5
1774533168188,-0.0405273,0.999509,0.0690896,0.885449,-0.832075,2.9847,0,0,3.43807,5
1774533168201,-0.0441891,1.00171,0.0534684,2.13737,0.114475,4.16027,0,0,3.46535,5
1774533168215,-0.0239278,1.00415,0.0605462,3.75568,1.07631,4.48091,0,0,3.31783,5
1774533168229,-0.0209964,1.00439,0.0737292,4.63356,1.83967,4.83205,0,0,3.33392,5
1774533168242,-0.000734448,0.989259,0.04761,4.68702,1.90076,3.94659,0,0,3.28988,5
1774533168256,-0.0205058,0.984131,0.0605456,3.57255,1.50383,3.46566,0,0,3.34201,5
1774533168271,-0.0244137,0.981446,0.031497,1.97715,0.404613,3.26718,0,0,3.29257,5
1774533168285,-0.032714,0.997313,0.0498029,1.60306,-0.228989,4.34348,0,0,3.33396,5
1774533168299,-0.0239267,0.998291,0.0637193,1.47329,-0.297708,4.96945,0,0,3.27622,5
1774533168313,-2.39219e-06,1.01831,0.0615237,3.03049,-0.00764229,2.90846,0,0,3.28618,5
1774533168326,-0.0129382,0.994143,0.0429706,3.65647,0.778602,2.77863,0,0,3.28474,5
1774533168339,-0.0231923,1.00146,0.02466,4.15266,1.6412,2.61833,0,0,3.28761,5
1774533168353,-0.0729931,0.974124,0.0349111,2.70997,2.17556,5.87776,0,0,3.25962,5
1774533168366,-0.0468776,0.984862,0.0412591,1.59545,2.00764,9.58004,0,0,3.26637,5
1774533168380,-0.0219751,0.996825,0.0534656,1.56489,0.419895,11.3587,0,0,3.26946,5
1774533168393,0.0090301,0.988526,0.0603021,0.0153137,-0.862557,10.4886,0,0,3.266,5
1774533168406,0.0146479,0.990722,0.058838,0.0229005,-1.5267,9.24431,0,0,3.243,5
1774533168420,0.0168455,0.971926,0.0515144,-1.0992,-2.40455,7.00007,0,0,3.2934,5
1774533168433,0.00952222,0.987303,0.043702,-1.0687,-2.53435,5.26723,0,0,3.24455,5
1774533168446,0.0229479,1.00049,0.0446776,-1,-3.25952,4.04584,0,0,3.26872,5
1774533168460,-0.00683296,1.00195,0.0512689,-1.17557,-2.83207,4.6641,0,0,3.26505,5
1774533168473,0.0200168,1.00244,0.0463872,-0.641237,-2.99236,3.25958,0,0,3.28246,5
1774533168486,0.0166019,0.999756,0.0500485,-0.778622,-3.47327,2.55727,0,0,3.2704,5
1774533168500,0.00708103,1.00146,0.0556635,-1.06869,-3.12978,2.30535,0,0,3.27596,5
1774533168514,0.0207506,1.01074,0.0424818,-1.00764,-3.94654,0.549671,0,0,3.29977,5
1774533168532,-0.0185508,1.00073,0.0629862,-1.51144,-4.81677,3.19839,0,0,7.99666,5
1774533168546,0.0187951,1.02246,0.0549324,-0.801548,-5.44273,3.42747,0,0,3.28085,5
1774533168559,-0.00073047,0.99512,0.0463876,-1.11449,-5.57252,3.07635,0,0,3.27514,5
1774533168573,0.0236792,0.996826,0.0461426,-1.23664,-5.49619,2.21377,0,0,4.43529,1
1774533168587,0.0239258,0.996582,0.0581043,-1.12977,-5.48855,-0.106801,0,0,3.27398,1
1774533168600,0.0168464,0.985353,0.0358909,-1.35877,-6.35875,-0.816773,0,0,3.25742,1
1774533168614,-0.0126924,0.996825,0.0532209,-1.35878,-6.19848,0.786211,0,0,3.47899,3
1774533168627,0.027828,0.990235,0.0439462,-1.64885,-7.18318,-0.14501,0,0,3.25472,3
1774533168642,0.0217291,0.974611,0.0424806,-2.56486,-8.35874,-0.992341,0,0,4.89231,3
1774533168656,0.0432107,0.994139,0.0327158,-2.35115,-8.91601,-3.42741,0,0,3.25755,3
1774533168670,0.0144072,0.961185,0.0236825,-4.64879,-10.2671,-4.74805,0,0,4.33655,3
1774533168683,0.0415012,0.99194,0.0700637,-4.55725,-11.5419,-6.1908,0,0,3.27529,3
1774533168697,0.0424804,0.991211,0.0710448,-3.69468,-11.2061,-6.91601,0,0,3.28011,3
1774533168710,-0.0458896,1.00586,0.0637214,-2.69469,-10.7863,-8.1221,0,0,3.2749,3
1774533168723,-0.0102575,0.989015,0.039065,-2.30536,-9.68706,-6.45043,0,0,3.27196,3
1774533168737,-0.0144039,0.988281,0.06323,-3.29005,-10.145,-4.81684,0,0,3.41244,3
1774533168751,-0.0146484,0.985108,0.0493178,-3.44274,-9.6794,-3.97712,0,0,3.2382,3
1774533168766,-0.011719,0.97461,0.0676251,-4.51142,-9.00765,-5.22134,0,0,4.81331,3
1774533168779,-0.024901,0.990965,0.059327,-5.42745,-8.16033,-3.6489,0,0,3.24157,3
1774533168793,-0.00561716,0.992676,0.0515145,-6.29768,-7.37407,-4.25189,0,0,3.91431,3
1774533168806,0.0212375,0.996826,0.0507813,-6.70228,-6.80154,-6.17551,0,0,3.26796,3
1774533168820,-0.00585667,0.993897,0.0773899,-7.61829,-6.60306,-7.81674,0,0,3.27974,3
1774533168833,-0.00805642,1.00561,0.0773926,-8.32822,-6.28245,-7.65649,0,0,3.27713,3
1774533168847,0.000975659,1.01196,0.0764161,-8.46564,-7.00761,-8.12212,0,0,3.63772,3
1774533168860,-0.0100087,1.01929,0.0693366,-8.66412,-7.76334,-7.45804,0,0,3.28944,3
1774533168874,0.00927542,1.01636,0.0720212,-8.64886,-10.4885,-6.33591,0,0,3.25961,3
1774533168887,0.00268621,1.00928,0.102536,-9.19082,-15.0304,-4.4428,0,0,3.30103,3
1774533168900,0.0742116,1.0044,0.108642,-9.14504,-20.0457,-2.88554,0,0,3.26464,3
1774533168914,0.112301,1.04614,0.0910662,-7.22143,-27.1983,-5.38924,0,0,3.38505,3
1774533168927,0.17431,1.03589,0.132808,-2.61083,-33.5571,-5.45801,0,0,3.27674,3
1774533168941,0.334701,1.04956,0.178706,0.488457,-46.824,-6.03815,0,0,3.25429,3
1774533168954,0.925966,1.04395,0.332748,4.09913,-81.8005,3.27453,0,0,3.30409,3
1774533168967,1.86246,1.00049,0.509016,3.80917,-182.501,17.45,0,0,3.25646,3
1774533168981,1.64333,0.837175,0.645006,-6.28214,-250.135,18.3817,0,0,3.28309,3
1774533168994,1.47292,0.881343,0.801498,-7.00761,-250.137,-17.4417,0,0,3.26944,3
1774533169008,1.29079,1.00804,0.799561,2.2898,-250.137,-46.0068,0,0,3.67792,3
1774533169021,1.17067,1.03296,0.730476,16.0378,-250.137,-72.4725,0,0,3.28,3
1774533169037,0.790321,0.971198,0.674566,23.1754,-250.137,-121.846,0,0,3.28705,3
1774533169051,0.384806,1.08959,0.795154,45.0757,-250.137,-200.059,0,0,3.36738,3
1774533169064,-0.108105,0.327469,0.558129,55.9997,-250.137,-240.38,0,0,3.35238,3
1774533169078,-0.0732457,0.266608,0.641593,8.33731,-250.137,-203.077,0,0,3.28327,3
1774533169091,-0.162345,1.19644,0.695795,14.5571,-250.137,-137.262,0,0,3.27148,3
1774533169105,-0.359111,1.04347,0.61451,37.7092,-250.137,-72.8951,0,0,3.27907,3
1774533169118,-0.618626,1.01587,0.432879,42.0151,-250.137,-49.5656,0,0,3.3162,3
1774533169132,-0.704337,0.978763,0.309583,48.7784,-250.137,-68.1368,0,0,3.7332,3
1774533169145,-0.4988,0.924078,0.270512,55.7021,-250.137,-90.5718,0,0,3.27166,3
1774533169159,-0.266869,0.970454,0.334222,59.9388,-250.137,-91.2519,0,0,3.30942,3
1774533169172,-0.143811,0.99365,0.427481,69.2898,-250.137,-80.6034,0,0,3.28179,3
1774533169186,-0.235831,0.827165,0.472408,67.1604,-250.137,-69.2599,0,0,3.27444,2
1774533169199,-0.386704,0.806154,0.470459,62.4276,-250.137,-63.7025,0,0,3.31168,2
1774533169213,-0.475333,0.754156,0.46045,54.443,-250.137,-63.1374,0,0,3.44248,2
1774533169227,-0.452883,0.812738,0.455079,46.9315,-250.137,-62.4199,0,0,3.65881,2
1774533169240,-0.372078,0.811524,0.429446,42.878,-239.443,-58.252,0,0,3.28487,2
1774533169253,-0.215836,0.770268,0.448729,32.8476,-230.481,-49.901,0,0,3.25201,2
1774533169267,-0.0378596,0.916245,0.477536,30.7329,-230.359,-47.1375,0,0,3.27022,2
1774533169280,0.0932486,0.926513,0.515133,35.1754,-233.862,-46.9771,0,0,3.26496,2
1774533169294,0.167229,0.793714,0.529051,32.855,-242.16,-43.2749,0,0,3.28064,2
1774533169307,0.171386,0.726081,0.541014,20.5195,-250.137,-36.3514,0,0,3.29826,2
1774533169321,0.0839931,0.730468,0.545166,9.13775,-249.542,-35.9313,0,0,3.37031,2
1774533169334,-0.0226944,0.844715,0.541016,4.39709,-237.039,-40.2289,0,0,3.31035,2
1774533169348,-0.10839,0.803471,0.509281,6.69459,-217.329,-36.1833,0,0,3.65146,2
1774533169361,-0.182854,0.735602,0.510254,2.29784,-192.474,-20.3516,0,0,3.2795,2
1774533169375,-0.430395,0.787348,0.53613,-8.15236,-167.604,68.8065,0,0,3.27794,2
1774533169388,-1.95322,1.80312,0.474616,-63.5785,-89.1627,121.128,0,0,3.28396,2
1774533169402,-1.78957,0.827734,-0.129578,19.3105,2.1194,99.9243,0,0,3.27385,2
1774533169415,1.28631,1.00511,0.775788,-41.7539,2.92364,32.4295,0,0,3.31596,2
1774533169429,-0.253996,1.34127,0.167541,22.9523,-11.5568,6.03896,0,0,3.27809,2
1774533169443,-0.0273664,0.720765,0.0900956,-4.42666,0.12942,19.053,0,0,3.83592,2
1774533169456,0.0327088,1.24824,0.155267,15.1674,-1.0534,10.0155,0,0,3.28961,2
1774533169469,0.0336913,0.939972,0.11475,13.6947,4.00748,9.07636,0,0,3.26279,2
1774533169483,0.062253,1.02904,0.111328,15.5267,3.59543,1.03841,0,0,3.2762,2
1774533169496,0.0148973,0.958015,0.0632372,17.1221,3.58779,-4.57998,0,0,3.2677,2
1774533169510,-0.0285601,0.908452,0.0373561,10.1147,2.46568,-5.25189,0,0,3.28185,2
1774533169523,-0.0678672,0.9519,0.0400388,4.71009,-0.671662,-4.43514,0,0,3.30588,2
1774533169537,-0.031986,1.00976,0.0856888,5.19846,-3.061,-0.900869,0,0,3.29953,2
1774533169550,-0.0249031,0.989016,0.0686052,4.78627,-4.90834,-2.13737,0,0,3.33012,2
1774533169564,-0.0275876,1.03613,0.100583,4.24429,-5.2748,0.274737,0,0,3.66729,2
1774533169577,-0.0810493,1.01245,0.0459039,5.92361,-3.0764,-0.656461,0,0,3.27729,2
1774533169591,-0.0659195,1.01294,0.0695777,5.15269,-2.39697,-0.0381865,0,0,3.34138,5
1774533169604,-0.0629886,1.01416,0.0710448,6.25951,-1.79391,3.05334,0,0,3.27968,5
1774533169618,-0.0278355,1.02685,0.0776361,7.00761,-0.87789,2.6107,0,0,3.26348,5
1774533169631,-0.0454084,0.987065,0.0610368,5.75576,-1.08396,2.52672,0,0,3.32631,5
1774533169645,-0.0339367,1.00952,0.0512705,5.80916,-2.16027,2.40458,0,0,3.27909,5
1774533169658,-0.0407708,1.01123,0.0673812,4.58782,-3.06104,2.94655,0,0,3.83437,5
1774533169672,-0.00732756,0.998781,0.0568858,5.34349,-3.99234,1.21379,0,0,3.29377,5
1774533169685,-0.0085448,0.990235,0.0581053,4.30537,-3.80917,-0.244231,0,0,3.2609,5
1774533169699,-0.0205066,0.989258,0.0493173,5.06105,-3.22903,-2.03048,0,0,3.30577,5
1774533169712,-0.035643,0.988037,0.0446782,4.37407,-2.44277,-2.94654,0,0,3.27009,5
1774533169726,-0.0378416,0.971193,0.0427248,3.96184,-1.54965,-2.74046,0,0,3.4054,5
1774533169739,-0.0439447,0.980468,0.053954,3.57253,-0.618349,-3.61066,0,0,3.32155,5
1774533169753,-0.0329601,0.973145,0.0363787,3.58015,-0.0763521,-4.67936,0,0,3.29759,5
1774533169766,-0.0415031,0.981689,0.0371093,2.57255,0.213732,-4.78626,0,0,3.2805,5
1774533169780,-0.027101,0.971681,0.0463858,2.23665,0.07634,-5.85493,0,0,3.63124,5
1774533169794,-0.0463848,0.989256,0.0412603,1.93894,-0.290065,-6.37403,0,0,3.30201,5
1774533169807,-0.0598131,0.98999,0.0446774,1.32063,-0.664111,-4.55731,0,0,3.27729,5
1774533169821,-0.0407734,0.992187,0.0490718,1.45038,-1.27479,-4.58015,0,0,3.29203,5
1774533169834,-0.0593243,0.998046,0.0559075,0.984747,-1.35878,-2.87028,0,0,3.3075,5
1774533169848,-0.0683585,0.983888,0.0556641,0.358797,-2.09158,-1.55729,0,0,3.31974,5
1774533169861,-0.0327184,0.993651,0.0466318,0.992347,-2.4122,-1.70992,0,0,3.26861,5
1774533169875,-0.0537088,0.989014,0.0473632,-0.580105,-2.61831,-1.29009,0,0,3.89942,5
1774533169889,-0.0539551,1.00317,0.0480956,-0.122151,-2.44275,-0.351173,0,0,3.33333,5
1774533169902,-0.0329611,0.987062,0.0366222,-0.633572,-2.54962,-0.984714,0,0,3.25653,5
1774533169915,-0.0473618,0.985352,0.0361329,-0.999989,-2.59542,-1.69464,0,0,3.27113,5
1774533169929,-0.057372,0.992431,0.0454092,-1.8931,-2.33589,-1.04582,0,0,3.28824,5
1774533169942,-0.042482,0.993652,0.0520013,-1.7939,-2.48091,-0.954201,0,0,3.30087,5
1774533169956,-0.0480951,0.993652,0.0471196,-2.35876,-2.84732,-1.1832,0,0,3.25705,5
1774533169969,-0.0439457,0.988038,0.048828,-2.50381,-2.89313,-0.786271,0,0,3.28594,5
1774533169982,-0.0485835,0.994628,0.0488281,-3.03052,-3.29006,-1.83966,0,0,3.2815,5
1774533169996,-0.0634751,0.982911,0.0664045,-3.06107,-2.82444,-1.09926,0,0,3.62188,5
1774533170010,-0.105465,0.993163,0.0444358,-5.19841,-3.1145,0.0228671,0,0,3.26877,5
1774533170023,-0.0344309,0.989746,0.0466306,-3.72524,-2.3588,0.389302,0,0,3.26183,5
1774533170037,-0.0554178,0.946293,0.0251486,-7.4121,-1.71758,-1.69459,0,0,3.31725,1
1774533170050,-0.0529788,0.973142,0.0351552,-8.86255,-2.29769,-0.167985,0,0,3.254,1
1774533170063,-0.0566403,0.971192,0.0371092,-11.7785,-2.09161,-0.664107,0,0,3.35883,1
1774533170077,-0.074217,0.980468,0.0483387,-13.5877,-2.229,1.74802,0,0,3.29988,1
1774533170091,-0.0668953,1.05468,0.0920366,-12.3817,-1.2901,2.916,0,0,3.85492,1
1774533170105,-0.0383329,1.06763,0.125729,-8.37417,0.0686615,2.32826,0,0,3.27624,1
1774533170118,0.00243733,1.08862,0.130371,-1.78646,2.46558,-1.46554,0,0,3.25637,1
1774533170131,0.0290501,1.10376,0.152342,5.16773,4.86252,-10.9768,0,0,3.322,1
1774533170145,0.168199,1.10278,0.173094,12.1296,0.626081,-17.2594,0,0,3.33027,1
1774533170158,0.318588,1.02149,0.182128,15.7403,-18.9231,-21.0152,0,0,3.31864,1
1774533170172,1.57165,1.14574,0.262199,9.25974,-77.9906,27.0673,0,0,3.26155,3
1774533170185,1.59936,1.59541,0.551485,39.5334,-160.898,29.1679,0,0,3.32546,3
1774533170199,0.612647,1.05938,0.441417,49.8776,-195.877,7.65713,0,0,3.28196,3
1774533170213,0.217569,1.00098,0.273454,47.4047,-190.29,-27.8844,0,0,3.62868,3
1774533170226,0.252926,1.05493,0.2107,50.061,-189.374,-42.1904,0,0,3.27488,3
1774533170239,0.24585,0.810815,0.187014,51.0076,-193.87,-41.1603,0,0,3.30572,3
1774533170253,-0.340518,0.250788,0.138921,24.3519,-170.161,-24.5425,0,0,3.32003,3
1774533170266,-0.286382,0.627648,0.163328,-31.6548,-136.604,18.8384,0,0,3.26385,3
1774533170280,-0.259768,0.676753,0.201412,-33.5114,-111.627,33.8087,0,0,3.29724,3
1774533170293,-0.162119,0.967256,0.152349,-36.0534,-97.2752,39.6716,0,0,3.27401,3
1774533170307,-0.104742,0.671905,0.0781324,-36.0458,-90.8704,33.42,0,0,3.86035,3
1774533170321,-0.123289,0.877177,0.0656751,-40.6793,-89.4428,20.3515,0,0,3.28227,3
1774533170334,-0.143064,0.941644,0.0346711,-36.3665,-90.4809,2.90892,0,0,3.32185,3
1774533170347,-0.224357,1.02636,-0.00194946,-26.1606,-90.374,-10.679,0,0,3.28909,3
1774533170361,-0.326406,1.02905,-0.0214824,-15.9087,-85.2979,-15.0686,0,0,3.30405,3
1774533170374,-0.392327,1.04272,-0.00293154,-4.16829,-77.4048,-11.2291,0,0,3.26324,3
1774533170388,-0.42651,1.08276,0.0422318,10.595,-69.6109,0.778266,0,0,3.27585,2
1774533170401,-0.444822,1.28099,0.11718,41.1518,-60.382,4.62584,0,0,3.29981,2
1774533170415,-1.62122,0.408779,-1.78448,41.458,37.0123,-250.13,0,0,3.26727,2
1774533170428,-0.85701,1.1093,0.387478,-84.5153,-42.2953,37.7547,0,0,3.62029,2
1774533170442,-0.377001,1.63252,0.494862,6.44765,3.63984,0.901869,0,0,3.27218,2
1774533170455,-0.336674,0.800132,0.0344699,7.56485,2.78629,-15.6713,0,0,3.25483,2
1774533170469,-0.103783,1.0759,0.072506,-2.50351,-5.81654,9.64046,0,0,3.27855,2
1774533170482,0.0104866,0.952405,0.103757,0.778527,0.0837925,4.19864,0,0,3.32362,2
1774533170496,0.00195398,1.05224,0.131345,-0.473245,3.25181,-1.48075,0,0,3.33401,2
1774533170509,-0.0756758,1.01148,0.0974155,4.54183,5.28238,-1.02291,0,0,3.27126,2
1774533170523,-0.0441926,0.98511,0.0998533,3.73285,6.77858,-2.74804,0,0,3.82435,2
1774533170536,-0.0207543,0.990966,0.0993653,3.61069,6.61833,-4.17553,0,0,3.32588,2
1774533170550,0.010739,0.983887,0.0834977,2.78628,4.39701,-7.45792,0,0,3.2597,2
1774533170563,0.00585986,0.967531,0.0732432,0.496252,0.717668,-10.1526,0,0,3.27533,2
1774533170577,-0.0593197,0.912603,0.0676275,-4.9464,-1.87778,-8.0077,0,0,3.28713,2
1774533170590,-0.0808084,0.977777,0.0722652,-9.10675,-4.05337,-7.13743,0,0,3.34509,2
1774533170604,-0.0949693,1.01074,0.0749509,-8.87024,-5.67934,-0.80935,0,0,3.30879,2
1774533170617,-0.0939942,1.0022,0.0895981,-7.86263,-5.96946,2.43502,0,0,3.34072,2
1774533170630,-0.0603061,1.01929,0.0891114,-6.05349,-4.67179,3.93889,0,0,3.27035,5
1774533170644,-0.0522469,1.00269,0.102294,-4.03823,-2.80158,3.43513,0,0,3.67207,5
1774533170658,-0.0341815,1.00464,0.10376,-2.98476,-0.595486,2.35881,0,0,3.27487,5
1774533170671,-0.0551737,0.985353,0.0991216,-1.9924,1.05339,1.35881,0,0,3.26716,5
1774533170685,-0.0537111,1.00464,0.10083,-1.6107,1.687,1.58778,0,0,3.29594,5
1774533170698,-0.0576168,0.98633,0.088136,-1.49619,1.39696,1.38932,0,0,3.31685,5
1774533170712,-0.0444349,1.00073,0.0878906,-1.32825,0.870245,2.12975,0,0,3.30483,5
1774533170725,-0.0412601,0.981691,0.0998523,-2.09158,-0.290042,2.26717,0,0,3.30792,5
1774533170739,-0.0449215,0.985107,0.103759,-2.3664,-1.61065,1.74811,0,0,4.01881,5
1774533170753,-0.036866,0.986328,0.0942392,-2.04581,-2.36639,1.78626,0,0,3.27407,3
1774533170766,-0.0275888,0.974611,0.0903324,-1.96183,-2.40458,1.27482,0,0,3.27466,3
1774533170779,-0.0412584,0.987792,0.105955,-1.9084,-2.25955,0.404606,0,0,3.28022,3
1774533170793,-0.0498038,0.980469,0.0966806,-1.32826,-1.96947,-0.335856,0,0,3.26635,3
1774533170806,-0.0576164,0.983398,0.10083,-1.55725,-1.60306,0.206091,0,0,3.29594,3
1774533170820,-0.0563966,0.982666,0.0974125,-1.09162,-1.55725,0.633575,0,0,3.26261,3
1774533170833,-0.05542,0.992431,0.0883798,-1.3664,-1.60305,1.52669,0,0,3.31533,3
1774533170847,-0.0583493,0.996093,0.106199,-0.832077,-1.92365,2.58775,0,0,3.29122,5
1774533170860,-0.0498055,0.9834,0.0913101,-1.0687,-1.77863,3.00762,0,0,3.62661,5
1774533170874,-0.0302754,0.988525,0.113279,-1.0916,-2.15266,2.74047,0,0,3.27909,5
1774533170887,-0.0537086,0.978028,0.100343,-1.21374,-2.38167,3.28243,0,0,3.28883,5
1774533170901,-0.0405287,0.98413,0.0983889,-1.68701,-2.41221,2.62597,0,0,3.27442,5
1774533170914,-0.0449214,0.989257,0.099121,-1.61832,-2.44275,2.44275,0,0,3.36109,5
1774533170928,-0.0449219,0.989014,0.0961917,-1.58779,-2.06108,1.86261,0,0,3.322,5
1774533170941,-0.0495601,0.987061,0.105224,-1.21375,-2.08397,2,0,0,3.31033,5
1774533170955,-0.0512694,0.984619,0.103028,-0.755739,-1.5878,1.7252,0,0,3.89825,5
1774533170969,-0.0490725,0.996581,0.103027,-0.160323,-1.33589,2.30533,0,0,3.27279,5
1774533170982,-0.046387,0.987061,0.10498,0.122129,-1.19084,2.99998,0,0,3.25114,3
1774533170995,-0.0456544,0.989013,0.101319,0.312971,-0.954206,3.07633,0,0,3.2695,3
1774533171009,-0.0424808,0.987061,0.0976566,0.664112,-0.763365,3.12214,0,0,3.26159,3
1774533171022,-0.0422364,0.993163,0.112059,0.801523,-0.595425,2.84734,0,0,3.28061,3
1774533171036,-0.0314952,0.986573,0.0986342,1.31296,-0.473286,1.82446,0,0,3.29531,3
1774533171049,-0.045897,0.984619,0.0979005,1.54961,-0.534349,1.03056,0,0,3.32764,3
1774533171063,-0.0341809,0.985596,0.104247,1.35878,-0.28245,0.900767,0,0,3.32038,3
1774533171076,-0.0441885,0.992675,0.0993657,1.66411,-0.106875,0.335895,0,0,3.60998,3
1774533171090,-0.0446777,0.999999,0.118895,2.74043,0.106864,0.641212,0,0,3.27629,3
1774533171103,-0.0351572,0.994874,0.105958,3.32059,0.229004,0.809155,0,0,3.28053,3
1774533171117,-0.0417474,1.00976,0.117919,4.65645,0.748076,1.5267,0,0,3.33261,5
1774533171130,-0.0510245,1.0271,0.116455,7.29763,1.44273,2.51142,0,0,3.27188,5
1774533171144,-0.0568842,1.04687,0.133787,10.9541,2.11448,3.67935,0,0,3.3857,5
1774533171157,-0.0412613,1.06933,0.128174,16.1449,4.09154,3.85496,0,0,3.2795,5
1774533171171,-0.054442,1.08154,0.120362,23.1677,5.36637,4.4351,0,0,3.71385,5
1774533171184,-0.0749491,1.08984,0.13867,30.1983,7.19842,4.94655,0,0,3.27664,5
1774533171198,-0.0678718,1.14819,0.180172,37.2822,6.70994,5.05343,0,0,3.26162,5
1774533171211,0.163551,1.56783,0.507292,43.4197,3.90848,-2.13719,0,0,3.27748,5
1774533171224,0.0083163,1.83762,0.603018,72.6556,-15.9154,17.5109,0,0,3.26709,5
1774533171238,-0.372521,2.6735,0.618163,125.945,-7.10713,15.397,0,0,3.32616,5
1774533171251,0.0304773,1.46155,0.5752,156.335,-6.45803,19.122,0,0,3.27577,5
1774533171265,0.114494,2.25993,0.712633,178.496,-14.2975,13.8399,0,0,3.65359,5
1774533171279,0.0202731,2.23267,0.818837,244.517,-20.1067,10.3512,0,0,3.33277,5
1774533171292,0.250221,1.91483,0.74366,250.13,-31.9233,9.83208,0,0,3.29587,5
1774533171305,0.255126,2.12888,0.737549,250.13,-45.8011,13.4655,0,0,3.30524,5
1774533171319,0.316644,1.3846,0.5923,250.13,-53.8166,14.1374,0,0,3.2689,5
1774533171332,0.0691165,0.822566,0.146529,250.13,-45.672,-27.8613,0,0,3.30659,5
1774533171346,0.21312,1.09006,0.0769113,250.13,-41.5574,-18.8629,0,0,3.30948,5
1774533171359,0.154059,0.777619,0.176748,250.13,-43.4885,-47.045,0,0,3.28368,5
1774533171373,-0.023908,0.871573,0.401589,250.13,-28.7943,-78.5487,0,0,3.29313,5
1774533171386,-0.152087,0.407761,0.408935,250.13,3.50285,-101.915,0,0,3.28249,3
1774533171399,-0.456513,-1.07895,-0.605611,236.138,44.4492,-94.5727,0,0,3.27514,3
1774533171413,-0.42432,-1.67426,-0.399923,93.9508,61.6865,-56.6882,0,0,3.25575,3
1774533171426,-0.136503,-1.6687,0.00215706,-63.9266,62.4275,-21.1995,0,0,3.2795,3
1774533171440,0.0859153,-0.782803,0.413533,-207.751,48.6035,17.7546,0,0,3.29775,3
1774533171453,0.288798,0.625103,0.643288,-220.412,29.0846,46.045,0,0,3.35055,3
1774533171467,0.184093,0.552742,0.586431,-186.261,6.26786,60.7171,0,0,3.35012,3
1774533171480,0.00197134,-0.114435,0.526861,-215.854,7.05341,65.9617,0,0,3.3092,2
1774533171493,0.0336882,0.101785,0.538085,-244.785,6.7481,41.0923,0,0,3.28446,2
1774533171507,0.0793411,0.129148,0.595209,-250.137,5.12982,6.52775,0,0,3.25942,2
1774533171520,0.114254,0.208244,0.699452,-250.137,-3.93103,-16.61,0,0,3.27392,2
1774533171534,0.134031,0.563685,0.776359,-250.137,-20.0682,-23.7021,0,0,3.27225,2
1774533171547,0.0800835,0.700426,0.776855,-250.137,-36.5873,-16.962,0,0,3.39824,2
1774533171561,-0.0585799,0.786368,0.765382,-250.137,-43.8166,-5.75606,0,0,3.29329,2
1774533171574,-0.306372,1.13473,0.709966,-250.137,-37.4887,2.3738,0,0,3.32005,2
1774533171587,-0.485822,1.20361,0.647467,-250.137,-16.1151,3.48852,0,0,3.29657,2
1774533171601,-0.563469,1.19385,0.642579,-250.137,11.4496,4.80149,0,0,3.25455,2
1774533171614,-0.499518,1.53756,0.65991,-250.137,37.7473,14.0761,0,0,3.28516,5
1774533171628,-0.238551,1.78538,0.649171,-250.137,53.0835,23.7402,0,0,3.27987,5
1774533171641,0.03757,2.11422,0.641358,-250.137,51.313,32.2517,0,0,3.32922,5
1774533171654,0.237041,2.39206,0.496108,-250.137,37.1836,32.7481,0,0,3.3214,5
1774533171668,0.291743,2.41284,0.286154,-250.137,20.2371,19.9011,0,0,3.32916,5
1774533171681,0.243657,2.2239,0.0717988,-250.137,8.71027,7.19122,0,0,3.2707,2
1774533171695,0.278317,2.0796,-0.0656601,-229.901,-1.48824,5.48097,0,0,3.25842,2
1774533171708,0.312497,2.29441,-0.186023,-178.421,-18.5873,24.9612,0,0,3.27113,2
1774533171721,0.24195,2.0945,-0.467745,-123.765,-41.6787,48.6176,0,0,3.25663,2
1774533171735,0.0178447,1.85622,-0.643049,-78.5891,-51.0532,40.9392,0,0,3.26872,2
1774533171748,-0.31027,1.75245,-0.761463,-33.4288,-46.42,27.2676,0,0,3.26418,2
1774533171761,-0.457749,1.4678,-0.812495,-0.390304,-30.8936,2.43586,0,0,3.28381,2
1774533171775,-0.34547,1.51708,-0.737556,28.6862,-16.718,-20.7245,0,0,3.27879,2
1774533171788,-0.166522,1.52905,-0.603041,60.6403,-11.6108,-30.9921,0,0,3.31092,1
1774533171802,0.271929,3.57987,0.545295,62.4045,-72.2577,-44.7248,0,0,3.29472,2
1774533171815,0.176767,0.449532,0.90597,134.12,-34.7874,-94.8458,0,0,3.32375,2
1774533171829,-0.205772,0.667215,0.674584,159.144,-5.13829,-79.3745,0,0,3.28535,2
1774533171842,-0.457738,0.644534,0.482929,151.596,23.5106,-52.2222,0,0,3.32414,1
1774533171856,-0.0913452,0.964568,0.359631,148.825,43.4651,-30.0236,0,0,3.3402,1
1774533171869,-0.101561,0.883065,0.303961,145.412,44.4046,-31.4045,0,0,3.28235,1
1774533171883,-0.0981449,0.814704,0.397452,123.558,34.0537,-26.733,0,0,3.85196,2
1774533171897,-0.0942387,1.17282,0.404052,133.488,26.9849,-16.5347,0,0,3.27551,2
1774533171910,-0.122312,0.865509,0.298595,133.679,17.8323,-2.18364,0,0,3.26081,2
1774533171923,-0.116456,0.909908,0.289063,114.237,8.33616,8.10656,0,0,3.27689,2
1774533171937,-0.107911,0.965571,0.250492,111.863,-0.427218,18.7936,0,0,3.26546,2
1774533171950,-0.107422,0.832045,0.219974,98.0996,-6.76317,22.061,0,0,3.32226,2
1774533171964,-0.133298,0.930654,0.208741,87.4736,-9.6106,26.8548,0,0,3.29379,2
1774533171977,-0.0722717,0.892094,0.190432,78.7102,-9.76335,28.9618,0,0,3.32585,2
1774533171993,0.0429572,0.893066,1.90393e-05,66.153,-8.51912,17.695,0,0,3.28379,2
1774533172007,-0.0261161,0.866946,0.104482,53.7561,-2.19866,13.6642,0,0,3.75801,2
1774533172020,-0.0222172,0.941643,0.148189,51.6184,4.10668,7.24447,0,0,3.30933,2
1774533172034,-0.000246337,0.927492,0.102788,46.2902,8.05332,3.50393,0,0,3.27305,5
1774533172047,-0.00732351,0.991205,0.143062,42.3513,11.29,-5.33561,0,0,3.30585,5
1774533172061,-0.0180653,0.935552,0.125246,33.7865,14.8167,-12.2288,0,0,3.28996,5
1774533172076,-0.0229487,0.897709,0.0673886,24.3743,14.5267,-19.4196,0,0,5.70557,5
1774533172090,-0.110587,0.982413,0.145988,16.1453,9.3971,-13.6643,0,0,3.24579,5
1774533172105,-0.10669,0.957278,0.132081,12.4352,4.1452,-9.62608,0,0,4.8146,5
1774533172118,-0.122313,1.01196,0.183344,12.1527,1.12986,0.137112,0,0,3.24083,5
1774533172132,-0.0727589,0.997072,0.153079,12.2977,-0.480868,3.19838,0,0,3.81492,5
1774533172145,-0.0571305,0.9834,0.149659,11.1374,-1.77095,5.46558,0,0,3.319,5
1774533172159,-0.0324732,0.979004,0.154785,10.4275,-0.954223,2.26727,0,0,3.31727,5
1774533172172,-0.0314942,0.98291,0.158691,12.3129,0.847274,-1.90827,0,0,3.27409,5
1774533172186,-0.0432117,0.951907,0.131839,10.8779,2.25187,-5.64111,0,0,3.25996,5
1774533172199,-0.0571275,0.986325,0.149168,10.5267,3.48851,-9.664,0,0,3.29696,5
1774533172212,-0.0612789,0.968508,0.147217,11.1756,4.24425,-11.0152,0,0,3.31203,5
1774533172226,-0.0808086,0.994382,0.14917,11.9542,4.23664,-10.8626,0,0,3.27979,5
1774533172239,-0.0908193,0.977297,0.137208,13.1145,2.77867,-6.58028,0,0,3.27685,5
1774533172253,-0.0837409,0.986327,0.123537,12.0229,1.71759,-3.79398,0,0,3.75235,5
1774533172267,-0.108396,0.979981,0.122803,12.5649,0.549653,0.366287,0,0,3.30181,5
1774533172280,-0.0595752,0.995116,0.12915,12.8779,-0.351118,1.45798,0,0,3.25431,5
1774533172293,-0.0725085,0.97925,0.11963,12.8931,0.25189,4.07626,0,0,3.27466,5
1774533172307,-0.0397982,0.995604,0.1167,11.4886,0.70991,-2.25172,0,0,3.29111,5
1774533172320,-0.0671359,0.958744,0.125487,11.3511,5.80901,-3.63355,0,0,3.36385,5
1774533172334,-0.0410182,0.953126,0.146482,11.3435,7.70987,-5.70986,0,0,3.31924,5
1774533172348,-0.0725066,0.981198,0.100346,10.3588,1.62614,-7.98466,0,0,3.6364,5
1774533172361,-0.0815421,0.971437,0.129148,10.4962,5.17547,-5.29779,0,0,3.31898,5
1774533172375,-0.104246,0.984862,0.129639,10.458,1.54973,-3.35884,0,0,3.25792,5
1774533172388,-0.114013,0.947269,0.105227,9.55728,1.85495,0.0914995,0,0,3.28063,5
1774533172401,-0.0986344,0.98071,0.0993658,9.28245,0.313023,4.17545,0,0,3.25431,5
1774533172415,-0.096924,0.997313,0.101074,9.64121,-0.915994,6.41215,0,0,3.29829,5
1774533172428,-0.0769063,0.954594,0.0947272,9.41985,-1.47327,5.07638,0,0,3.25246,5
1774533172442,-0.0883778,1.02172,0.104979,10.4885,-0.366445,4.69467,0,0,3.28648,5
1774533172455,-0.0849613,1.00733,0.115233,13.1068,0.961792,5.56486,0,0,3.26655,5
1774533172469,-0.10327,1.02978,0.113526,15.4808,1.67173,7.96176,0,0,3.81955,5
1774533172485,-0.0969245,1.06372,0.123046,20.5724,0.86262,11.5724,0,0,3.3209,5
1774533172498,-0.0937503,1.06665,0.0922882,24.6945,0.274827,17.6563,0,0,3.25035,5
1774533172512,-0.0754413,1.08838,0.111814,32.0685,2.46558,23.6792,0,0,3.32103,5
1774533172525,-0.0271044,1.10644,0.154049,37.0838,1.52675,25.3053,0,0,3.28801,5
1774533172538,-0.042723,1.08179,0.104009,41.9006,-0.290022,24.5573,0,0,3.33909,5
1774533172552,0.0070751,1.06641,0.0715365,43.4732,-2.58772,24.4199,0,0,3.31616,5
1774533172565,0.074212,1.11474,0.143547,41.8168,-6.7327,8.29819,0,0,3.27444,5
1774533172581,0.0910628,1.73724,0.363748,42.0153,-20.9461,52.6781,0,0,3.28414,5
1774533172594,-0.426218,1.9946,0.408687,88.7467,-0.893731,18.1308,0,0,3.2709,5
1774533172608,0.00776911,1.36383,0.339118,105.595,-6.56472,39.7856,0,0,3.26342,5
1774533172621,-0.229713,1.80708,0.471422,126.679,-3.49628,28.9774,0,0,3.25751,5
1774533172635,0.0490444,1.83545,0.532709,170.296,-4.17555,31.6946,0,0,3.28313,5
1774533172648,0.184801,1.50345,0.467292,202.625,-10.87,17.5806,0,0,3.26096,5
1774533172661,0.139897,1.7385,0.582752,223.938,-17.0532,10.5651,0,0,3.33374,5
1774533172675,0.179928,2.11007,0.696522,250.129,-19.5266,-0.602718,0,0,3.37181,5
1774533172688,0.293446,2.20312,0.848129,250.13,-23.8014,-15.1446,0,0,3.28062,5
1774533172702,0.161146,2.53048,0.903071,250.13,-28.9617,-10.3818,0,0,3.28483,5
1774533172715,0.168212,2.5332,0.797374,250.13,-46.5873,1.64086,0,0,3.27583,5
1774533172729,0.040296,1.92169,0.527859,250.13,-42.1223,-8.44245,0,0,3.29272,5
1774533172742,0.140371,2.52264,0.572261,250.13,-28.863,-14.4655,0,0,3.25763,5
1774533172756,0.299789,1.83259,1.10444,250.13,-35.7784,-23.8623,0,0,3.2859,5
1774533172769,0.395254,1.58523,1.57808,250.13,-24.3362,-69.7925,0,0,3.27424,4
1774533172782,0.133327,1.76756,1.48121,250.13,23.9298,-143.463,0,0,3.27207,4
1774533172796,0.225333,-1.31781,0.119033,250.13,24.1756,-180.839,0,0,3.26977,4
1774533172809,0.266842,-0.99222,-0.0637024,250.13,33.1066,-135.963,0,0,3.26879,3
1774533172823,0.308101,-0.627478,0.0270905,146.82,-14.9146,-47.2698,0,0,3.30092,3
1774533172836,0.0388453,-0.777817,0.0285643,44.7588,-51.5333,38.1806,0,0,3.27881,3
1774533172849,-0.266571,-0.638686,0.112296,-49.4705,-49.0153,59.0757,0,0,3.2854,3
1774533172863,-0.516332,-0.279577,0.225086,-104.433,-20.4131,55.649,0,0,3.26687,3
1774533172876,-0.596916,-0.223883,0.258053,-145.838,12.3196,56.3969,0,0,3.30533,3
1774533172890,-0.490977,-0.315665,0.222416,-186.838,38.4191,61.2518,0,0,3.26262,3
1774533172904,-0.362562,-0.418691,0.230224,-238.06,54.7781,68.2135,0,0,3.79574,2
1774533172917,-0.160665,-0.36109,0.292962,-250.137,56.7557,66.5802,0,0,3.28377,2
1774533172931,-0.0102689,-0.135276,0.459944,-250.137,54.1604,54.8248,0,0,3.26964,2
1774533172944,0.062981,0.135959,0.577137,-250.137,44.3667,43.8858,0,0,3.30346,2
1774533172957,0.170399,0.438935,0.609616,-250.137,23.1457,37.9773,0,0,3.26833,2
1774533172971,0.204098,0.728243,0.575443,-250.137,-8.84637,46.2059,0,0,3.31594,2
1774533172984,0.131355,0.759762,0.517828,-250.137,-31.6558,44.2138,0,0,3.28579,5
1774533172998,0.0420011,0.910141,0.487064,-250.137,-40.87,17.497,0,0,3.32925,5
1774533173011,-0.0371015,1.19626,0.47339,-250.137,-43.4198,-21.3423,0,0,3.28431,5
1774533173025,-0.1516,1.57418,0.437992,-250.137,-41.168,-46.671,0,0,3.5875,5
1774533173038,-0.229973,1.77879,0.393315,-250.137,-37.6184,-51.1144,0,0,3.28355,5
1774533173052,-0.370836,1.72803,0.317635,-250.137,-29.4354,-32.8937,0,0,3.25,5
1774533173065,-0.516587,1.78637,0.342039,-250.137,-9.08458,-12.222,0,0,3.29162,5
1774533173079,-0.615469,2.07053,0.350585,-250.137,20.9533,5.95365,0,0,3.27129,5
1774533173092,-0.548102,2.32517,0.277351,-250.137,49.5717,20.7858,0,0,3.28739,5
1774533173106,-0.249786,2.48021,0.180185,-250.137,67.3964,9.79422,0,0,3.27537,5
1774533173120,0.179889,2.58544,0.0129562,-250.137,67.3664,-31.6247,0,0,3.67835,5
1774533173133,0.736028,2.6289,-0.153548,-250.137,45.0083,-63.3884,0,0,3.27942,2
1774533173146,1.2685,2.75536,-0.434054,-250.137,-1.85356,-70.0151,0,0,3.25546,2
1774533173160,1.38109,2.70899,-0.709445,-220.886,-67.5018,-24.5052,0,0,3.2862,2
1774533173173,0.9207,2.48952,-0.94236,-167.154,-129.7,50.5397,0,0,3.57563,2
1774533173187,-0.0929162,2.34791,-1.19285,-112.07,-154.068,85.5028,0,0,3.60559,2
1774533173201,-1.13686,2.15651,-1.44187,-56.2994,-112.253,59.4817,0,0,3.28492,3
1774533173214,-1.50485,1.83621,-1.59276,-3.07793,-31.9795,7.00921,0,0,3.62546,3
1774533173228,-0.933651,1.85815,-1.45192,36.9606,26.9753,-39.6398,0,0,3.28585,3
1774533173241,-0.157548,1.82886,-1.18216,80.2048,38.2745,-44.8319,0,0,3.25748,3
1774533173255,1.83769,3.99966,3.0257,-34.9049,-22.502,-57.7553,0,0,3.28592,3
1774533173268,0.330229,0.670499,1.31951,250.121,-12.6797,-70.6866,0,0,3.26235,3
1774533173281,-0.394459,0.362091,0.687563,217.589,32.4948,-81.2058,0,0,3.29949,3
1774533173295,-0.467522,0.950625,0.321082,183.009,50.6559,-41.7493,0,0,3.28987,3
1774533173308,0.00800909,1.64593,0.365718,248.899,39.237,4.7009,0,0,3.33464,3
1774533173322,0.127918,0.22646,0.312749,200.124,14.5962,-15.7933,0,0,3.29824,2
1774533173336,-0.316606,1.21499,0.176283,180.894,-13.8312,27.6552,0,0,3.73646,2
1774533173349,-0.0786371,0.798382,0.11939,134.162,-9.14518,33.9693,0,0,3.33792,2
1774533173363,-0.0634781,0.77759,0.0337,105.123,-0.962078,33.6794,0,0,3.35224,2
1774533173377,-0.0285679,0.913805,-0.0163524,73.1231,3.82428,26.4735,0,0,3.93788,2
1774533173390,-0.100091,0.925292,0.134506,61.1225,8.12201,30.1449,0,0,3.29133,2
1774533173404,0.054672,0.908937,0.189448,59.8321,14.0914,28.7939,0,0,3.30957,2
1774533173417,0.121087,0.848639,0.251459,57.3589,12.0688,17.466,0,0,3.30468,2
1774533173432,0.0820352,0.886959,0.179695,52.1528,15.6335,3.7485,0,0,4.8591,5
1774533173446,0.100828,0.960686,0.176758,45.2368,19.435,-3.641,0,0,3.30372,5
1774533173459,0.0546921,0.881111,0.0817966,33.4584,14.9925,-11.328,0,0,3.28713,5
1774533173472,0.0183142,0.863527,0.139399,21.0156,8.99255,-11.5191,0,0,3.30653,5
1774533173486,-0.0375921,0.995836,0.11426,16.8933,4.41998,-11.7099,0,0,3.30603,5
1774533173499,-0.0895944,1.00488,0.204093,15.4046,2.12221,-7.17571,0,0,3.2999,5
1774533173513,-0.069338,1.03125,0.168461,18.4198,-0.358704,-2.90089,0,0,3.36257,5
1774533173527,-0.0852035,0.991215,0.180175,19.9007,-1.97705,8.70194,0,0,3.5569,5
1774533173540,-0.0625023,0.999755,0.167238,18.9771,-1.34353,9.37403,0,0,3.28231,5
1774533173554,-0.0300325,0.962162,0.148195,18.5649,-1.53435,9.71755,0,0,3.65288,5
1774533173567,-0.00488533,1.01782,0.165526,19.0458,0.0610208,9.65649,0,0,3.28161,5
1774533173581,0.049311,1.01318,0.14966,22.5419,0.763338,-1.18288,0,0,3.41448,5
1774533173594,0.00415491,0.989748,0.157958,26.1297,1.44273,-2.57248,0,0,3.27276,5
1774533173608,-0.00707895,0.972658,0.164306,23.9466,1.96945,-2.90075,0,0,3.25003,5
1774533173621,0.0104963,0.973877,0.161133,26.2137,1.0382,-4.66407,0,0,3.2727,5
1774533173634,0.00146575,0.951418,0.135501,25.3741,-0.160269,-4.88549,0,0,3.25714,5
1774533173648,-0.0407673,0.927493,0.109133,23.5268,-1.30531,0.610522,0,0,3.29109,5
1774533173661,-0.0507802,0.963375,0.123045,24.5954,1.0839,-1.99992,0,0,3.26468,5
1774533173674,-0.0371107,0.989499,0.119629,22.3054,1.2977,-1.09926,0,0,3.26751,5
1774533173688,-0.0207536,0.932623,0.115479,19.0459,6.57999,-4.01518,0,0,3.32707,5
1774533173701,-0.0934986,0.949949,0.139402,18.3512,9.12969,-6.38161,0,0,3.395,5
1774533173715,-0.0332092,0.944092,0.161375,14.5421,6.61076,-4.0535,0,0,3.33714,5
1774533173728,0.0117143,0.948486,0.0554305,14.5649,9.4961,-2.48096,0,0,3.31562,5
1774533173742,-0.0209928,0.95996,0.0839815,11.1909,6.06881,-4.25186,0,0,3.31226,5
1774533173755,-0.0161138,0.998287,0.0913079,11.3664,4.2367,-4.05344,0,0,3.29455,5
1774533173769,-0.0532189,0.994385,0.130367,9.93897,2.26723,-3.3359,0,0,3.30029,5
1774533173782,-0.0349139,0.978029,0.0800832,9.9542,0.358836,-0.801603,0,0,3.34196,5
1774533173796,-0.0290533,0.981933,0.0930163,9.02293,-0.984693,-1.03053,0,0,3.31174,5
1774533173809,-0.0524879,0.997069,0.0742206,8.9313,-1.21373,2.12204,0,0,3.29883,5
1774533173823,-0.0571284,1.01513,0.0859363,10.4809,-1.64121,3.39691,0,0,3.2737,5
1774533173837,-0.0700671,0.998293,0.0676288,10.3359,-1.74046,5.72512,0,0,3.77214,5
1774533173850,-0.0795889,1.00244,0.0856916,11.1221,-4.83197,10.0838,0,0,3.27846,5
1774533173864,-0.0263725,1.03222,0.068117,14.9159,-5.05343,11.3053,0,0,3.29877,5
1774533173877,-0.113517,1.07568,0.0678711,19.0838,-5.23664,15.1755,0,0,3.40866,5
1774533173891,-0.072758,1.08838,0.0988739,26.1906,-5.88548,18.2365,0,0,3.31379,5
1774533173904,-0.0925273,1.06153,0.160638,21.2902,-5.45803,24.7632,0,0,3.30111,5
1774533173917,-0.0534707,1.23973,0.103765,31.015,-4.77865,26.0534,0,0,3.28779,5
1774533173931,-0.0117229,1.24194,0.156001,38.1601,-5.22899,27.7709,0,0,3.329,5
1774533173944,-0.0498009,1.18653,0.153565,43.58,-5.03054,26.6794,0,0,3.28094,5
1774533173958,-0.0341812,1.25073,0.130862,51.8547,-4.66413,27.0229,0,0,3.79011,5
1774533173972,-0.0444326,1.30566,0.183344,60.1372,-3.96949,28.1908,0,0,3.29633,5
1774533173986,0.0395424,1.37939,0.248773,76.8163,-4.9618,27.6489,0,0,3.70683,5
1774533173999,-0.00146074,1.42602,0.241944,95.7933,-6.65644,25.084,0,0,3.30744,5
1774533174012,-0.0700615,1.33106,0.211185,112.343,-4.57258,23.8474,0,0,3.28568,5
1774533174026,0.0175694,1.35644,0.161626,129.099,-6.36636,21.5726,0,0,3.32781,5
1774533174039,0.0273428,1.55564,0.341291,151.725,-9.48846,22.9007,0,0,3.30544,1
1774533174053,-0.0400323,1.62597,0.319094,174.641,-11.4503,29.4502,0,0,3.82114,1
1774533174067,0.000240114,1.61816,0.333495,199.931,-14.7785,32.0763,0,0,3.30907,1
1774533174080,0.058832,1.6145,0.393305,223.969,-17.8014,30.0306,0,0,3.27733,1
1774533174094,0.222396,1.83274,0.550033,250.129,-20.3816,25.2826,0,0,3.32109,4
1774533174107,0.278071,1.91601,0.555175,250.13,-28.8242,17.8018,0,0,3.28872,4
1774533174121,0.225103,1.85425,0.473885,250.13,-31.2137,4.13781,0,0,3.32379,4
1774533174134,0.182866,1.958,0.399666,250.13,-28.3131,-5.14476,0,0,3.30155,4
1774533174148,0.439183,1.70144,0.232194,250.13,-37.6944,8.76294,0,0,3.31237,4
1774533174161,0.0151791,1.81371,0.0498229,250.13,-39.6793,0.870466,0,0,3.29559,4
1774533174175,0.116933,1.80469,0.132072,250.13,-34.1299,17.7247,0,0,3.47516,4
1774533174189,0.381077,1.87914,0.514854,250.13,-65.7777,76.3876,0,0,3.65833,4
1774533174202,0.393309,1.1988,0.762915,250.13,-96.8922,136.8,0,0,3.44649,4
1774533174216,0.465813,0.912626,1.0549,250.13,-126.396,127.756,0,0,3.40924,4
1774533174229,-0.0265621,0.770278,-0.871145,250.13,-112.229,88.6806,0,0,3.35844,4
1774533174243,-0.519238,-0.271136,-0.358938,250.13,-58.0016,24.4218,0,0,3.31777,4
1774533174256,-0.59716,-0.48533,-0.494371,218.138,-6.98626,-32.1357,0,0,3.27005,4
1774533174270,-0.712879,-0.637192,-0.480958,110.858,57.853,-73.3346,0,0,3.6182,4
1774533174283,-0.280561,-0.829082,-0.318376,15.3235,100.464,-123.273,0,0,3.27964,4
1774533174297,-0.0473866,-0.339893,-0.12209,-63.677,112.114,-136.908,0,0,3.281,4
1774533174310,0.234347,-0.475572,-0.00562688,-137.479,94.4891,-121.298,0,0,3.27813,4
1774533174324,0.406965,-0.656232,0.137437,-213.089,54.9401,-88.8407,0,0,3.26979,4
1774533174337,0.349859,-0.626712,0.296859,-250.136,9.82578,-52.4515,0,0,3.30503,1
1774533174351,0.28443,-0.220744,0.505106,-250.137,-16.6328,-36.489,0,0,3.26203,5
1774533174364,0.102313,0.0912774,0.628406,-250.137,-32.2056,-33.8627,0,0,3.30613,5
1774533174378,-0.023669,0.409636,0.55616,-250.137,-41.6715,-34.9313,0,0,3.27289,2
1774533174392,-0.137684,0.658178,0.489997,-250.137,-38.3741,-34.9008,0,0,3.89957,2
1774533174405,-0.218742,0.623783,0.403085,-250.137,-25.9775,-45.6256,0,0,3.28138,5
1774533174419,-0.243162,0.502698,0.38135,-250.137,-11.2829,-62.1369,0,0,3.31257,5
1774533174432,-0.156503,0.598379,0.442133,-250.137,-1.42014,-70.2288,0,0,3.28205,5
1774533174445,-0.0285772,0.895722,0.495844,-250.137,-2.12212,-56.5424,0,0,3.26213,5
1774533174459,0.100329,1.07957,0.51245,-250.137,-12.5875,-27.8482,0,0,3.29914,5
1774533174472,0.111327,1.45504,0.486087,-250.137,-22.4883,1.28157,0,0,3.26142,2
1774533174486,0.00684638,1.55639,0.404061,-250.137,-21.2061,8.81657,0,0,3.56851,2
1774533174499,-0.166975,1.51294,0.374026,-250.137,-6.67219,-1.04551,0,0,3.28285,2
1774533174513,-0.249992,1.71946,0.350588,-250.137,13.4956,-8.35093,0,0,3.2524,2
1774533174526,-0.204838,1.88792,0.373289,-250.137,29.8774,-5.71764,0,0,3.27733,2
1774533174539,-0.0854612,1.94555,0.357668,-250.137,38.4349,8.55682,0,0,3.29305,2
1774533174553,0.0505235,2.06664,0.336428,-250.137,38.9847,20.389,0,0,3.28294,2
1774533174566,0.130607,2.20458,0.312502,-250.137,32.733,30.305,0,0,3.27083,2
1774533174580,0.123292,2.41624,0.191418,-250.137,26.1834,28.9008,0,0,3.31064,2
1774533174593,0.0671443,2.56224,0.050063,-250.137,21.2444,22.2597,0,0,3.27392,2
1774533174607,0.0964326,2.55054,-0.122053,-250.137,19.8397,13.0919,0,0,3.54638,2
1774533174620,0.38254,2.49341,-0.327128,-223.237,9.77893,4.09187,0,0,3.35542,2
1774533174634,0.743128,2.40846,-0.464586,-174.719,-22.7471,7.23655,0,0,3.26357,2
1774533174649,0.588883,2.24172,-0.756318,-119.689,-76.006,43.9455,0,0,3.3197,2
1774533174663,-0.0294792,1.918,-0.935529,-79.1692,-93.1674,47.9083,0,0,3.27148,5
1774533174677,-0.693049,1.80714,-1.0952,-39.6806,-68.7412,24.5351,0,0,3.93066,5
1774533174690,-0.777824,1.85009,-1.10474,8.56344,-25.5127,-17.5102,0,0,3.26613,5
1774533174703,-0.415075,1.71388,-1.00929,53.4109,0.709137,-41.7932,0,0,3.29051,5
1774533174717,-0.100617,1.66382,-0.81789,83.4189,3.55717,-34.1224,0,0,3.3227,5
1774533174730,-0.0236893,1.68701,-0.473179,112.77,1.80158,-31.2367,0,0,3.28968,5
1774533174746,-0.185775,2.19355,0.0045909,144.159,-41.1056,-8.88617,0,0,5.21692,5
1774533174759,0.0219519,0.3122,1.13075,191.235,-26.0005,-94.6081,0,0,3.27607,5
1774533174773,-0.383993,0.780471,0.326741,207.931,0.747289,-87.8246,0,0,3.31662,5
1774533174787,-0.370607,0.658215,0.221202,172.902,18.5949,-29.7422,0,0,3.3162,2
1774533174800,0.1457,0.975554,0.350817,156.756,23.122,-30.8091,0,0,3.38498,2
1774533174813,-0.0456352,1.45308,0.515364,192.503,9.90116,-37.6792,0,0,3.29262,2
1774533174827,-0.102777,0.711012,0.292747,181.252,14.1144,-16.764,0,0,3.28681,2
1774533174840,-0.123533,0.887922,0.235357,150.001,12.771,6.90769,0,0,3.34466,2
1774533174855,-0.0459062,0.950433,0.218752,127.97,-5.03,1.00018,0,0,3.27457,2
1774533174869,-0.0502925,0.960692,-0.116177,92.6117,-5.58777,22.2589,0,0,3.32066,2
1774533174883,-0.0534665,0.681669,0.107155,75.5272,-2.80924,16.3513,0,0,3.26301,2
1774533174899,0.0407621,0.881816,0.133054,62.4737,-10.2517,24.2822,0,0,5.7171,2
1774533174912,-0.0312428,0.968497,0.145262,54.3896,-7.481,27.5495,0,0,3.28298,5
1774533174926,0.0280702,1.11888,0.116702,51.8092,-2.3513,22.4582,0,0,3.29242,5
1774533174940,0.029785,0.95778,0.112549,52.2137,-0.83974,12.1759,0,0,3.26172,5
1774533174954,0.00927939,0.873544,0.00172007,47.8169,9.0455,6.90092,0,0,4.18725,5
1774533174967,0.042233,0.833256,0.179914,26.2907,11.145,-3.3661,0,0,3.26157,5
1774533174981,0.0607892,0.991195,0.136723,26.4198,4.09181,-2.80154,0,0,3.26638,5
1774533174994,0.00903838,1.02026,0.187983,28.4274,6.12208,-1.07639,0,0,3.25694,5
1774533175007,-0.0168431,0.931405,0.102792,26.0535,0.710086,1.06864,0,0,3.26353,5
1774533175021,-0.0495573,1.00097,0.128415,22.5421,1.29769,4.32815,0,0,3.2634,5
1774533175034,-0.0375989,0.960697,0.107912,19.3054,-0.442696,8.76323,0,0,3.25044,5
1774533175047,-0.0334477,1.03198,0.123045,19.3969,-1.96942,7.14509,0,0,3.30913,5
1774533175061,-0.0175797,0.997074,0.112306,18.7557,-2.9389,15.0914,0,0,3.56268,5
1774533175074,-0.0451633,0.9917,0.107178,19.0992,-3.42747,13.9313,0,0,3.27079,5
1774533175088,-0.0649394,1.02002,0.00294011,16.2596,-5.61062,14.1374,0,0,3.2792,5
1774533175101,0.0378315,0.913829,0.132067,14.9924,-0.794038,11.2673,0,0,3.2417,5
1774533175114,0.00659492,0.962642,0.107668,13.023,-2.06103,10.1603,0,0,3.28081,5
1774533175128,0.0214829,0.969238,0.0932632,10.4352,-5.78615,9.7023,0,0,3.24433,5
1774533175141,0.00756975,0.948733,0.112791,6.37417,-7.45033,9.19849,0,0,3.30963,5
1774533175155,-0.00781096,0.96948,0.0969254,9.16022,-8.78622,7.0306,0,0,3.25055,5
1774533175168,0.0300255,0.957277,0.101806,7.2138,-8.71756,7.9389,0,0,3.28307,5
1774533175181,0.037841,0.989987,0.107421,6.74047,-8.41986,5.44282,0,0,3.26903,5
1774533175195,0.0444329,1.00464,0.10376,7.64119,-7.24431,2.73291,0,0,3.24635,5
1774533175208,0.0163602,0.963139,0.113769,8.26716,-5.64127,1.24432,0,0,3.32168,5
1774533175221,0.0180662,0.989255,0.0957049,8.26718,-5.08399,0.0840043,0,0,3.24327,5
1774533175235,0.0270987,0.981446,0.101806,10.3969,-4.19087,-1.84727,0,0,3.27938,5
1774533175249,0.0209967,0.956545,0.0966802,8.87027,-3.64887,-2.46563,0,0,3.28705,5
1774533175263,0.0112314,0.981687,0.0900885,6.46572,-3.03819,-1.65651,0,0,3.7087,5
1774533175277,0.0104981,1.00171,0.0949702,8.13735,-1.86263,-3.84726,0,0,3.28896,5
1774533175291,0.0549272,1.02099,0.0937501,11.748,-1.19086,-4.86256,0,0,3.68146,5
1774533175304,0.0236848,0.97852,0.104491,11.2977,0.0304977,-5.56486,0,0,3.27944,3
1774533175318,0.00927878,1.02148,0.112304,15.5266,1.25951,-7.45033,0,0,3.27505,3
1774533175332,0.0349095,1.0271,0.113037,20.0533,0.793907,-8.93889,0,0,3.289,3
1774533175345,-0.00390237,1.00904,0.0700727,23.9464,0.0381906,-7.51149,0,0,3.25631,3
1774533175358,-0.000732739,0.977054,0.0668948,22.9466,-0.847302,-5.00008,0,0,3.28216,3
1774533175372,-0.0180647,0.993407,0.0864238,20.71,-3.60297,-1.47339,0,0,3.25885,3
1774533175385,0.0202598,1.02807,0.063723,25.206,-5.18316,2.49606,0,0,3.27898,3
1774533175399,-0.0424742,1.0044,0.0798324,22.1375,-6.25188,2.38932,0,0,3.27046,3
1774533175413,-0.0207541,1.01904,0.0776369,18.3894,-4.25197,5.23656,0,0,3.64059,3
1774533175426,-0.00268735,1.09106,0.082519,23.5189,-4.41221,5.19847,0,0,3.29427,5
1774533175440,-0.0595646,1.04956,0.10034,26.374,-3.83971,12.0685,0,0,3.27992,5
1774533175453,-0.0214882,1.11547,0.0988771,28.3664,-2.88552,13.3129,0,0,3.28081,5
1774533175467,-0.0927663,1.19506,0.137447,32.8243,-1.15272,12.5038,0,0,3.26414,5
1774533175480,0.0815255,1.30053,0.175777,45.6866,-3.52665,26.0683,0,0,3.3089,5
1774533175494,0.0349168,1.24244,0.159425,55.5951,-5.22896,21.8933,0,0,3.26483,5
1774533175507,0.0385739,1.42967,0.197018,63.4883,-6.15264,21.5573,0,0,3.53688,5
1774533175521,-0.0205019,1.51098,0.251459,83.7933,-5.27484,24.0915,0,0,3.28277,5
1774533175534,0.0541918,1.40773,0.2168,100.847,-4.14507,16.672,0,0,3.27137,5
1774533175547,-0.0375885,1.44262,0.248776,115.801,-4.48091,18.6183,0,0,3.28729,5
1774533175561,-0.0781209,1.44189,0.174324,138.343,-3.83971,21.5266,0,0,3.26607,5
1774533175574,-0.0603045,1.45337,0.253166,151.725,-5.24423,26.0228,0,0,3.3104,5
1774533175588,-0.0512704,1.64036,0.309321,175.434,-7.56482,26.6717,0,0,3.28018,5
1774533175601,0.112288,1.80589,0.499981,202.808,-9.96176,26.916,0,0,3.33283,5
1774533175615,0.166254,2.03953,0.557367,241.19,-13.1373,25.71,0,0,3.2947,5
1774533175628,0.204586,2.05102,0.647208,250.13,-17.8701,15.4049,0,0,3.61346,4
1774533175642,0.245113,2.10375,0.683346,250.13,-25.5341,6.71018,0,0,3.28502,4
1774533175655,0.130383,2.21483,0.671144,250.13,-19.4048,-0.2975,0,0,3.26451,4
1774533175669,0.213615,2.22217,0.621831,250.13,-22.977,-4.48079,0,0,3.31863,4
1774533175682,0.16895,1.96292,0.476089,250.13,-27.0151,-1.73291,0,0,3.26096,4
1774533175695,-0.112277,2.12889,0.428472,250.13,-13.3134,-30.9839,0,0,3.38107,4
1774533175709,0.135229,1.84451,0.483881,250.13,-3.40488,-0.886399,0,0,3.27074,4
1774533175723,0.182368,1.54446,0.907184,250.13,-27.2054,61.9676,0,0,3.69403,4
1774533175736,0.287587,1.11113,1.37984,250.13,-67.1896,122.945,0,0,3.28442,4
1774533175750,0.962579,0.808868,1.77047,250.13,-125.876,136.252,0,0,3.26403,4
1774533175763,-0.0963297,-1.13994,-0.576425,250.13,-124.947,50.8423,0,0,3.35383,4
1774533175776,-0.375216,-1.53878,-0.356711,186.582,-78.6197,-38.8065,0,0,3.2779,4
1774533175790,-0.516343,-1.54199,-0.305181,58.3321,-52.6191,-105.113,0,0,3.33403,4
1774533175803,-0.532957,-0.665127,-0.184582,-83.3316,-23.5581,-113.702,0,0,3.27307,4
1774533175817,-0.299096,0.0580332,0.0588136,-122.548,-8.47373,-104.695,0,0,3.65835,2
1774533175831,-0.246099,-0.190161,0.102779,-184.494,-0.259788,-94.8934,0,0,3.43766,2
1774533175844,-0.262938,-0.296376,0.119383,-233.373,4.16017,-84.0309,0,0,3.24868,2
1774533175858,-0.160899,-0.650111,0.174555,-250.137,3.87787,-81.8016,0,0,3.32035,2
1774533175871,0.000960378,-0.70849,0.323716,-250.137,-5.70964,-79.2978,0,0,3.30166,2
1774533175889,0.113758,0.142249,0.669887,-250.137,-20.8545,-66.2828,0,0,7.49518,2
1774533175902,0.155269,0.963785,0.772207,-250.137,-38.8163,-40.5504,0,0,3.24127,2
1774533175915,0.180906,1.08715,0.589374,-250.137,-45.9158,-17.6877,0,0,3.34533,2
1774533175929,0.0288238,0.879659,0.407977,-250.137,-43.0917,-2.33634,0,0,3.24014,2
1774533175944,-0.0405204,0.830083,0.309092,-250.137,-31.4431,-15.137,0,0,5.00625,2
1774533175957,-0.0153834,1.14548,0.312256,-250.137,-20.0309,-28.0836,0,0,3.27616,2
1774533175971,0.00781018,1.28587,0.333738,-250.137,-14.1147,-27.2672,0,0,3.97998,2
1774533175985,-0.00390508,1.74995,0.271979,-250.137,-10.0459,-8.87841,0,0,3.27557,2
1774533175998,-0.101797,1.78979,0.165294,-250.137,-1.09951,11.4956,0,0,3.24766,2
1774533176011,-0.167474,1.68995,0.124272,-250.137,16.0377,25.8393,0,0,3.25392,3
1774533176025,-0.0981515,1.84447,0.0598209,-250.137,31.6331,40.7858,0,0,3.28083,3
1774533176038,0.03734,1.86328,-0.00658516,-250.137,37.9998,56.0911,0,0,3.25787,3
1774533176051,0.187729,2.05662,-0.0234358,-250.137,31.9849,75.0605,0,0,3.28392,3
1774533176065,0.225826,2.46065,-0.0493138,-250.137,19.1073,96.7169,0,0,3.26529,3
1774533176078,0.16773,2.60375,-0.172839,-250.137,9.54227,93.7711,0,0,3.27542,3
1774533176092,0.0463989,2.48878,-0.325424,-250.137,7.30541,67.0619,0,0,3.76838,3
1774533176105,-0.0439363,2.37794,-0.473618,-241.55,10.0152,36.0773,0,0,3.27596,3
1774533176119,0.0256278,2.21462,-0.520991,-211.596,11.9465,10.3977,0,0,3.28333,3
1774533176132,0.107902,2.29613,-0.592766,-166.238,7.14518,6.53447,0,0,3.2889,5
1774533176146,0.143795,2.14796,-0.700673,-117.856,-1.85469,12.8471,0,0,3.24742,5
1774533176160,-0.0397766,2.00685,-0.854721,-65.452,-6.80138,22.5646,0,0,4.64409,5
1774533176174,-0.355925,1.84548,-0.969227,-22.9249,3.47297,24.832,0,0,3.24594,5
1774533176187,-0.551494,1.63259,-0.979491,11.0066,27.6329,17.6567,0,0,3.2429,5
1774533176200,-0.511234,1.58423,-0.85304,39.7472,53.2053,9.00026,0,0,3.25272,5
1774533176214,-0.331805,3.43439,3.99939,-55.1117,83.8769,23.3278,0,0,3.24794,5
1774533176227,-0.451404,0.317694,1.98165,250.121,-1.81422,98.5321,0,0,3.29027,5
1774533176240,0.500149,0.173843,0.898058,199.315,-32.8388,-60.1021,0,0,3.24683,5
1774533176254,-0.184258,0.474823,0.356011,168.551,-9.89382,-27.5124,0,0,3.25835,5
1774533176267,-0.0246742,1.12811,0.433342,163.993,-2.13,-34.7021,0,0,3.24838,5
1774533176281,-0.0624962,1.17236,0.291518,185.221,9.4195,-25.7255,0,0,3.64907,5
1774533176296,-0.114253,0.716842,0.281739,154.825,18.7707,-16.6873,0,0,3.34814,5
1774533176309,-0.104737,1.1689,0.28955,143.527,21.4656,-9.28266,0,0,3.37668,5
1774533176325,-0.135251,0.66216,0.166272,122.39,17.107,14.1596,0,0,3.32339,5
1774533176339,-0.0781307,0.977996,0.16748,105.909,7.88577,14.7252,0,0,3.27724,5
1774533176352,-0.124995,0.835708,0.156739,87.5654,0.236871,24.8547,0,0,3.33007,5
1774533176365,-0.0957061,0.926016,0.195065,77.1225,-3.55714,28.6411,0,0,3.27372,5
1774533176381,-0.0791032,0.918946,0.111825,63.2523,-5.12209,29.145,0,0,3.27457,5
1774533176394,-0.0166078,0.943113,0.122069,56.5956,-4.82444,23.3513,0,0,3.24805,5
1774533176409,-0.0119634,0.925783,0.147458,53.4047,-2.16802,23.7557,0,0,3.30053,5
1774533176423,0.0273398,0.945799,0.133058,48.2368,-1.48857,16.3361,0,0,3.29024,5
1774533176436,0.0346672,0.911625,0.0881393,47.0458,4.48074,7.76362,0,0,3.24892,5
1774533176449,0.0847118,0.845221,0.0419968,35.7332,9.4426,-3.76301,0,0,3.25166,5
1774533176465,0.0312553,0.889644,0.12133,19.2753,9.84732,-9.90821,0,0,3.52177,5
1774533176479,-0.0251408,0.974601,0.103517,15.4047,8.67942,-13.8777,0,0,3.29657,5
1774533176492,-0.0685992,1.00049,0.158686,12.0688,7.85499,-13.4428,0,0,3.25188,5
1774533176506,-0.0827623,0.985597,0.143068,11.1451,5.23672,-9.0154,0,0,3.28198,5
1774533176519,-0.0661638,1.03979,0.169675,12.229,3.9924,-4.87799,0,0,3.24677,5
1774533176534,-0.0810532,1.01807,0.145754,12.0076,2.38936,-1.15278,0,0,4.7176,5
1774533176547,-0.0495637,1.04126,0.148437,15.3892,0.694707,1.70984,0,0,3.24468,5
1774533176560,-0.0390635,0.980475,0.153076,16.458,0.236655,2.74806,0,0,3.25948,5
1774533176574,-0.0424801,1.00146,0.135012,16.8473,-0.580128,5.1755,0,0,3.28,5
1774533176588,0.00414573,0.975833,0.129883,17.6641,1.48849,4.05347,0,0,3.78179,5
1774533176601,-0.0322229,0.94971,0.145506,18.0229,-2.14493,4.39694,0,0,3.27138,5
1774533176614,-0.0280766,0.999995,0.0947316,17.1756,-2.00764,4.27481,0,0,3.25825,5
1774533176628,-0.0227056,1.00317,0.122312,17.9542,-1.2901,2.03824,0,0,3.28283,5
1774533176641,-0.0510226,0.969974,0.0966823,17.313,-0.442774,0.824464,0,0,3.26911,5
1774533176655,-0.0378431,0.975829,0.0998532,16.0153,0.0228868,-2.35868,0,0,3.29457,5
1774533176668,-0.0310065,0.95923,0.0803242,14.8168,1.19844,-1.29011,0,0,3.26168,5
1774533176681,-0.0610322,0.990964,0.0917957,14.6794,1.09924,0.0533948,0,0,3.31427,5
1774533176695,-0.0737292,0.956058,0.0817881,12.2672,0.687035,2.79381,0,0,3.26835,5
1774533176708,-0.0356483,0.990719,0.0839842,11.9542,0.374055,2.91603,0,0,3.57401,5
1774533176722,-0.0410151,0.986329,0.0898432,13.7175,0.0458114,4.6946,0,0,3.28611,5
1774533176735,-0.00976875,0.98584,0.0725115,11.1527,0.49617,2.86265,0,0,3.27427,5
1774533176749,-0.0117186,0.99536,0.0976537,11.4351,-0.0763187,1.19852,0,0,3.29514,5
1774533176762,-0.0292951,0.997314,0.0795916,10.5573,-0.0763359,0.427504,0,0,3.2569,5
1774533176775,-0.0524879,0.9834,0.0725105,11.7481,-0.671738,2.38925,0,0,3.27779,5
1774533176789,-0.0471197,0.990722,0.0739745,10.7176,-1.12212,4.50375,0,0,3.27124,5
1774533176803,-0.0490721,0.984864,0.0725099,11.2366,-1.229,4.85495,0,0,3.6892,5
1774533176816,-0.0224636,0.988037,0.0776362,10.9389,-1.20611,5.64883,0,0,3.70374,5
1774533176830,-0.0261227,0.991943,0.0666515,11.3588,-1.22901,5.79389,0,0,3.34735,5
1774533176843,-0.0424788,0.995849,0.0607916,12.0687,-0.664139,5.51909,0,0,3.28196,5
1774533176857,-0.0083042,0.985841,0.0664057,10.7176,-2.54193,5.42748,0,0,3.26963,5
1774533176870,-0.0244125,1.00537,0.0668945,13.4808,-2.55725,3.77104,0,0,3.30705,5
1774533176884,-0.0324699,1.00806,0.0639651,11.9619,-2.70992,5.06103,0,0,3.25818,5
1774533176897,-0.0283207,1.00244,0.0625001,11.7557,-2.46566,3.50386,0,0,3.61068,5
1774533176911,-0.0332026,1.0105,0.0800764,12.374,-1.63361,3.58778,0,0,3.27253,5
1774533176924,0.00854075,1.04516,0.0808105,13.9694,-1.22139,3.25955,0,0,3.25048,5
1774533176938,-0.0314901,1.08276,0.0651871,17.7861,-0.671772,2.61834,0,0,3.27757,5
1774533176951,-0.014406,1.11865,0.118403,22.893,-0.824423,5.69456,0,0,3.26525,5
1774533176964,-0.0454071,1.14868,0.0834996,31.3814,-0.396959,6.94653,0,0,3.27231,5
1774533176978,-0.0798305,1.15649,0.162102,35.4655,-4.64109,20.6713,0,0,3.28083,5
1774533176991,-0.113034,1.39939,0.241691,40.6411,-5.94653,36.0835,0,0,3.31244,5
1774533177005,-0.126464,1.56029,0.291987,63.2818,-2.77109,34.7863,0,0,3.26944,5
1774533177018,-0.0918003,1.35402,0.222907,77.6255,-1.64126,35.4198,0,0,3.61829,5
1774533177032,-0.0739764,1.47167,0.258297,93.0911,-3.41979,38.8549,0,0,3.2795,5
1774533177045,-0.0356484,1.44824,0.259277,113.534,-4.56485,39.3817,0,0,3.27655,5
1774533177059,-0.0290534,1.34596,0.192634,134.053,-6.98466,35.5192,0,0,3.27805,5
1774533177072,0.0388116,1.27222,0.166507,149.946,-5.16799,26.7331,0,0,3.27331,5
1774533177086,0.0690888,1.60714,0.369609,168.022,-10.9617,28.9083,0,0,3.27709,5
1774533177099,0.14428,1.74437,0.489734,199.969,-10.4962,26.9772,0,0,3.27824,5
1774533177113,0.237784,1.52151,0.344497,225.969,-15.0151,18.5651,0,0,3.8077,5
1774533177126,0.142344,1.62963,0.315921,243.931,-15.8091,7.17591,0,0,3.27857,5
1774533177140,0.131837,1.84739,0.441882,250.13,-13.5421,-0.343286,0,0,3.28214,5
1774533177153,0.273423,1.91772,0.517571,250.13,-16.29,-12.6714,0,0,3.28975,5
1774533177167,0.364249,2.03637,0.386732,250.13,-20.8167,-24.5493,0,0,3.27481,5
1774533177180,0.299323,1.73294,0.333013,250.13,-29.183,-16.6796,0,0,3.29531,5
1774533177194,0.111835,2.03464,0.212414,250.13,-21.1224,-40.3962,0,0,3.2595,5
1774533177207,0.232654,1.7493,0.225585,250.13,-16.6719,-31.756,0,0,3.31326,4
1774533177220,0.355945,1.7605,0.46067,250.13,-28.8317,-8.33658,0,0,3.2732,3
1774533177234,0.387204,1.28838,0.748506,250.13,-34.2288,1.01499,0,0,3.59538,3
1774533177248,0.560774,0.753471,1.16597,250.13,-34.4809,-33.6707,0,0,3.28216,3
1774533177261,0.257843,1.27778,-0.0775124,250.13,-17.5959,-91.1051,0,0,3.25088,3
1774533177274,0.0832694,-1.69379,-0.435999,250.13,-0.969964,-110.862,0,0,3.2975,3
1774533177288,-0.0644384,-1.17486,-0.509026,102.501,22.2588,-97.0462,0,0,3.26444,3
1774533177301,-0.106685,-1.5173,-0.199006,-50.8504,32.847,-78.1151,0,0,3.295,3
1774533177315,0.0317244,0.153397,0.156214,-145.28,39.9158,-63.6188,0,0,3.26935,3
1774533177328,0.0292971,0.0947324,0.271961,-172.289,43.8472,-63.4428,0,0,3.61051,3
1774533177342,-0.0197705,0.149164,0.266602,-204.778,42.8855,-47.9394,0,0,3.28851,3
1774533177355,-0.106681,-0.00950562,0.195076,-240.556,39.8627,-27.9624,0,0,3.2775,3
1774533177369,-0.0817896,-0.00512739,0.248042,-250.137,44.9082,-23.8169,0,0,3.27335,3
1774533177382,-0.0451697,0.0419875,0.308344,-250.137,49.496,-34.4882,0,0,3.24566,3
1774533177395,0.0126895,0.345185,0.374993,-250.137,52.7556,-52.3735,0,0,3.27729,3
1774533177409,0.0629833,0.571755,0.378906,-250.137,52.0153,-65.221,0,0,3.25201,3
1774533177422,0.103267,0.585936,0.292977,-250.137,47.2368,-71.9082,0,0,3.26146,3
1774533177435,0.185539,0.589599,0.274416,-250.137,38.0842,-69.7405,0,0,3.42116,5
1774533177449,0.249017,0.698231,0.310543,-250.137,26.237,-59.382,0,0,3.2339,5
1774533177462,0.351796,0.986055,0.368647,-250.137,12.8706,-51.8705,0,0,3.24924,5
1774533177475,0.347901,1.31784,0.332523,-250.137,-0.243881,-38.4966,0,0,3.24372,5
1774533177489,0.260995,1.50023,0.217297,-250.137,-7.9387,-27.5805,0,0,3.23937,5
1774533177504,0.0683786,1.47974,0.127939,-250.137,-0.52694,-24.2367,0,0,3.69344,5
1774533177518,-0.081528,1.62767,0.117189,-250.137,14.7858,-16.1758,0,0,3.25689,5
1774533177531,-0.116696,1.76244,0.0974141,-250.137,31.8163,5.5566,0,0,3.25322,5
1774533177544,-0.00831162,1.83227,0.125485,-250.137,43.5493,31.2969,0,0,3.2774,5
1774533177558,0.083731,1.86425,0.149656,-250.137,49.4578,52.0375,0,0,3.25924,5
1774533177571,0.208972,1.93725,0.142579,-250.137,48,65.0683,0,0,3.2395,3
1774533177584,0.307363,1.98876,0.0883843,-250.137,39.5499,72.5036,0,0,3.26348,3
1774533177598,0.324461,2.11595,0.0346733,-250.137,23.947,71.7176,0,0,3.25129,3
1774533177613,0.204846,2.13794,-0.0641991,-250.137,10.9775,60.8629,0,0,4.83275,3
1774533177626,0.0459143,2.35008,-0.163076,-250.137,7.73292,43.7181,0,0,3.2452,3
1774533177640,-0.0634656,2.48973,-0.361552,-228.962,11.1449,28.4356,0,0,3.67039,3
1774533177653,0.0419816,2.35084,-0.557598,-182.826,15.8854,21.1605,0,0,3.36888,3
1774533177667,0.342987,2.209,-0.724349,-133.574,5.39726,24.0152,0,0,3.26324,5
1774533177681,0.352538,2.06911,-0.947243,-85.2686,-21.0297,48.3886,0,0,3.44337,5
1774533177694,0.00735873,1.82107,-1.04076,-46.8943,-31.5417,46.7481,0,0,3.25848,5
1774533177708,-0.345424,1.64968,-1.05566,-13.3598,-19.1912,29.0005,0,0,3.28538,5
1774533177721,-0.404535,1.63843,-0.958262,21.6554,2.86957,1.77944,0,0,3.26881,5
1774533177735,-0.176048,1.60279,-0.776629,56.7241,13.9768,-12.5034,0,0,3.30942,5
1774533177748,0.0578379,1.51075,-0.561545,80.526,9.84745,-12.8397,0,0,3.27344,5
1774533177762,0.842939,2.08271,3.99942,36.4899,-15.0451,-12.4886,0,0,3.73846,5
1774533177776,1.00853,0.251648,0.655852,212.216,-43.9381,16.2205,0,0,3.27679,5
1774533177789,0.0945738,0.458475,0.999721,165.902,-12.7796,-96.4699,0,0,3.25444,5
1774533177803,-0.401073,1.0329,0.383118,190.244,-17.5724,-76.6647,0,0,3.28246,5
1774533177816,-0.376711,0.743437,0.196064,171.917,4.26652,1.0511,0,0,3.26176,3
1774533177829,0.199649,0.735596,0.373029,149.566,9.25176,-20.6482,0,0,3.30092,3
1774533177843,-0.0915236,0.877915,0.438714,137.565,6.5726,-27.038,0,0,3.39614,3
1774533177856,-0.137935,1.25533,0.309827,151.282,8.81673,-7.5731,0,0,3.31509,3
1774533177870,0.0134126,0.779833,0.299317,140.176,11.4045,-1.4124,0,0,3.28177,3
1774533177884,0.0519981,1.08127,0.286378,124.649,5.58796,2.62583,0,0,3.61135,3
1774533177897,-0.0190359,0.858665,0.203622,109.649,0.229168,4.83199,0,0,3.29025,3
1774533177910,-0.0671339,1.00682,0.10377,93.0768,-0.290061,3.87026,0,0,3.28374,3
1774533177924,-0.0900856,0.950445,0.153071,69.5809,0.450359,14.9768,0,0,3.29603,3
