timestamp,ax,ay,az,gx,gy,gz,roll_k,pitch_k,delay_ms,classe_prevista
1774389455226,0.0190493,0.671122,-0.109574,0.0469868,-0.845762,0.610828,0,0,3.24506,-1
1774389455239,0.0244286,0.802251,-0.132098,0.136313,-0.916322,0.627404,0,0,3.27482,-1
1774389455253,0.0256162,0.859103,-0.141346,0.150624,-0.948848,0.63628,0,0,3.24151,-1
1774389455267,0.0269893,0.891088,-0.147044,0.11871,-0.960909,0.668042,0,0,3.29201,-1
1774389455280,0.0284963,0.911501,-0.15068,0.104641,-0.94341,0.649609,0,0,3.2319,-1
1774389455294,0.0282,0.925797,-0.153398,0.103754,-0.945181,0.640717,0,0,3.22443,-1
1774389455307,0.0277806,0.936122,-0.156002,0.0844951,-0.983696,0.639695,0,0,3.26412,-1
1774389455320,0.0286528,0.944801,-0.158302,0.102011,-1.01411,0.625237,0,0,3.23501,-1
1774389455334,0.0296417,0.950984,-0.159101,0.0937155,-1.00893,0.616461,0,0,3.23934,-1
1774389455347,0.0295821,0.955968,-0.160023,0.0877907,-1.00635,0.623173,0,0,3.3054,0
1774389455361,0.0299893,0.960086,-0.16104,0.0798476,-1.00496,0.612858,0,0,3.2826,0
1774389455378,0.0301418,0.964141,-0.161261,0.0922877,-0.997409,0.609819,0,0,6.80103,0
1774389455391,0.0302525,0.967337,-0.16111,0.0902171,-1.00032,0.599843,0,0,3.65799,0
1774389455405,0.0308021,0.970073,-0.161471,0.0954331,-0.996466,0.607761,0,0,3.30193,0
1774389455418,0.0311044,0.97222,-0.162326,0.102447,-0.995528,0.598235,0,0,3.25512,1
1774389455431,0.0309088,0.974275,-0.16274,0.104547,-0.993525,0.609164,0,0,3.28323,1
1774389455445,0.0310963,0.976222,-0.163257,0.105853,-1.00081,0.618344,0,0,3.25414,1
1774389455458,0.0311538,0.977559,-0.163736,0.104277,-1.00844,0.613397,0,0,3.27615,1
1774389455472,0.0313129,0.979318,-0.164017,0.10232,-1.00143,0.598237,0,0,3.26341,1
1774389455485,0.0311904,0.980604,-0.164524,0.114633,-0.999248,0.601175,0,0,3.3153,1
1774389455499,0.0313525,0.981706,-0.164656,0.118709,-1.01104,0.598237,0,0,3.27982,1
1774389455512,0.0317118,0.982632,-0.164748,0.109918,-1.00581,0.603061,0,0,3.61897,1
1774389455526,0.0317819,0.983882,-0.164915,0.114153,-1.00199,0.602076,0,0,3.28336,5
1774389455539,0.0317795,0.98493,-0.164962,0.119025,-0.996043,0.605048,0,0,3.25284,5
1774389455552,0.0319748,0.985979,-0.164506,0.114436,-0.989593,0.608272,0,0,3.30719,5
1774389455566,0.0317812,0.986877,-0.164521,0.123893,-0.994964,0.606058,0,0,3.26965,5
1774389455579,0.0318807,0.987751,-0.164701,0.127994,-1.00369,0.605874,0,0,3.29204,5
1774389455592,0.0318609,0.988468,-0.164856,0.133659,-1.00022,0.608482,0,0,3.26282,5
1774389455606,0.0315952,0.989039,-0.16484,0.145823,-1.00388,0.612288,0,0,3.70997,5
1774389455620,0.0313704,0.98977,-0.164728,0.143953,-1.00775,0.610825,0,0,3.29369,5
1774389455633,0.0313524,0.990493,-0.164973,0.140397,-1.02042,0.615796,0,0,3.27158,5
1774389455646,0.0312638,0.9914,-0.165203,0.138421,-1.01652,0.621343,0,0,3.28778,5
1774389455660,0.0314287,0.991769,-0.165278,0.134782,-1.02002,0.625193,0,0,3.26882,5
1774389455673,0.0315374,0.992305,-0.165067,0.140724,-1.0193,0.631027,0,0,3.30536,5
1774389455687,0.0315586,0.992962,-0.165008,0.13388,-1.02749,0.622307,0,0,3.30482,5
1774389455701,0.0313477,0.993283,-0.164894,0.127458,-1.03208,0.626052,0,0,4.00776,5
1774389455714,0.0316298,0.993771,-0.165027,0.127591,-1.02451,0.631329,0,0,3.31908,5
1774389455728,0.0318287,0.99413,-0.164902,0.129472,-1.03012,0.628387,0,0,3.29928,5
1774389455741,0.0317565,0.994267,-0.164772,0.125987,-1.01964,0.632624,0,0,3.36343,5
1774389455755,0.0317105,0.994633,-0.165066,0.132317,-1.03031,0.631369,0,0,3.29454,5
1774389455768,0.0316781,0.995037,-0.165278,0.135658,-1.02291,0.628446,0,0,3.33262,5
1774389455781,0.0316473,0.995499,-0.165804,0.125754,-1.01465,0.615257,0,0,3.28202,5
1774389455795,0.0318964,0.995693,-0.165758,0.122509,-1.00774,0.617168,0,0,3.34728,5
1774389455809,0.0320445,0.995933,-0.165714,0.124222,-1.0138,0.616366,0,0,3.45073,5
1774389455822,0.032097,0.99615,-0.16575,0.12497,-1.01562,0.61994,0,0,3.78006,5
1774389455836,0.0323454,0.996302,-0.165608,0.120485,-1.01646,0.621578,0,0,3.31627,5
1774389455849,0.0325489,0.99671,-0.165868,0.109348,-1.00991,0.627009,0,0,3.31614,1
1774389455863,0.0324796,0.997077,-0.16571,0.101872,-1.01108,0.625655,0,0,3.30795,1
1774389455876,0.0325448,0.997263,-0.165735,0.0982738,-1.0139,0.626534,0,0,3.28421,1
1774389455890,0.0325197,0.997506,-0.165922,0.0948814,-1.0157,0.627363,0,0,3.33173,1
1774389455903,0.0326701,0.99753,-0.166242,0.0942659,-1.01008,0.634173,0,0,3.27719,1
1774389455917,0.0329114,0.997727,-0.165938,0.0880917,-1.01124,0.633709,0,0,3.96447,1
1774389455930,0.032794,0.997926,-0.16605,0.0814085,-1.01705,0.632842,0,0,3.28545,5
1774389455944,0.0328773,0.998083,-0.166135,0.0824124,-1.02125,0.621708,0,0,3.27488,5
1774389455957,0.0330109,0.998146,-0.166,0.0756252,-1.03037,0.627103,0,0,3.3118,5
1774389455971,0.032803,0.998283,-0.166163,0.0739471,-1.03167,0.623173,0,0,3.26899,5
1774389455984,0.0326911,0.998391,-0.166373,0.0607711,-1.03675,0.615601,0,0,3.3026,5
1774389455997,0.0327245,0.998473,-0.166638,0.0595001,-1.02739,0.615754,0,0,3.2751,1
1774389456012,0.0325731,0.998756,-0.16647,0.0600174,-1.0237,0.608174,0,0,4.4293,1
1774389456025,0.0325578,0.99908,-0.166504,0.0497799,-1.01508,0.600592,0,0,3.35128,1
1774389456039,0.0324894,0.999121,-0.166461,0.0405488,-1.0048,0.599444,0,0,3.31884,1
1774389456055,0.0324993,0.999235,-0.166183,0.037842,-1.00367,0.595358,0,0,5.84183,1
1774389456068,0.0327131,0.99915,-0.166176,0.0271408,-1.01204,0.597077,0,0,3.27023,1
1774389456082,0.0325627,0.999199,-0.166244,0.00846805,-1.01308,0.593554,0,0,3.28228,1
1774389456095,0.0325802,0.999406,-0.166728,-0.000151919,-1.00806,0.59323,0,0,3.25097,1
1774389456108,0.0325753,0.999442,-0.166814,-0.00657246,-1.0136,0.586067,0,0,3.32599,1
1774389456122,0.0324527,0.999456,-0.166812,-0.0289171,-1.02227,0.596877,0,0,3.2761,1
1774389456135,0.0325286,0.999233,-0.166701,-0.0414349,-1.02787,0.603652,0,0,3.30808,1
1774389456149,0.0325475,0.999385,-0.166425,-0.0583908,-1.03145,0.605761,0,0,3.27253,1
1774389456162,0.0325763,0.999776,-0.166257,-0.080392,-1.0404,0.615891,0,0,3.69475,1
1774389456176,0.0326359,0.999818,-0.1663,-0.087876,-1.04841,0.6126,0,0,3.27469,1
1774389456189,0.0326287,1.00007,-0.166502,-0.106078,-1.04741,0.609066,0,0,3.2563,1
1774389456203,0.0328466,1.00026,-0.166405,-0.115118,-1.04903,0.613441,0,0,3.30871,1
1774389456216,0.0326802,1.00019,-0.166602,-0.127077,-1.04157,0.619711,0,0,3.27527,1
1774389456229,0.0326175,1.00051,-0.166651,-0.132797,-1.04652,0.62049,0,0,3.30529,1
1774389456243,0.0327288,1.00062,-0.166902,-0.143335,-1.0529,0.623366,0,0,3.27319,1
1774389456257,0.0326105,1.00078,-0.166521,-0.148999,-1.0525,0.631649,0,0,3.81208,1
1774389456270,0.0324119,1.00075,-0.166659,-0.151774,-1.05084,0.638183,0,0,3.27054,1
1774389456283,0.0323396,1.00106,-0.166759,-0.152253,-1.0497,0.638353,0,0,3.24484,1
1774389456297,0.0324309,1.00124,-0.166898,-0.149707,-1.04349,0.633803,0,0,3.3043,1
1774389456310,0.0325181,1.00138,-0.166763,-0.151586,-1.04619,0.633791,0,0,3.26341,1
1774389456323,0.0326016,1.00118,-0.166687,-0.152504,-1.0543,0.628212,0,0,3.29304,1
1774389456337,0.0324355,1.00126,-0.166337,-0.147374,-1.04655,0.621234,0,0,3.27356,1
1774389456350,0.0325012,1.00137,-0.166109,-0.142961,-1.0465,0.627922,0,0,3.41956,1
1774389456364,0.032254,1.00149,-0.166351,-0.146931,-1.0546,0.634663,0,0,3.29771,1
1774389456378,0.0324131,1.00172,-0.166358,-0.137832,-1.04897,0.632034,0,0,3.63728,1
1774389456391,0.0326614,1.00159,-0.16646,-0.134383,-1.04836,0.629123,0,0,3.27836,1
1774389456405,0.032386,1.0015,-0.166623,-0.133267,-1.04993,0.626804,0,0,3.29665,1
1774389456418,0.032614,1.00135,-0.16666,-0.1502,-1.05955,0.631039,0,0,3.33312,1
1774389456432,0.0323514,1.00148,-0.166824,-0.149054,-1.05193,0.650023,0,0,3.26551,1
1774389456445,0.0317476,1.00195,-0.166896,-0.150542,-1.05972,0.649101,0,0,3.30851,1
1774389456458,0.0316831,1.00158,-0.166953,-0.170359,-1.08121,0.643949,0,0,3.27634,1
1774389456472,0.031771,1.0018,-0.167147,-0.180928,-1.1032,0.644224,0,0,3.60721,1
1774389456485,0.0316521,1.00188,-0.167375,-0.193902,-1.1124,0.638917,0,0,3.29208,1
1774389456499,0.0319442,1.00176,-0.167508,-0.19844,-1.13136,0.633908,0,0,3.25241,1
1774389456512,0.0325547,1.00175,-0.16756,-0.204865,-1.1394,0.632606,0,0,3.39449,1
1774389456526,0.0328074,1.00188,-0.16745,-0.221635,-1.15299,0.645507,0,0,3.28404,1
1774389456539,0.0330383,1.00186,-0.167216,-0.230612,-1.14527,0.662822,0,0,3.31925,1
1774389456553,0.0330241,1.00228,-0.167474,-0.226668,-1.15082,0.649193,0,0,3.31478,1
1774389456567,0.0331067,1.00208,-0.167271,-0.228084,-1.15778,0.650459,0,0,3.64088,1
1774389456581,0.0329935,1.00229,-0.167099,-0.203729,-1.14122,0.643089,0,0,3.27021,3
1774389456594,0.0328638,1.00234,-0.166987,-0.181168,-1.12902,0.636133,0,0,3.27217,3
1774389456608,0.032868,1.00217,-0.166688,-0.149596,-1.11621,0.632137,0,0,3.27165,3
1774389456621,0.0327652,1.00233,-0.166574,-0.131356,-1.11141,0.629649,0,0,3.27953,3
1774389456635,0.0326135,1.00215,-0.166506,-0.105576,-1.09702,0.620022,0,0,3.32919,3
1774389456648,0.0326393,1.00216,-0.166634,-0.0833827,-1.08216,0.615216,0,0,3.31028,1
1774389456662,0.0326639,1.00207,-0.16633,-0.0602934,-1.08055,0.602973,0,0,3.3118,1
1774389456675,0.032869,1.0021,-0.165932,-0.0462066,-1.06747,0.599552,0,0,3.27182,1
1774389456689,0.0327982,1.00183,-0.16554,-0.0393328,-1.06197,0.595038,0,0,3.74638,1
1774389456702,0.0328693,1.00186,-0.165219,-0.0238527,-1.06577,0.593775,0,0,3.31808,1
1774389456716,0.0329693,1.00179,-0.165297,-0.0212302,-1.04581,0.596008,0,0,3.29158,1
1774389456729,0.0325845,1.00197,-0.16535,-0.00976279,-1.03896,0.595547,0,0,3.30671,1
1774389456743,0.0324514,1.00188,-0.165261,0.00405867,-1.0402,0.593827,0,0,3.25954,1
1774389456756,0.0323668,1.00243,-0.165145,0.0123948,-1.03195,0.606762,0,0,3.29451,5
1774389456769,0.0323713,1.00262,-0.16514,0.0228324,-1.03487,0.614261,0,0,3.30175,5
1774389456783,0.0323543,1.00257,-0.165349,0.0339691,-1.03634,0.633758,0,0,3.65249,5
1774389456797,0.0324448,1.00304,-0.165635,0.0543294,-1.02188,0.639743,0,0,3.27423,5
1774389456810,0.0326916,1.00291,-0.165908,0.0701222,-1.01766,0.638541,0,0,3.2538,5
1774389456823,0.0325858,1.0028,-0.166062,0.0940211,-1.02223,0.618567,0,0,3.40921,5
1774389456837,0.0325594,1.00264,-0.166626,0.0973109,-1.01328,0.618981,0,0,3.27069,5
1774389456850,0.0325128,1.00279,-0.166418,0.116687,-1.00269,0.613806,0,0,3.29219,5
1774389456864,0.0327672,1.00261,-0.166581,0.125985,-1.00425,0.607208,0,0,3.32741,5
1774389456877,0.0327756,1.00282,-0.16645,0.137758,-0.994161,0.597555,0,0,3.33093,5
1774389456891,0.0331573,1.00275,-0.166399,0.151441,-1.00391,0.575598,0,0,3.2988,5
1774389456905,0.0329458,1.00274,-0.16667,0.157932,-1.00069,0.554872,0,0,3.63871,5
1774389456918,0.0331065,1.0027,-0.16646,0.169198,-0.992946,0.536593,0,0,3.30665,5
1774389456931,0.0329613,1.00276,-0.166302,0.176407,-0.991201,0.523194,0,0,3.31462,5
1774389456945,0.0326409,1.00291,-0.165991,0.187921,-0.993407,0.505408,0,0,3.29823,5
1774389456958,0.0329004,1.00283,-0.166141,0.192795,-0.986926,0.488191,0,0,3.27564,5
1774389456972,0.0326467,1.0028,-0.1662,0.201677,-0.987659,0.496347,0,0,3.31269,5
1774389456985,0.0326283,1.00266,-0.166266,0.213915,-0.983642,0.489915,0,0,3.27275,5
1774389456999,0.0327282,1.00296,-0.166202,0.223753,-0.987556,0.484272,0,0,3.82837,5
1774389457012,0.03245,1.00289,-0.166461,0.22833,-0.980119,0.460533,0,0,3.26577,5
1774389457026,0.0327712,1.00287,-0.166698,0.24207,-0.981234,0.455254,0,0,3.35725,5
1774389457039,0.0325445,1.00273,-0.166807,0.259749,-0.973295,0.446845,0,0,3.31664,5
1774389457053,0.0323384,1.00296,-0.167242,0.270014,-0.971795,0.4479,0,0,3.27082,5
1774389457066,0.0316502,1.00308,-0.167348,0.268142,-0.967383,0.443757,0,0,3.44175,5
1774389457080,0.0313444,1.00301,-0.167354,0.266375,-0.969212,0.440275,0,0,3.27664,5
1774389457093,0.0312869,1.00304,-0.167167,0.26642,-0.984641,0.435704,0,0,3.32925,5
1774389457107,0.0317444,1.00288,-0.167544,0.26475,-0.986359,0.425394,0,0,3.28841,5
1774389457121,0.0318723,1.00296,-0.167435,0.264886,-0.988837,0.419945,0,0,3.62741,5
1774389457134,0.0315141,1.00275,-0.167479,0.261589,-0.981328,0.428931,0,0,3.27604,5
1774389457147,0.030958,1.00247,-0.167639,0.250341,-0.981947,0.446834,0,0,3.29271,5
1774389457161,0.0310241,1.00243,-0.167568,0.242722,-0.98767,0.465016,0,0,3.31178,5
1774389457174,0.0311301,1.00229,-0.167308,0.224397,-0.991787,0.450494,0,0,3.25677,5
1774389457188,0.0330786,1.00123,-0.167252,0.210525,-0.982399,0.445777,0,0,3.30608,5
1774389457201,0.0328491,1.00191,-0.166984,0.205996,-0.980817,0.436187,0,0,3.30027,5
1774389457215,0.0322347,1.00083,-0.167508,0.164039,-1.0093,0.458821,0,0,3.87536,5
1774389457229,0.0320848,1.0016,-0.167346,0.147559,-1.04432,0.48618,0,0,3.33014,5
1774389457242,0.0319309,1.00124,-0.166904,0.0797641,-1.06238,0.533413,0,0,3.2548,5
1774389457256,0.0320399,1.00188,-0.16679,0.0603034,-1.08329,0.587417,0,0,3.28793,5
1774389457269,0.0322509,1.0018,-0.166842,0.0162432,-1.09703,0.618696,0,0,3.27741,5
1774389457282,0.0328051,1.00173,-0.166923,-0.0112155,-1.13355,0.625097,0,0,3.29704,5
1774389457296,0.0330894,1.00157,-0.167086,-0.0675352,-1.15346,0.659828,0,0,3.27036,5
1774389457309,0.0334894,1.0016,-0.166762,-0.0954328,-1.18596,0.676769,0,0,3.26784,5
1774389457323,0.0332527,1.00183,-0.166751,-0.126047,-1.19994,0.700466,0,0,3.26101,5
1774389457336,0.0332932,1.00193,-0.16659,-0.144668,-1.2324,0.724975,0,0,3.27345,5
1774389457349,0.0327875,1.00213,-0.166661,-0.166527,-1.25019,0.747253,0,0,3.29367,5
1774389457363,0.032795,1.00209,-0.166537,-0.175598,-1.26998,0.769137,0,0,3.25353,5
1774389457376,0.0326847,1.00209,-0.166375,-0.172599,-1.26255,0.780374,0,0,3.31788,3
1774389457390,0.0328462,1.00208,-0.166157,-0.167627,-1.25296,0.773425,0,0,3.32397,3
1774389457404,0.0326162,1.00262,-0.166332,-0.144951,-1.2392,0.770291,0,0,3.81919,3
1774389457417,0.0330796,1.00259,-0.166489,-0.125259,-1.22878,0.760482,0,0,3.33304,3
1774389457431,0.0335655,1.00248,-0.1665,-0.0963958,-1.22023,0.750795,0,0,3.32995,3
1774389457444,0.0342543,1.00302,-0.166223,-0.0854223,-1.21301,0.741224,0,0,3.30327,3
1774389457458,0.0346141,1.00277,-0.166235,-0.0553678,-1.20106,0.735186,0,0,3.28127,3
1774389457471,0.034894,1.00292,-0.166279,-0.0274272,-1.18422,0.725205,0,0,3.28851,3
1774389457485,0.0350229,1.00301,-0.166353,0.00322789,-1.16018,0.701226,0,0,3.2853,3
1774389457498,0.0351676,1.00317,-0.166712,0.0325917,-1.12337,0.675166,0,0,3.35025,3
1774389457511,0.034708,1.00328,-0.166874,0.0611648,-1.08133,0.674547,0,0,3.28673,3
1774389457525,0.0346315,1.0033,-0.166484,0.0966989,-1.05922,0.653837,0,0,3.63302,3
1774389457539,0.0345049,1.00323,-0.166623,0.117394,-1.02678,0.645422,0,0,3.40221,5
1774389457552,0.0345228,1.00311,-0.166362,0.130506,-0.994019,0.638764,0,0,3.30858,5
1774389457566,0.0342408,1.00308,-0.166325,0.154871,-0.944257,0.655601,0,0,3.33108,5
1774389457579,0.0345051,1.00327,-0.166387,0.162883,-0.888722,0.677916,0,0,3.25023,5
1774389457592,0.0344481,1.00274,-0.166808,0.132338,-0.83202,0.730238,0,0,3.31097,5
1774389457606,0.0343617,1.00267,-0.166816,0.0765293,-0.793486,0.805316,0,0,3.2619,5
1774389457620,0.0346954,1.002,-0.167048,-0.0605011,-0.777666,0.901445,0,0,3.79223,5
1774389457633,0.034203,1.00258,-0.166597,-0.155162,-0.761877,1.04142,0,0,3.35438,5
1774389457647,0.0328033,1.00184,-0.166764,-0.31388,-0.740551,1.20995,0,0,3.25145,5
1774389457660,0.0321161,1.00311,-0.166422,-0.421732,-0.706291,1.4007,0,0,3.27691,5
1774389457673,0.0233125,1.00463,-0.167226,-0.419057,-0.438878,1.50026,0,0,3.26262,5
1774389457687,0.0257203,1.00834,-0.164984,-0.0679886,-0.42839,1.54114,0,0,3.29166,5
1774389457700,0.0261436,1.01471,-0.162723,0.550701,-0.280187,1.37933,0,0,3.40688,5
1774389457714,0.0307658,1.0279,-0.159184,2.01889,-0.112036,0.493544,0,0,3.3163,5
1774389457727,0.0333174,1.0356,-0.157561,3.91812,-0.148999,-0.274475,0,0,3.28453,5
1774389457741,0.0377113,1.05587,-0.153467,6.36809,-0.528149,-1.12616,0,0,3.67099,5
1774389457754,0.0352934,1.06645,-0.145112,9.14992,-0.66723,-1.42909,0,0,3.2769,5
1774389457768,0.0273971,1.0686,-0.126231,11.8245,-0.452534,-2.32776,0,0,3.28219,5
1774389457781,0.0215439,1.0683,-0.0932922,14.4592,0.0871015,-3.43037,0,0,3.3228,5
1774389457795,0.0156156,1.05328,-0.0501669,15.9659,0.93816,-3.8297,0,0,3.26447,5
1774389457808,0.0128614,1.03547,0.000681573,16.3292,1.88535,-3.75833,0,0,3.3123,5
1774389457822,0.00926667,1.01517,0.0491142,15.1966,2.82266,-3.50512,0,0,3.2781,5
1774389457835,0.00777237,0.992994,0.0940407,12.7303,3.50614,-2.84778,0,0,3.80176,5
1774389457849,0.0103579,0.984951,0.131216,9.09431,3.75008,-2.24659,0,0,3.28878,5
1774389457862,0.0147416,0.980687,0.159398,5.11759,3.48192,-1.75233,0,0,3.27384,5
1774389457876,0.0190083,0.980976,0.178478,0.792735,2.74196,-1.2798,0,0,3.32334,2
1774389457889,0.0223196,0.981776,0.190468,-3.80507,1.70652,-1.02432,0,0,3.28882,2
1774389457903,0.0236497,0.987335,0.197695,-8.55303,0.549325,-0.990416,0,0,3.33132,2
1774389457916,0.0242384,0.994178,0.200431,-13.1704,-0.606761,-0.915164,0,0,3.42515,2
1774389457930,0.0250788,1.00184,0.199844,-17.623,-1.69372,-0.728096,0,0,3.66241,2
1774389457944,0.0257972,1.00703,0.196047,-21.9945,-2.70472,-0.368684,0,0,3.27601,2
1774389457957,0.0263773,1.01218,0.190314,-26.3683,-3.62133,0.0386484,0,0,3.2533,3
1774389457971,0.0270068,1.01708,0.183528,-30.6685,-4.44756,0.241582,0,0,3.27832,3
1774389457984,0.0276728,1.02341,0.176015,-34.7266,-5.20732,0.323516,0,0,3.27328,3
1774389457998,0.0288222,1.02993,0.167773,-38.5189,-5.93945,0.446243,0,0,3.33115,3
1774389458011,0.0295476,1.03462,0.159507,-41.941,-6.5984,0.604048,0,0,3.26877,3
1774389458025,0.0298783,1.03647,0.150961,-45.2384,-7.16472,0.666079,0,0,3.30091,3
1774389458038,0.0311021,1.03774,0.143025,-48.3833,-7.64319,0.647129,0,0,3.30601,3
1774389458053,0.0321335,1.041,0.134485,-51.2482,-8.07084,0.735432,0,0,4.29715,3
1774389458066,0.0335897,1.04169,0.125636,-53.8449,-8.4441,0.960084,0,0,3.35849,3
1774389458080,0.0338931,1.03932,0.116159,-56.3842,-8.67224,1.32243,0,0,3.26223,3
1774389458093,0.0342046,1.03468,0.106413,-59.0953,-8.70476,1.55911,0,0,3.30658,3
1774389458106,0.03541,1.03596,0.0962821,-61.5709,-8.56075,1.70202,0,0,3.25879,3
1774389458120,0.0371819,1.03839,0.0846831,-63.5603,-8.31221,1.99278,0,0,3.31486,3
1774389458133,0.040275,1.04058,0.0708366,-64.9916,-7.98897,2.53869,0,0,3.28199,3
1774389458147,0.0421225,1.04017,0.0552148,-66.0467,-7.55155,3.28949,0,0,3.53967,3
1774389458160,0.0443376,1.04163,0.0373293,-66.5887,-6.99908,3.95706,0,0,3.27112,3
1774389458174,0.0466587,1.03958,0.0173005,-66.8165,-6.37013,4.50241,0,0,3.25175,3
1774389458187,0.0492306,1.04253,-0.00518358,-66.5159,-5.76703,4.98677,0,0,3.28806,3
1774389458201,0.0515192,1.04275,-0.0297593,-65.6409,-5.17764,5.4962,0,0,3.26582,3
1774389458214,0.0515083,1.04527,-0.0569118,-64.2955,-4.49286,5.8426,0,0,3.2996,3
1774389458227,0.0499176,1.05206,-0.0850976,-62.0117,-3.60113,5.84072,0,0,3.27864,3
1774389458241,0.0468484,1.05686,-0.113855,-58.8373,-2.43229,5.5495,0,0,3.48358,3
1774389458254,0.0448744,1.0638,-0.142497,-54.7611,-0.961629,5.23051,0,0,3.29171,3
1774389458268,0.0431041,1.06531,-0.170165,-50.067,0.707002,4.89044,0,0,3.65128,3
1774389458282,0.0064978,1.19365,-0.232934,-36.9681,2.97655,2.92179,0,0,3.28547,3
1774389458295,0.0310481,1.07485,-0.19234,-20.9878,3.68009,1.12523,0,0,3.28241,5
1774389458309,0.0167499,1.09977,-0.162211,-10.5095,5.74819,0.52859,0,0,3.33595,5
1774389458322,-0.000403695,1.12054,-0.1591,3.65653,5.7833,0.681776,0,0,3.26928,5
1774389458335,0.00674612,1.088,-0.147818,14.2229,5.58864,1.83603,0,0,3.32832,5
1774389458349,0.0127718,1.09321,-0.139389,22.5395,3.93922,3.04115,0,0,3.28293,5
1774389458363,0.0134518,1.09993,-0.137906,30.2675,1.30971,4.98838,0,0,3.6578,5
1774389458376,0.0021973,1.08019,-0.143534,35.0332,-0.377588,8.0754,0,0,3.28249,5
1774389458389,0.00461027,1.07136,-0.146353,37.5885,-0.955869,9.51201,0,0,3.25977,5
1774389458403,0.0048037,1.06468,-0.146445,39.3119,-0.588392,9.88836,0,0,3.33143,5
1774389458416,0.0100282,1.05704,-0.14556,40.0437,0.131424,9.74647,0,0,3.34608,5
1774389458430,0.0154085,1.05249,-0.144426,40.3084,0.60362,9.35049,0,0,3.31975,5
1774389458444,0.0182153,1.04672,-0.143416,39.952,1.03006,8.82428,0,0,3.30925,5
1774389458457,0.0193192,1.04511,-0.140945,39.4092,1.58373,8.25181,0,0,3.32251,5
1774389458470,0.0211435,1.04282,-0.138198,38.8245,2.11791,7.72771,0,0,3.27684,5
1774389458484,0.0220553,1.04125,-0.135389,38.1736,2.59129,7.35762,0,0,3.25932,5
1774389458497,0.0240056,1.03989,-0.134455,37.5434,3.00815,7.02969,0,0,3.3144,5
1774389458511,0.0259453,1.03568,-0.134425,36.6964,3.2873,6.72915,0,0,3.25503,5
1774389458524,0.0297647,1.03416,-0.133939,35.6982,3.51439,6.32258,0,0,3.33043,5
1774389458538,0.0339723,1.03187,-0.134797,34.7162,3.62341,5.70032,0,0,3.27599,5
1774389458552,0.037462,1.02956,-0.134507,33.6128,3.68008,4.80295,0,0,3.87163,5
1774389458565,0.0407671,1.02913,-0.135138,32.6411,3.79222,3.78635,0,0,3.54099,5
1774389458579,0.042529,1.0268,-0.135997,31.6418,4.0017,2.74543,0,0,3.31584,5
1774389458592,0.0430927,1.0261,-0.137075,30.6599,4.08981,1.80913,0,0,3.29275,5
1774389458606,0.0446889,1.02378,-0.137497,29.7057,4.09377,0.928784,0,0,3.26949,5
1774389458619,0.0422967,1.02044,-0.138456,28.4942,3.98489,0.373139,0,0,3.29258,5
1774389458633,0.0437462,1.02074,-0.138156,27.3129,3.85685,-0.210428,0,0,3.27706,5
1774389458646,0.041107,1.01948,-0.137997,26.102,3.72786,-0.473092,0,0,3.37184,5
1774389458660,0.0416689,1.0207,-0.13824,24.9852,3.52946,-0.519347,0,0,3.27523,5
1774389458673,0.0391419,1.01962,-0.138237,23.8676,3.36659,-0.320654,0,0,3.2736,5
1774389458686,0.0378145,1.01961,-0.137936,22.7694,3.25055,-0.0384765,0,0,3.2781,5
1774389458700,0.0372392,1.02044,-0.137947,21.7804,3.21209,0.314795,0,0,3.27778,5
1774389458713,0.0378207,1.02068,-0.136463,20.947,3.15737,0.670087,0,0,3.31797,5
1774389458727,0.0392417,1.02156,-0.136153,20.3501,3.10787,0.981901,0,0,3.27458,5
1774389458740,0.0409528,1.02261,-0.136958,19.8933,3.0286,1.12721,0,0,3.31877,5
1774389458753,0.0444469,1.02527,-0.137171,19.7957,2.90325,1.13164,0,0,3.28019,5
1774389458767,0.0454286,1.0277,-0.138262,19.9146,2.80291,1.03519,0,0,3.27838,5
1774389458780,0.0446804,1.03235,-0.138985,20.4902,2.76387,0.935593,0,0,3.27471,5
1774389458793,0.0458547,1.03853,-0.140028,21.4638,2.65893,0.799617,0,0,3.24734,5
1774389458807,0.045579,1.04206,-0.141335,22.5104,2.53591,0.71794,0,0,3.30427,5
1774389458820,0.0465326,1.04298,-0.142692,23.619,2.39923,0.539793,0,0,3.26065,5
1774389458834,0.0447325,1.0456,-0.145292,24.6689,2.27578,0.864053,0,0,3.30693,5
1774389458847,0.0439934,1.045,-0.147138,25.5948,2.20807,1.63985,0,0,3.30947,5
1774389458861,0.0444184,1.04718,-0.148935,26.6032,2.12961,2.48388,0,0,3.30775,5
1774389458874,0.0452518,1.04804,-0.151337,27.6801,2.03156,3.33238,0,0,3.28175,5
1774389458887,0.0463371,1.04908,-0.154157,28.7205,1.89063,4.13243,0,0,3.2816,5
1774389458901,0.0471721,1.04846,-0.157132,29.8139,1.77859,4.98437,0,0,3.29773,5
1774389458914,0.0468708,1.04755,-0.161033,30.8353,1.68096,5.79965,0,0,3.28673,5
1774389458928,0.048622,1.04694,-0.164859,31.906,1.58111,6.58291,0,0,3.2966,5
1774389458941,0.0513643,1.04569,-0.168946,32.9741,1.43076,7.26443,0,0,3.29175,5
1774389458955,0.0527802,1.04336,-0.173377,33.9976,1.27429,7.92956,0,0,3.36821,5
1774389458968,0.0548388,1.04184,-0.178212,34.9697,1.1039,8.49871,0,0,3.28619,5
1774389458981,0.0546827,1.04049,-0.183455,35.8543,0.952487,9.04537,0,0,3.26042,5
1774389458995,0.0575764,1.03915,-0.18849,36.8045,0.769747,9.57763,0,0,3.28503,5
1774389459008,0.0613257,1.03749,-0.193358,37.7309,0.515474,9.98711,0,0,3.3033,5
1774389459022,0.0636513,1.03635,-0.199166,38.6628,0.26476,10.3103,0,0,3.29875,5
1774389459035,0.0685443,1.03518,-0.204421,39.6207,-0.0138542,10.5172,0,0,3.27566,5
1774389459049,0.0713549,1.03359,-0.211016,40.5793,-0.344493,10.5953,0,0,3.33619,5
1774389459062,0.0734981,1.03342,-0.217237,41.5993,-0.659155,10.6111,0,0,3.30295,5
1774389459076,0.0738179,1.03213,-0.224585,42.6807,-1.0037,10.7477,0,0,3.70917,5
1774389459089,0.0748924,1.0327,-0.231836,43.8547,-1.3379,10.9896,0,0,3.30228,5
1774389459103,0.0748843,1.03298,-0.239004,45.1007,-1.62938,11.269,0,0,3.35212,5
1774389459118,0.0780049,1.03364,-0.245336,46.5363,-1.97217,11.6016,0,0,4.88202,5
1774389459131,0.0844483,1.03346,-0.251797,48.0974,-2.44174,11.8504,0,0,3.26616,5
1774389459145,0.0885066,1.03401,-0.258904,49.7542,-3.01043,12.0935,0,0,3.29391,5
1774389459158,0.0924088,1.0357,-0.265401,51.619,-3.66711,12.3139,0,0,3.30586,5
1774389459172,0.0948804,1.03718,-0.272981,53.6349,-4.43853,12.6581,0,0,3.88315,5
1774389459186,0.0977351,1.04255,-0.279866,55.9007,-5.24119,13.0588,0,0,3.32206,5
1774389459199,0.101372,1.05129,-0.284571,58.6219,-6.19194,13.6023,0,0,3.25636,5
1774389459215,0.114641,1.06499,-0.287202,62.1829,-7.44389,14.275,0,0,3.32443,5
1774389459229,0.119974,1.08153,-0.289002,66.5834,-9.10433,15.0654,0,0,3.27225,5
1774389459247,0.12171,1.10834,-0.28956,72.6301,-10.9936,16.0363,0,0,3.2884,5
1774389459261,0.118725,1.13228,-0.292293,79.6324,-12.6635,16.7095,0,0,3.27914,5
1774389459274,0.113565,1.15556,-0.299049,87.1004,-13.8916,16.9493,0,0,3.28055,5
1774389459287,0.10531,1.18167,-0.311499,95.1982,-14.2792,16.6636,0,0,3.24238,5
1774389459302,0.107132,1.20546,-0.329363,103.889,-14.2802,16.0252,0,0,4.52308,5
1774389459315,0.116092,1.20596,-0.352061,111.862,-14.2024,14.7465,0,0,3.24651,5
1774389459329,0.133554,1.21024,-0.371919,119.114,-14.6505,12.8977,0,0,3.30623,5
1774389459342,0.149847,1.20929,-0.388518,125.588,-15.2982,11.1179,0,0,3.27066,3
1774389459355,0.16548,1.20683,-0.39839,131.594,-16.2514,10.3183,0,0,3.30177,3
1774389459369,0.182917,1.18789,-0.39662,135.902,-17.61,10.0007,0,0,3.27271,3
1774389459382,0.200286,1.15373,-0.378538,139.46,-19.581,9.89444,0,0,3.25604,3
1774389459396,0.274198,0.969822,-0.315315,137.761,-25.4835,12.007,0,0,3.30932,3
1774389459409,0.278863,0.8809,-0.29498,120.764,-33.7842,14.8498,0,0,3.25864,3
1774389459423,0.253012,0.892739,-0.258463,106.653,-40.7937,16.3791,0,0,3.47115,3
1774389459439,0.20777,0.878628,-0.232778,91.7729,-44.4294,15.0099,0,0,3.35895,3
1774389459453,0.162778,0.869181,-0.213907,78.6287,-45.0211,12.5323,0,0,3.31838,3
1774389459466,0.124696,0.848081,-0.197388,65.5479,-43.0571,10.0023,0,0,3.28595,3
1774389459480,0.0957534,0.827264,-0.183802,52.4575,-39.1968,8.0659,0,0,4.11356,3
1774389459494,0.0762339,0.808233,-0.170777,39.1315,-34.0402,6.74982,0,0,3.26632,3
1774389459507,0.0685758,0.793461,-0.158002,25.6281,-28.4639,5.63472,0,0,3.24175,3
1774389459521,0.0688226,0.782485,-0.146107,12.0738,-23.1168,4.80869,0,0,3.28921,2
1774389459534,0.0752619,0.777424,-0.135585,-1.39685,-18.4721,4.51669,0,0,3.24621,2
1774389459547,0.0835763,0.772615,-0.127307,-14.9006,-14.7658,4.91375,0,0,3.27908,2
1774389459561,0.09047,0.778065,-0.120127,-28.0956,-12.2393,5.8272,0,0,3.27591,2
1774389459574,0.0938806,0.793248,-0.115877,-40.5504,-10.3612,6.84998,0,0,3.31408,2
1774389459587,0.0941098,0.815636,-0.114771,-52.3067,-8.87566,7.61115,0,0,3.27569,2
1774389459601,0.0914996,0.839233,-0.11636,-63.2305,-7.60535,7.99564,0,0,3.31423,2
1774389459614,0.088128,0.862963,-0.118799,-73.378,-6.39303,8.07039,0,0,3.29382,2
1774389459628,0.0865268,0.886092,-0.121237,-82.9696,-5.25342,7.82451,0,0,3.26058,2
1774389459641,0.0869494,0.911413,-0.123708,-92.0484,-4.28092,7.44128,0,0,3.25843,2
1774389459654,0.0901189,0.937975,-0.127,-100.543,-3.54752,7.13778,0,0,3.2754,5
1774389459668,0.0966625,0.96659,-0.130596,-108.433,-3.10233,6.87871,0,0,3.36549,5
1774389459681,0.1067,0.99611,-0.134579,-115.653,-3.01395,6.50143,0,0,3.27741,5
1774389459695,0.117846,1.02534,-0.140278,-122.25,-3.31118,6.15901,0,0,3.25623,5
1774389459708,0.126444,1.05296,-0.146828,-128.331,-3.94586,6.20361,0,0,3.27991,5
1774389459721,0.131869,1.07968,-0.154318,-133.979,-4.70635,6.96079,0,0,3.28006,5
1774389459735,0.133661,1.10567,-0.163457,-139.226,-5.36896,8.3015,0,0,3.29582,5
1774389459748,0.131542,1.13083,-0.175804,-143.991,-5.67368,10.0804,0,0,3.6283,5
1774389459762,0.127839,1.15118,-0.192641,-148.212,-5.5083,12.0203,0,0,3.32915,5
1774389459775,0.126754,1.16778,-0.21156,-151.833,-4.92229,13.7704,0,0,3.26932,5
1774389459789,0.132859,1.18676,-0.233538,-154.505,-4.38114,15.3166,0,0,3.26762,5
1774389459802,0.143673,1.2063,-0.259594,-155.653,-4.49678,17.2698,0,0,3.28391,5
1774389459815,0.152775,1.22111,-0.288258,-155.256,-5.41092,19.9591,0,0,3.24995,3
1774389459829,0.154486,1.22685,-0.319288,-153.616,-6.87282,22.3892,0,0,3.30436,3
1774389459842,0.147901,1.23117,-0.351705,-150.841,-8.35805,23.16,0,0,3.27492,3
1774389459856,0.136084,1.23617,-0.386196,-146.637,-9.52233,22.1332,0,0,3.28984,3
1774389459869,0.121025,1.23992,-0.422061,-141.009,-10.1516,20.1514,0,0,3.28706,3
1774389459882,0.103144,1.24008,-0.458301,-134.221,-10.033,17.656,0,0,3.28982,3
1774389459896,0.0839526,1.24206,-0.491718,-126.498,-8.92732,14.672,0,0,3.27764,3
1774389459909,0.0656218,1.24588,-0.522434,-117.775,-6.81616,11.2255,0,0,3.24519,3
1774389459922,0.0279133,1.36631,-0.516702,-112.644,-2.58957,4.7228,0,0,3.29427,3
1774389459937,0.0464128,1.27059,-0.434251,-92.2953,-1.06598,-1.25112,0,0,4.52869,3
1774389459952,0.0146158,1.23511,-0.38072,-77.6511,1.68753,-4.83208,0,0,5.19361,3
1774389459966,0.0113074,1.2705,-0.363835,-59.265,3.32917,-7.784,0,0,3.55743,3
1774389459980,-0.00627009,1.23399,-0.346515,-42.7603,6.89292,-7.61671,0,0,3.31375,3
1774389459993,0.00228938,1.24067,-0.334137,-29.9264,8.49434,-6.85762,0,0,3.34643,5
1774389460007,0.00560587,1.23168,-0.329603,-18.5935,8.16817,-5.38237,0,0,3.59823,5
1774389460020,0.00848904,1.19389,-0.328823,-11.9164,7.7708,-3.91237,0,0,3.29417,5
1774389460033,0.00260851,1.17885,-0.326753,-7.67266,8.39511,-2.99411,0,0,3.26336,5
1774389460047,0.00816387,1.16114,-0.321678,-4.80419,9.45197,-2.70456,0,0,3.30532,5
1774389460060,0.0169569,1.15154,-0.313066,-2.97697,9.9717,-2.64534,0,0,3.2479,5
1774389460074,0.0233155,1.14565,-0.304521,-1.20386,10.2131,-2.83095,0,0,3.31045,5
1774389460087,0.026652,1.13642,-0.296584,0.168783,10.2581,-3.32556,0,0,3.2581,5
1774389460103,0.0315616,1.1281,-0.290575,1.11289,10.1558,-4.09816,0,0,3.4426,5
1774389460119,0.0324342,1.12228,-0.283761,1.91626,9.96895,-4.87452,0,0,3.30397,5
1774389460132,0.0312079,1.11774,-0.277128,2.70453,9.79342,-5.55296,0,0,3.30795,5
1774389460146,0.0300994,1.11305,-0.270657,3.50597,9.62432,-6.0606,0,0,3.27349,5
1774389460159,0.0291674,1.10923,-0.264788,4.28772,9.31783,-6.21392,0,0,3.25686,5
1774389460173,0.0291731,1.10494,-0.258109,5.04917,9.04823,-6.28327,0,0,3.2836,5
1774389460186,0.0292319,1.09909,-0.252875,5.70325,8.72609,-6.27381,0,0,3.23993,5
1774389460199,0.030249,1.09331,-0.24787,5.99522,8.44729,-6.25545,0,0,3.3113,5
1774389460213,0.0296308,1.08961,-0.241643,6.16248,8.11819,-6.09468,0,0,3.25129,5
1774389460226,0.0272993,1.0869,-0.237225,6.2527,7.82596,-5.7434,0,0,3.31304,5
1774389460239,0.0248883,1.08482,-0.232819,6.35542,7.61093,-5.18745,0,0,3.32666,5
1774389460253,0.0245793,1.08498,-0.227527,6.66219,7.4452,-4.52823,0,0,3.76036,5
1774389460267,0.0238354,1.08321,-0.224506,7.28317,7.32389,-3.82934,0,0,3.44578,5
1774389460280,0.0233802,1.08183,-0.222279,7.9952,7.27789,-3.05576,0,0,3.28808,5
1774389460294,0.0243223,1.0775,-0.220566,8.69684,7.14113,-2.4733,0,0,3.33297,5
1774389460310,0.0227568,1.0785,-0.21943,9.51199,6.93496,-1.95562,0,0,3.28071,5
1774389460323,0.0237688,1.08166,-0.215086,10.4912,6.72152,-1.46998,0,0,3.29219,5
1774389460339,0.0255481,1.08534,-0.211542,11.8484,6.45453,-1.14431,0,0,3.2776,5
1774389460352,0.0268117,1.08531,-0.208921,13.4035,6.22822,-0.756846,0,0,3.27401,5
1774389460366,0.0270912,1.08516,-0.206019,14.689,5.93753,0.289704,0,0,3.23808,5
1774389460379,0.0293017,1.08479,-0.204708,16.2929,5.67812,1.04419,0,0,3.3258,5
1774389460395,0.0282338,1.08388,-0.204436,17.6788,5.41829,1.75079,0,0,3.28203,5
1774389460409,0.0284725,1.08168,-0.203973,19.1094,5.1636,2.51923,0,0,3.75973,5
1774389460422,0.0293627,1.07982,-0.203583,20.4495,4.9095,3.24671,0,0,3.31579,5
1774389460437,0.0313457,1.07856,-0.203531,21.8659,4.62256,3.87558,0,0,3.27608,5
1774389460451,0.0330498,1.07656,-0.20409,23.2265,4.34571,4.38782,0,0,3.6479,5
1774389460464,0.0346154,1.07409,-0.205777,24.6213,4.05057,4.87432,0,0,3.2673,5
1774389460478,0.0356747,1.07108,-0.207423,25.8252,3.78868,5.27359,0,0,3.41679,5
1774389460491,0.0374457,1.06871,-0.209157,26.9611,3.49395,5.62434,0,0,3.25423,5
1774389460505,0.0388404,1.06653,-0.211712,28.0235,3.20291,6.01451,0,0,3.30006,5
1774389460518,0.0392024,1.06738,-0.21424,29.147,2.91492,6.39436,0,0,3.26036,5
1774389460531,0.0414278,1.06754,-0.216573,30.342,2.59213,6.76445,0,0,3.25147,5
1774389460545,0.0438975,1.06773,-0.219604,31.6335,2.24034,7.11465,0,0,3.26256,5
1774389460558,0.0445402,1.0667,-0.223272,32.9257,1.87489,7.53169,0,0,3.24212,5
1774389460571,0.0445035,1.0657,-0.226822,34.2718,1.5111,8.05337,0,0,3.26145,5
1774389460585,0.0436569,1.06345,-0.2317,35.6525,1.19041,8.61516,0,0,3.2688,5
1774389460598,0.0457836,1.06282,-0.235576,37.1561,0.890274,9.13515,0,0,3.26554,5
1774389460611,0.0492266,1.06295,-0.239271,38.7787,0.568867,9.55576,0,0,3.2454,5
1774389460625,0.052551,1.06437,-0.244117,40.5638,0.166576,9.94292,0,0,3.27812,5
1774389460638,0.0555913,1.06677,-0.248304,42.5348,-0.284656,10.2733,0,0,3.26404,5
1774389460652,0.0567369,1.0695,-0.252894,44.6946,-0.762816,10.6043,0,0,3.24673,5
1774389460665,0.0600211,1.07398,-0.257017,47.1468,-1.32334,10.9755,0,0,3.2771,5
1774389460678,0.0627347,1.07829,-0.261024,49.8807,-1.96547,11.3657,0,0,3.2386,5
1774389460692,0.0648812,1.08351,-0.265069,52.966,-2.66235,11.8196,0,0,3.3076,5
1774389460705,0.0688343,1.08663,-0.268755,56.4491,-3.47986,12.4193,0,0,3.25064,5
1774389460718,0.0677351,1.09234,-0.27259,60.0566,-4.25279,13.1948,0,0,3.31412,5
1774389460732,0.07703,1.10266,-0.274602,64.3456,-5.24614,13.9405,0,0,3.24814,1
1774389460745,0.0882459,1.11485,-0.275566,69.0885,-6.71471,14.6606,0,0,3.24147,1
1774389460759,0.0935368,1.13869,-0.273946,74.7317,-8.55222,15.4714,0,0,3.30073,1
1774389460772,0.108056,1.17326,-0.271383,81.7536,-10.6635,15.9211,0,0,3.25823,1
1774389460786,0.104644,1.20427,-0.270704,89.9993,-12.7145,15.9251,0,0,3.34647,1
1774389460799,0.0961596,1.24437,-0.28119,98.9814,-13.8558,15.5353,0,0,3.27923,5
1774389460813,0.0893064,1.26488,-0.29865,107.46,-14.4715,14.5599,0,0,3.85764,5
1774389460826,0.0917749,1.27834,-0.318431,115.462,-14.6364,13.02,0,0,3.28784,5
1774389460840,0.104642,1.27846,-0.336024,123.016,-15.0443,11.4101,0,0,3.23958,5
1774389460853,0.109034,1.28152,-0.349035,130.146,-15.7578,9.47914,0,0,3.28919,5
1774389460866,0.123697,1.28275,-0.362011,136.876,-16.14,7.65345,0,0,3.25438,5
1774389460881,0.143571,1.25537,-0.364618,142.406,-17.0661,6.16696,0,0,4.80363,3
1774389460895,0.16502,1.2062,-0.333672,146.851,-18.6102,5.02247,0,0,3.27173,3
1774389460908,0.26075,0.978521,-0.282917,142.016,-24.5818,7.68153,0,0,3.33112,3
1774389460922,0.250329,0.914876,-0.256686,121.586,-32.0749,11.4923,0,0,3.28495,3
1774389460936,0.232356,0.929275,-0.21312,106.157,-38.1146,12.324,0,0,3.88704,3
1774389460949,0.190633,0.909039,-0.1852,89.4819,-41.299,10.6325,0,0,3.27736,3
1774389460962,0.15207,0.90722,-0.161481,75.2857,-41.7048,7.86391,0,0,3.27997,3
1774389460976,0.120073,0.880549,-0.14355,60.5225,-39.6575,5.26474,0,0,3.33216,3
1774389460990,0.0972157,0.866224,-0.127172,45.9884,-35.8954,3.23314,0,0,3.27134,3
1774389461005,0.0826396,0.847069,-0.110378,31.1524,-30.7245,1.55227,0,0,4.71839,3
1774389461018,0.0762069,0.838724,-0.0949166,16.4883,-25.0584,0.0654617,0,0,3.2758,3
1774389461032,0.0788105,0.834449,-0.0792453,2.04303,-19.657,-0.941879,0,0,3.30277,3
1774389461045,0.086959,0.834877,-0.0659143,-11.8759,-14.8749,-0.925443,0,0,3.26708,3
1774389461059,0.101061,0.839493,-0.0574904,-25.1772,-11.1657,0.23076,0,0,3.73584,3
1774389461072,0.11302,0.844046,-0.0513567,-37.7957,-8.47941,2.14637,0,0,3.28984,2
1774389461086,0.119405,0.856034,-0.0484595,-49.7065,-6.50641,4.17461,0,0,3.29553,2
1774389461099,0.119415,0.868875,-0.0482087,-60.9491,-4.86503,5.81976,0,0,3.31812,2
1774389461112,0.115816,0.885211,-0.0488123,-71.5612,-3.29559,6.82454,0,0,3.30521,2
1774389461126,0.11279,0.904111,-0.0498593,-81.5779,-1.80134,7.269,0,0,3.33268,2
1774389461140,0.113207,0.928303,-0.051309,-91.0328,-0.554898,7.46329,0,0,3.32167,2
1774389461154,0.119648,0.956881,-0.0532611,-99.9574,0.175028,7.69636,0,0,3.33016,5
1774389461167,0.132,0.987861,-0.0555764,-108.381,0.216164,7.98357,0,0,3.32286,5
1774389461181,0.146866,1.01996,-0.0598082,-116.333,-0.512317,8.38656,0,0,3.72202,5
1774389461195,0.162246,1.04868,-0.0658303,-123.838,-1.95483,8.89754,0,0,3.33229,5
1774389461208,0.174038,1.0748,-0.0716744,-130.923,-3.81012,9.63121,0,0,3.29203,5
1774389461221,0.181139,1.10589,-0.078085,-137.61,-5.79386,10.7074,0,0,3.30016,5
1774389461235,0.181503,1.13497,-0.087002,-143.922,-7.51945,12.261,0,0,3.29173,5
1774389461248,0.174857,1.16609,-0.0992125,-149.88,-8.55992,14.4108,0,0,3.31306,5
1774389461262,0.169602,1.20111,-0.11706,-155.503,-8.84709,16.7004,0,0,3.2974,5
1774389461276,0.172093,1.23498,-0.142786,-159.821,-8.78244,18.7477,0,0,3.94282,5
1774389461289,0.182856,1.26361,-0.176676,-162.44,-9.11108,21.0214,0,0,3.50667,5
1774389461303,0.185921,1.28924,-0.219302,-163.094,-10.004,24.4714,0,0,3.30395,5
1774389461316,0.172857,1.30993,-0.270901,-161.752,-10.8015,28.2648,0,0,3.29227,3
1774389461330,0.145225,1.32776,-0.330621,-158.091,-10.6093,30.2851,0,0,3.29606,1
1774389461343,0.109545,1.34177,-0.396174,-152.156,-8.86491,29.8041,0,0,3.30612,3
1774389461356,0.074752,1.35017,-0.463132,-144.19,-5.63926,27.8116,0,0,3.29264,3
1774389461370,0.0446946,1.35861,-0.525934,-134.321,-1.28214,25.647,0,0,3.30888,3
1774389461384,-0.00815675,1.47412,-0.609862,-114.846,4.53732,19.5728,0,0,3.30129,3
1774389461397,0.0429899,1.35104,-0.547947,-94.3737,6.4914,12.2662,0,0,3.75165,3
1774389461411,0.0175353,1.31624,-0.464887,-76.7739,9.22735,6.6245,0,0,3.30629,3
1774389461424,0.0124763,1.34759,-0.439902,-58.4371,9.47707,0.796111,0,0,3.27964,5
1774389461438,-0.0184344,1.33275,-0.421806,-41.1289,10.0964,-0.78188,0,0,3.33169,5
1774389461451,-0.0179805,1.31696,-0.411057,-27.2103,10.3835,-0.224627,0,0,3.28216,5
1774389461464,-0.0266432,1.29327,-0.407591,-16.8407,9.7441,1.0811,0,0,3.30132,5
1774389461479,-0.0295566,1.25582,-0.405674,-11.2095,9.78286,1.80061,0,0,3.39441,5
1774389461494,-0.0290008,1.24112,-0.396731,-7.61985,10.7306,2.15306,0,0,4.57615,5
1774389461507,-0.0201946,1.22491,-0.385584,-4.93546,11.3302,2.27464,0,0,3.33395,5
1774389461521,-0.0122967,1.21161,-0.373441,-3.05763,11.6572,2.13806,0,0,3.79015,5
1774389461535,-0.00465882,1.20246,-0.36327,-1.39818,11.989,1.48118,0,0,3.33434,5
1774389461548,0.00219663,1.18984,-0.351515,-0.212031,12.0419,0.641925,0,0,3.2928,5
1774389461562,0.00691584,1.18045,-0.34005,0.562034,11.8845,-0.229902,0,0,3.29942,5
1774389461575,0.00842846,1.17334,-0.32946,1.27084,11.9188,-1.1877,0,0,3.29479,5
1774389461588,0.007857,1.16793,-0.318853,2.04865,12.1503,-2.1012,0,0,3.31712,5
1774389461602,0.00918967,1.16265,-0.306671,2.97937,12.2755,-2.73438,0,0,3.32379,5
1774389461616,0.0131012,1.15937,-0.294519,4.21499,12.4497,-3.53586,0,0,3.78151,5
1774389461629,0.0169699,1.15142,-0.28402,5.48834,12.5508,-4.41527,0,0,3.27679,5
1774389461643,0.0194415,1.13876,-0.279436,6.24325,12.4317,-5.10833,0,0,3.2948,5
1774389461658,0.0173955,1.13276,-0.278394,6.37347,12.1189,-5.25811,0,0,3.75214,5
1774389461671,0.0142538,1.13089,-0.271686,6.64797,11.8078,-4.97473,0,0,3.3201,5
1774389461685,0.0124773,1.12631,-0.265762,7.11004,11.5394,-4.43278,0,0,3.31353,5
1774389461699,0.0124868,1.12722,-0.258538,7.97223,11.2612,-3.74867,0,0,3.32467,5
1774389461712,0.0138626,1.12462,-0.252026,9.2151,10.9627,-3.15346,0,0,3.32314,5
1774389461726,0.0141319,1.12189,-0.245862,10.4897,10.6633,-2.73422,0,0,3.31947,5
1774389461740,0.0158627,1.12292,-0.240801,11.9228,10.2973,-2.48665,0,0,3.98104,5
1774389461753,0.0152758,1.12242,-0.234647,13.3693,10.0537,-1.65394,0,0,3.29153,5
1774389461767,0.0189853,1.12177,-0.229286,15.1191,9.84898,-1.13854,0,0,3.2918,5
1774389461780,0.0201302,1.1206,-0.225057,16.99,9.57014,-0.833182,0,0,3.34543,5
1774389461793,0.0227519,1.117,-0.221578,18.7898,9.25812,-0.32058,0,0,3.29112,5
1774389461807,0.0224722,1.11245,-0.219981,20.2412,8.93749,0.478842,0,0,3.49654,5
1774389461820,0.0222048,1.10974,-0.218315,21.5328,8.63613,1.34304,0,0,3.30092,5
1774389461834,0.0227392,1.10801,-0.217458,22.8028,8.3294,2.16133,0,0,3.31577,5
1774389461848,0.0232929,1.1059,-0.216671,24.1301,8.04674,3.03263,0,0,3.32405,5
1774389461861,0.0262033,1.10382,-0.215972,25.4091,7.73282,3.84778,0,0,3.75636,5
1774389461875,0.0279829,1.09879,-0.216061,26.6802,7.39798,4.60393,0,0,3.32314,5
1774389461888,0.0311153,1.09551,-0.217161,27.8354,7.08535,5.29754,0,0,3.29097,5
1774389461902,0.0333847,1.09151,-0.217989,28.9416,6.74872,5.81266,0,0,3.29834,5
1774389461915,0.0345619,1.08815,-0.219218,30.0607,6.43482,6.25821,0,0,3.29227,5
1774389461929,0.0388159,1.08596,-0.220094,31.1453,6.03919,6.56829,0,0,3.31469,5
1774389461942,0.0443573,1.08444,-0.220655,32.3228,5.6178,6.60278,0,0,3.30386,5
1774389461956,0.0507561,1.08092,-0.222258,33.4321,5.10272,6.52744,0,0,3.67299,5
1774389461969,0.0527324,1.07697,-0.225393,34.4535,4.5416,6.43362,0,0,3.35884,5
1774389461983,0.053277,1.07364,-0.229235,35.3615,3.98155,6.423,0,0,3.30884,5
1774389461996,0.053264,1.07258,-0.232556,36.3098,3.4358,6.547,0,0,3.35773,5
1774389462011,0.053401,1.07105,-0.236415,37.389,2.88554,6.79078,0,0,3.31712,5
1774389462025,0.0528914,1.07013,-0.240949,38.597,2.37942,7.07827,0,0,3.31593,5
1774389462038,0.0529379,1.06793,-0.245605,39.839,1.89099,7.44983,0,0,3.32614,5
1774389462052,0.0561748,1.06858,-0.250025,41.2709,1.36187,7.79712,0,0,3.32449,5
1774389462065,0.0585547,1.0662,-0.254733,42.8062,0.778932,8.11722,0,0,3.27201,5
1774389462078,0.059827,1.06503,-0.260366,44.368,0.184164,8.43521,0,0,3.27643,5
1774389462092,0.062816,1.06673,-0.265582,46.1277,-0.411925,8.65144,0,0,3.29562,5
1774389462105,0.0656529,1.06591,-0.269801,48.0906,-1.11888,8.88637,0,0,3.34064,5
1774389462119,0.0650772,1.06718,-0.275064,50.2012,-1.81743,9.19761,0,0,3.29018,5
1774389462132,0.0684238,1.07003,-0.280534,52.5968,-2.48751,9.41903,0,0,3.29375,5
1774389462145,0.0719551,1.0697,-0.285744,55.1812,-3.26901,9.69526,0,0,3.31017,5
1774389462159,0.0732285,1.07108,-0.290789,57.9423,-4.12399,10.0211,0,0,3.30188,5
1774389462172,0.0759731,1.07324,-0.296864,61.0298,-5.02094,10.3487,0,0,3.33425,5
1774389462186,0.0831887,1.0761,-0.301914,64.278,-6.09194,10.7013,0,0,3.36016,5
1774389462199,0.0890317,1.08699,-0.304609,68.0621,-7.05534,10.9159,0,0,3.29208,1
1774389462213,0.102606,1.10162,-0.306022,72.7537,-8.4781,11.1818,0,0,3.29986,1
1774389462226,0.111763,1.11987,-0.305429,78.131,-10.3529,11.4833,0,0,3.29753,1
1774389462240,0.107025,1.15489,-0.306582,84.5644,-12.1597,11.9794,0,0,3.29653,1
1774389462253,0.0924579,1.19522,-0.313471,92.4474,-13.4345,12.628,0,0,3.32675,1
1774389462266,0.0690893,1.23735,-0.324116,101.292,-13.6816,12.9846,0,0,3.29416,1
1774389462280,0.0637082,1.27342,-0.337211,109.641,-13.0242,12.4399,0,0,3.3063,1
1774389462293,0.0722823,1.286,-0.34638,117.521,-12.2247,11.1928,0,0,3.29175,1
1774389462307,0.0894607,1.30421,-0.353013,124.96,-11.7894,9.65932,0,0,3.4214,1
1774389462320,0.108653,1.30799,-0.354124,131.981,-12.0479,8.42513,0,0,3.30127,5
1774389462334,0.1288,1.3131,-0.363866,138.608,-12.5025,7.9063,0,0,3.35886,5
1774389462347,0.148461,1.29144,-0.363553,144.863,-13.5957,8.0276,0,0,3.30036,3
1774389462361,0.169835,1.24863,-0.342742,150.768,-15.1804,8.61481,0,0,3.30429,3
1774389462374,0.222743,1.01909,-0.222276,150.763,-19.3498,11.0047,0,0,3.36534,3
1774389462388,0.199389,0.810946,-0.214403,128.284,-26.1127,13.2284,0,0,3.27334,3
1774389462401,0.186302,0.840429,-0.161155,107.057,-31.1911,11.6313,0,0,3.29277,3
1774389462415,0.147501,0.81637,-0.129742,87.0213,-33.7247,7.09141,0,0,3.28073,3
1774389462428,0.114316,0.846469,-0.0987002,68.2317,-33.982,2.36124,0,0,3.31836,3
1774389462442,0.0901833,0.834851,-0.0744607,51.2347,-32.4917,-1.23908,0,0,3.26784,3
1774389462455,0.077858,0.839896,-0.0545698,35.5855,-30.0191,-3.70787,0,0,3.32401,3
1774389462468,0.0685167,0.817376,-0.0388586,20.2437,-26.7801,-5.13042,0,0,3.2776,3
1774389462482,0.0657979,0.804276,-0.0225425,5.07735,-23.0642,-6.35243,0,0,3.25729,3
1774389462495,0.0670951,0.799201,-0.00763401,-9.23826,-19.1337,-7.52644,0,0,3.29297,2
1774389462509,0.0750726,0.806338,0.00769019,-22.7509,-15.8814,-8.18801,0,0,3.28008,2
1774389462522,0.0861819,0.810761,0.0200594,-35.5055,-13.2813,-7.49322,0,0,3.37854,2
1774389462536,0.0958338,0.822592,0.0283643,-47.5447,-11.3087,-5.52416,0,0,3.32282,2
1774389462549,0.101113,0.84106,0.0333057,-58.9087,-9.60304,-3.15086,0,0,3.27488,2
1774389462563,0.101816,0.86803,0.0346786,-69.6351,-7.9237,-0.848178,0,0,3.28195,2
1774389462576,0.0981002,0.89351,0.0325854,-79.7599,-6.15529,1.41655,0,0,3.28049,2
1774389462590,0.0922405,0.920226,0.0295482,-89.3168,-4.29809,3.77347,0,0,3.29386,2
1774389462603,0.0866478,0.946777,0.0264729,-98.3376,-2.38579,6.03587,0,0,3.26084,2
1774389462616,0.0849511,0.975156,0.0242155,-106.852,-0.571336,7.75474,0,0,3.29501,5
1774389462630,0.0936746,1.01107,0.0226013,-114.89,0.714441,8.5555,0,0,3.28379,5
1774389462643,0.112576,1.05521,0.0181642,-122.476,0.962108,8.64766,0,0,3.32434,5
1774389462657,0.138221,1.09872,0.00839059,-129.637,-0.156759,8.4392,0,0,3.27629,5
1774389462670,0.162434,1.13142,-0.00454305,-136.396,-2.497,8.21845,0,0,3.26986,5
1774389462684,0.178937,1.1683,-0.0181603,-142.776,-5.67838,8.52905,0,0,3.52356,5
1774389462697,0.180742,1.21366,-0.037492,-148.798,-8.97161,10.0987,0,0,3.26573,5
1774389462711,0.166176,1.25435,-0.0653206,-153.823,-11.4049,12.9919,0,0,3.32814,5
1774389462724,0.139807,1.27748,-0.10199,-157.641,-12.1486,16.0377,0,0,3.27764,5
1774389462737,0.121041,1.2889,-0.140888,-161.198,-11.2073,18.0626,0,0,3.27093,5
1774389462751,0.116378,1.31686,-0.180979,-163.328,-9.75094,20.2424,0,0,3.29227,5
1774389462764,0.125179,1.34864,-0.227559,-162.565,-8.81262,23.152,0,0,3.27069,5
1774389462778,0.128128,1.36569,-0.279032,-159.121,-8.62574,25.6732,0,0,3.24936,5
1774389462791,0.116738,1.37909,-0.33325,-153.346,-8.4168,26.9556,0,0,3.27575,5
1774389462804,0.100145,1.3885,-0.386079,-145.754,-7.59785,26.4742,0,0,3.27171,3
1774389462818,0.0813406,1.39261,-0.437399,-136.649,-6.04382,24.6509,0,0,3.34136,3
1774389462831,0.0621524,1.3907,-0.481424,-126.711,-3.65337,22.1673,0,0,3.2843,3
1774389462845,0.0475723,1.39152,-0.516456,-116.172,-0.520932,19.3165,0,0,3.33084,5
1774389462858,0.0311528,1.40387,-0.53961,-104.279,3.36068,16.0942,0,0,3.34468,5
1774389462872,0.0547209,1.48114,-0.435807,-85.6119,6.32962,12.2631,0,0,3.26901,5
1774389462885,0.0823406,1.40072,-0.335368,-68.8753,7.8526,7.36142,0,0,3.28195,5
1774389462899,0.0643471,1.42055,-0.311915,-50.9815,10.8265,2.58272,0,0,3.27184,5
1774389462912,0.0382895,1.40108,-0.31414,-34.0915,14.1756,1.00085,0,0,3.30388,5
1774389462925,0.0282016,1.35997,-0.290216,-20.047,18.2087,2.24768,0,0,3.32153,5
1774389462939,0.0477775,1.36203,-0.272346,-8.79887,18.0112,2.09848,0,0,3.2874,5
1774389462954,0.047973,1.36201,-0.270493,2.39934,16.1942,3.12061,0,0,3.32266,5
1774389462967,0.0432591,1.31758,-0.267312,9.61586,14.9681,4.10466,0,0,3.26112,5
1774389462983,0.0405879,1.29671,-0.263469,13.0582,15.4336,4.25936,0,0,3.37614,5
1774389462997,0.0480697,1.28341,-0.256229,15.9156,15.8598,3.83162,0,0,3.24292,5
1774389463010,0.0527153,1.26508,-0.247585,17.9513,15.8543,3.3555,0,0,3.31723,5
1774389463025,0.0533888,1.25226,-0.238904,19.3691,15.6626,2.98915,0,0,3.2894,5
1774389463039,0.0531466,1.23798,-0.231467,20.3384,15.4811,2.565,0,0,3.3031,5
1774389463053,0.0536411,1.22608,-0.225103,20.8401,15.2991,2.21431,0,0,3.31797,5
1774389463066,0.0520533,1.21658,-0.218323,21.192,15.0751,2.07469,0,0,3.27827,5
1774389463080,0.0509834,1.20592,-0.212672,21.3911,14.8816,2.10604,0,0,3.33599,5
1774389463093,0.0506756,1.1965,-0.20792,21.3632,14.5577,2.15105,0,0,3.2834,5
1774389463107,0.0503172,1.18693,-0.200802,21.1801,14.228,2.0792,0,0,3.9244,5
1774389463121,0.0531882,1.17926,-0.194369,20.9747,13.8075,1.85253,0,0,3.92201,5
1774389463135,0.0559977,1.17133,-0.191154,20.7685,13.3563,1.34527,0,0,3.28006,5
1774389463148,0.0561326,1.16421,-0.187311,20.5036,13.037,0.627099,0,0,3.28273,5
1774389463161,0.0565819,1.15978,-0.183198,20.4543,12.8641,-0.35651,0,0,3.29886,5
1774389463175,0.0563603,1.15523,-0.178784,20.6596,12.6919,-1.45108,0,0,3.27768,5
1774389463188,0.0584225,1.14907,-0.171542,20.9519,12.4955,-2.63541,0,0,3.31516,5
1774389463203,0.05843,1.14058,-0.167254,21.0998,12.1808,-3.62227,0,0,3.29367,5
1774389463216,0.0598678,1.1355,-0.166666,21.2213,11.9772,-4.80128,0,0,3.28901,5
1774389463230,0.0555307,1.12784,-0.165869,21.2333,11.7202,-5.57674,0,0,3.76416,5
1774389463243,0.0506785,1.126,-0.163932,21.3573,11.4974,-6.04793,0,0,3.30449,5
1774389463257,0.0430704,1.12657,-0.162133,21.9898,11.4314,-5.88253,0,0,3.27892,5
1774389463270,0.0370442,1.12709,-0.158619,23.1632,11.4569,-5.28709,0,0,3.34653,5
1774389463284,0.0395561,1.12387,-0.15827,24.5692,11.2274,-4.78671,0,0,3.30192,5
1774389463297,0.0354987,1.11581,-0.157947,25.6814,11.0331,-4.14226,0,0,3.3151,5
1774389463311,0.0369144,1.10871,-0.159805,26.47,10.7911,-3.50656,0,0,3.28843,5
1774389463325,0.0336451,1.1024,-0.162874,26.9437,10.602,-2.87098,0,0,3.70886,5
1774389463338,0.0311381,1.10117,-0.162691,27.3832,10.42,-2.51854,0,0,3.28084,5
1774389463352,0.0357981,1.10394,-0.163541,28.132,10.1597,-2.40896,0,0,3.28262,5
1774389463365,0.031873,1.10205,-0.16539,28.9112,9.86428,-2.31579,0,0,3.3079,5
1774389463379,0.0315574,1.10175,-0.166581,29.2938,9.6501,-1.97951,0,0,3.27573,5
1774389463393,0.0314799,1.1057,-0.167838,29.8708,9.40467,-1.14612,0,0,3.31334,5
1774389463406,0.0314592,1.10766,-0.168441,30.5071,9.13705,0.0528591,0,0,3.27069,5
1774389463420,0.0328808,1.10964,-0.169499,31.4776,8.81807,1.30962,0,0,3.33103,5
1774389463433,0.0315069,1.10895,-0.171108,32.4476,8.53411,2.42052,0,0,3.28351,5
1774389463447,0.0334495,1.10921,-0.173117,33.5833,8.24125,3.52092,0,0,3.81341,5
1774389463461,0.0363108,1.11045,-0.175187,34.8814,7.84834,4.4988,0,0,3.28092,5
1774389463474,0.0381394,1.11142,-0.178171,36.4192,7.40083,5.19146,0,0,3.29514,5
1774389463488,0.0428883,1.11193,-0.180159,38.0511,6.85939,5.70139,0,0,3.28055,5
1774389463501,0.045166,1.11262,-0.183117,39.8256,6.23955,6.00931,0,0,3.30649,5
1774389463514,0.0471626,1.11197,-0.186234,41.7092,5.57998,6.28068,0,0,3.29967,5
1774389463528,0.0484099,1.11088,-0.190678,43.6857,4.8692,6.54754,0,0,3.45647,5
1774389463542,0.0477982,1.10959,-0.195077,45.7227,4.15333,6.79815,0,0,3.34769,5
1774389463555,0.0479821,1.1067,-0.200788,47.904,3.41553,7.08822,0,0,3.28629,5
1774389463569,0.0494498,1.10564,-0.205311,50.1728,2.71868,7.36031,0,0,3.65425,5
1774389463582,0.0506718,1.10389,-0.211354,52.6003,1.91963,7.66595,0,0,3.29125,5
1774389463596,0.0531963,1.1041,-0.217273,55.209,1.09088,7.88636,0,0,3.30677,5
1774389463609,0.0549058,1.10228,-0.223284,57.9629,0.127076,8.25541,0,0,3.30753,5
1774389463623,0.053252,1.1024,-0.229407,60.8171,-0.826772,8.86623,0,0,3.33173,5
1774389463636,0.0519161,1.10517,-0.235069,63.9288,-1.81918,9.68729,0,0,3.31619,5
1774389463650,0.0547065,1.11112,-0.239363,67.3621,-2.93104,10.6323,0,0,3.28232,5
1774389463664,0.0576632,1.12336,-0.24238,71.332,-4.27856,11.7936,0,0,3.87319,5
1774389463677,0.0641741,1.14658,-0.243877,76.2389,-6.01764,12.9138,0,0,3.27362,5
1774389463691,0.0737421,1.17408,-0.241828,82.414,-7.98973,13.8777,0,0,3.3123,5
1774389463704,0.0761012,1.20548,-0.238705,89.664,-10.0418,14.5243,0,0,3.3321,5
1774389463718,0.0787948,1.25092,-0.242434,98.545,-11.8956,14.5929,0,0,3.36242,5
1774389463732,0.0750073,1.28305,-0.253217,107.048,-13.2631,14.2835,0,0,3.69186,5
1774389463745,0.0739478,1.31156,-0.26922,115.074,-14.0388,13.5033,0,0,3.27706,5
1774389463759,0.078871,1.32405,-0.27832,122.649,-14.6026,12.5228,0,0,3.33169,5
1774389463772,0.0928358,1.33249,-0.281395,129.8,-15.7562,11.7069,0,0,3.28386,5
1774389463786,0.104941,1.3383,-0.289396,136.549,-17.0326,12.2436,0,0,3.63804,5
1774389463799,0.127129,1.33758,-0.293898,142.92,-18.8621,12.9737,0,0,3.29003,5
1774389463813,0.152628,1.28341,-0.291252,148.934,-21.4377,13.9116,0,0,3.28332,3
1774389463826,0.173009,1.14949,-0.227308,150.832,-25.7464,15.1972,0,0,3.30221,3
1774389463839,0.229846,0.931318,-0.213172,138.612,-33.736,18.2486,0,0,3.27349,3
1774389463853,0.208412,0.91852,-0.170227,119.811,-40.2687,17.7199,0,0,3.31736,3
1774389463866,0.174773,0.912677,-0.137874,104.271,-44.9136,12.5961,0,0,3.28862,3
1774389463880,0.134523,0.900096,-0.115263,88.5088,-46.7904,9.50116,0,0,3.87793,3
1774389463894,0.100965,0.875883,-0.0959793,73.3469,-46.4922,9.5908,0,0,3.27371,3
1774389463907,0.0737652,0.845223,-0.0796743,57.1184,-44.1305,10.7185,0,0,3.29458,3
1774389463921,0.0512355,0.818136,-0.0632068,40.1453,-39.8786,10.6422,0,0,3.28881,3
1774389463934,0.0363854,0.805643,-0.0454416,23.8627,-34.2817,9.17904,0,0,3.42738,3
1774389463948,0.0314737,0.807694,-0.0286882,8.49333,-28.2503,7.60868,0,0,3.29621,2
1774389463961,0.0374002,0.806676,-0.0157424,-6.01389,-22.6044,7.35445,0,0,3.28843,2
1774389463975,0.0476907,0.791823,-0.00224168,-19.7074,-18.0505,8.42431,0,0,3.32262,2
1774389463988,0.0571681,0.788595,0.0129855,-32.6327,-14.4595,10.2982,0,0,3.29455,2
1774389464002,0.063722,0.801289,0.0276962,-44.8331,-11.5113,12.3895,0,0,3.63749,2
1774389464015,0.0651847,0.827618,0.0385713,-56.3491,-8.94052,14.4315,0,0,3.28845,2
1774389464029,0.0610635,0.855143,0.0467072,-67.2192,-6.51219,16.4364,0,0,3.28695,2
1774389464042,0.0518801,0.880409,0.0543165,-77.4795,-3.99998,18.0845,0,0,3.32571,2
1774389464056,0.0436963,0.911071,0.0623617,-87.1643,-1.45998,18.8766,0,0,3.34775,2
1774389464069,0.0444439,0.944727,0.0700231,-96.3058,0.496517,18.8069,0,0,3.32316,5
1774389464083,0.0567005,0.979175,0.0766447,-104.935,1.14734,18.3565,0,0,3.28499,5
1774389464097,0.0791087,1.02386,0.0806279,-113.079,-0.104804,17.8677,0,0,3.79077,5
1774389464110,0.103847,1.07343,0.0770378,-120.767,-3.21569,17.2195,0,0,3.27938,5
1774389464124,0.118235,1.12652,0.0658212,-128.024,-7.36599,16.028,0,0,3.3419,5
1774389464137,0.12151,1.18621,0.0454432,-134.874,-11.6868,14.6481,0,0,3.65219,5
1774389464151,0.114926,1.24168,0.0141692,-141.143,-15.3997,14.1185,0,0,3.2606,5
1774389464164,0.0983578,1.2854,-0.0266596,-145.568,-17.9117,15.208,0,0,3.30977,5
1774389464178,0.0768346,1.31557,-0.0735931,-148.808,-18.7799,17.6258,0,0,3.29605,5
1774389464191,0.0635022,1.33532,-0.124047,-150.933,-18.3696,20.532,0,0,3.35743,5
1774389464205,0.0540627,1.35179,-0.177452,-151.657,-17.2925,23.7388,0,0,3.27607,5
1774389464219,0.0470539,1.36796,-0.231372,-150.664,-15.9213,26.8843,0,0,3.90186,1
1774389464232,0.0418038,1.38908,-0.28634,-147.103,-14.5136,28.8558,0,0,3.27651,1
1774389464246,0.0332812,1.40195,-0.340484,-141.078,-13.0088,29.0501,0,0,3.28019,1
1774389464259,0.0232201,1.40346,-0.388577,-133.449,-11.3213,27.7662,0,0,3.32056,1
1774389464273,0.0119121,1.40232,-0.427306,-124.868,-9.27536,25.8118,0,0,3.28432,3
1774389464286,-0.00155988,1.40197,-0.455138,-115.388,-6.62314,23.2601,0,0,3.31671,3
1774389464300,-0.0156279,1.39576,-0.473169,-105.456,-3.13743,20.1411,0,0,3.30068,3
1774389464314,-0.0274364,1.38663,-0.48109,-95.5749,1.14657,17.0511,0,0,3.68275,3
1774389464327,-0.00761602,1.35414,-0.357574,-77.677,3.28956,11.4728,0,0,3.2721,5
1774389464341,-0.00239294,1.31356,-0.285616,-62.748,5.29992,6.09998,0,0,3.38332,5
1774389464354,-0.021165,1.31688,-0.280225,-46.071,7.65525,1.89815,0,0,3.28629,5
1774389464368,-0.0459494,1.28859,-0.261244,-31.1584,11.7963,1.72959,0,0,3.27805,5
1774389464381,-0.0340317,1.26834,-0.24385,-19.3886,14.5301,1.40906,0,0,3.33088,5
1774389464394,-0.0376043,1.27005,-0.233741,-9.16823,15.609,1.75178,0,0,3.29268,5
1774389464408,-0.0255178,1.28185,-0.225196,1.21959,14.8649,2.66447,0,0,3.6589,5
1774389464422,-0.0207396,1.26178,-0.219735,10.036,13.5387,4.0445,0,0,3.2819,5
1774389464435,-0.0203878,1.23065,-0.214236,15.3864,13.0524,5.18954,0,0,3.27671,5
1774389464448,-0.0169231,1.21721,-0.209672,18.8976,13.3145,5.49919,0,0,3.28297,5
1774389464462,-0.011357,1.20396,-0.203674,21.5796,13.8073,5.48575,0,0,3.29745,5
1774389464476,-0.00191314,1.19129,-0.198322,23.4353,13.7406,5.30607,0,0,3.32256,5
1774389464489,0.0009999,1.18194,-0.193396,24.8008,13.5081,5.20455,0,0,3.28475,5
1774389464502,0.00316629,1.17178,-0.188579,25.736,13.4697,5.0021,0,0,3.30797,5
1774389464516,0.00541944,1.16218,-0.183781,26.218,13.4768,4.80973,0,0,3.27705,5
1774389464530,0.00805452,1.1559,-0.178274,26.5085,13.2792,4.76388,0,0,3.74329,5
1774389464543,0.010521,1.14725,-0.175282,26.6144,12.9886,4.81823,0,0,3.35684,5
1774389464557,0.0131678,1.13705,-0.171482,26.2549,12.7217,4.80659,0,0,3.28455,5
1774389464571,0.0165851,1.13177,-0.167196,25.7534,12.3699,4.70996,0,0,4.45525,5
1774389464585,0.0197355,1.12579,-0.162938,25.2684,12.0229,4.4933,0,0,3.28625,5
1774389464598,0.0200042,1.12107,-0.157574,24.7403,11.8306,4.12351,0,0,3.32519,5
1774389464612,0.0232186,1.11762,-0.154398,24.4012,11.617,3.55137,0,0,3.32436,5
1774389464625,0.0253849,1.11388,-0.149931,24.1903,11.4694,2.79724,0,0,3.32353,5
1774389464639,0.0300723,1.10974,-0.149481,24.1758,11.2825,1.6919,0,0,3.29749,5
1774389464652,0.0314264,1.10322,-0.14934,24.0409,11.0658,0.57235,0,0,3.6159,5
1774389464666,0.0349634,1.09854,-0.137406,23.7419,10.7962,-0.667668,0,0,3.28262,5
1774389464679,0.0367656,1.09186,-0.135251,23.4532,10.2669,-1.45319,0,0,3.26899,5
1774389464693,0.038553,1.08721,-0.135081,22.9927,10.0386,-2.40618,0,0,3.31953,5
1774389464706,0.0370378,1.08132,-0.136273,22.4335,9.71962,-2.90664,0,0,3.29666,5
1774389464720,0.036774,1.08031,-0.135492,21.9104,9.60347,-3.44325,0,0,3.33125,5
1774389464733,0.0327314,1.08444,-0.135065,22.0939,9.57946,-3.80975,0,0,3.29369,5
1774389464747,0.0287162,1.09041,-0.133621,23.2375,9.80858,-3.65943,0,0,3.95762,5
1774389464761,0.0294783,1.08929,-0.135369,24.8423,10.0767,-3.26404,0,0,3.28381,5
1774389464774,0.0285308,1.07958,-0.139101,25.979,10.0642,-2.96663,0,0,3.26942,5
1774389464788,0.0309986,1.07354,-0.144623,26.4062,9.96985,-2.73086,0,0,3.28416,5
1774389464801,0.0305505,1.06867,-0.14605,26.5388,9.77928,-2.43937,0,0,3.27651,5
1774389464814,0.0308801,1.06708,-0.148439,26.6516,9.46282,-2.20877,0,0,3.29568,5
1774389464828,0.0297325,1.06723,-0.149251,26.9534,9.12813,-1.91831,0,0,3.28808,5
1774389464841,0.0304394,1.06999,-0.151436,27.677,8.73986,-1.62188,0,0,3.31306,5
1774389464855,0.0322793,1.06861,-0.152607,28.4021,8.27488,-1.59385,0,0,3.31364,5
1774389464868,0.0293835,1.06698,-0.154785,28.8257,7.89551,-1.75836,0,0,3.28177,5
1774389464882,0.029305,1.0689,-0.156845,29.3459,7.56567,-1.9723,0,0,3.27521,5
1774389464895,0.0282049,1.0713,-0.159787,29.9987,7.29801,-2.19352,0,0,3.30943,5
1774389464910,0.0281993,1.07765,-0.162302,30.6865,7.00169,-1.91847,0,0,4.93823,5
1774389464923,0.0258557,1.08221,-0.165027,31.6533,6.70614,-0.889831,0,0,3.26784,5
1774389464937,0.0262624,1.0886,-0.166661,32.8152,6.43274,0.122645,0,0,3.30477,5
1774389464950,0.0251139,1.09285,-0.16959,34.3148,6.14085,1.17553,0,0,3.27925,5
1774389464964,0.0261296,1.0954,-0.173278,35.9067,5.87947,2.19847,0,0,3.94201,5
1774389464981,0.027827,1.09824,-0.176515,37.721,5.56038,3.17859,0,0,7.13446,5
1774389464995,0.0313612,1.10178,-0.179558,39.7564,5.1226,4.02323,0,0,3.32019,5
1774389465008,0.0340363,1.10436,-0.182852,41.8956,4.649,4.69717,0,0,3.26894,5
1774389465022,0.0388151,1.10889,-0.185949,44.2513,4.05809,5.22884,0,0,3.25375,5
1774389465035,0.0426376,1.11221,-0.189124,46.9121,3.37188,5.67374,0,0,3.29592,5
1774389465048,0.0457057,1.11514,-0.192854,49.8172,2.57814,6.04743,0,0,3.29432,5
1774389465062,0.046344,1.11805,-0.197318,52.939,1.71845,6.4751,0,0,3.30664,5
1774389465079,0.0501896,1.12174,-0.200935,56.4874,0.629527,6.9263,0,0,3.29455,5
1774389465093,0.05218,1.12991,-0.203828,60.3613,-0.555894,7.45796,0,0,3.33323,5
1774389465106,0.0589841,1.14335,-0.204491,64.8057,-1.96085,8.04844,0,0,3.28764,5
1774389465119,0.0695264,1.16275,-0.202574,70.1355,-3.81709,8.60322,0,0,3.30529,5
1774389465133,0.0761057,1.19032,-0.197665,76.4805,-6.08347,8.9312,0,0,3.27195,5
1774389465146,0.0870311,1.22572,-0.188455,84.4101,-8.74253,9.09777,0,0,3.27575,5
1774389465160,0.110077,1.26111,-0.182146,93.7057,-11.8857,8.70949,0,0,3.30984,5
1774389465173,0.119613,1.28704,-0.181173,102.48,-15.3707,8.31943,0,0,3.26923,5
1774389465186,0.1205,1.31175,-0.195939,110.762,-18.6178,8.11568,0,0,3.28932,5
1774389465200,0.11949,1.33517,-0.217137,118.579,-21.333,7.88354,0,0,3.31844,5
1774389465213,0.122219,1.34398,-0.226742,125.958,-23.8479,7.08594,0,0,3.29062,3
1774389465227,0.123099,1.35015,-0.225154,132.923,-26.375,7.01817,0,0,3.27821,3
1774389465241,0.135877,1.36199,-0.229475,139.498,-28.7792,6.34233,0,0,3.9639,3
1774389465254,0.153221,1.33436,-0.225184,145.703,-31.541,5.58622,0,0,3.32929,3
1774389465268,0.158788,1.23523,-0.204958,149.997,-34.8094,5.86163,0,0,3.33625,3
1774389465281,0.16787,1.06236,-0.167029,146.718,-37.5601,10.4373,0,0,3.28919,3
1774389465295,0.136334,0.975367,-0.163055,131.707,-39.7034,12.9575,0,0,3.27568,3
1774389465308,0.110065,0.957706,-0.129478,116.716,-39.482,10.5273,0,0,3.31536,3
1774389465321,0.0742669,0.945163,-0.104768,101.486,-36.7552,7.86012,0,0,3.27412,3
1774389465335,0.0567547,0.94013,-0.0804871,88.3424,-32.7226,7.18715,0,0,3.34801,3
1774389465348,0.0472793,0.911497,-0.0602792,74.7235,-28.2448,7.83478,0,0,3.28384,2
1774389465362,0.0427453,0.887341,-0.0424925,61.0594,-23.2405,7.9224,0,0,3.30334,2
1774389465375,0.0411429,0.854888,-0.0260389,46.4103,-18.0704,6.65333,0,0,3.29445,2
1774389465389,0.0438279,0.8312,-0.0114366,30.9131,-13.2352,4.92192,0,0,3.29803,2
1774389465402,0.0486697,0.811708,0.00306093,15.1483,-8.89262,3.97401,0,0,3.31273,2
1774389465415,0.0570046,0.804632,0.0166148,0.267779,-5.20468,3.9866,0,0,3.29355,2
1774389465429,0.0644945,0.80567,0.0279424,-13.7781,-2.34876,4.89425,0,0,3.28019,2
1774389465442,0.0703757,0.815397,0.035689,-27.036,-0.0516736,6.20358,0,0,3.2766,2
1774389465456,0.0710882,0.829385,0.0394133,-39.5503,1.53166,7.75205,0,0,3.63799,2
1774389465469,0.0672427,0.846754,0.039793,-51.3627,2.99407,9.51124,0,0,3.28743,2
1774389465483,0.0622627,0.867069,0.03864,-62.5124,4.392,11.1362,0,0,3.26651,2
1774389465496,0.0560271,0.890318,0.0362882,-73.0367,5.76676,12.4658,0,0,3.26053,5
1774389465509,0.0543456,0.922084,0.0328755,-82.9707,6.94022,13.3573,0,0,3.24962,5
1774389465523,0.0594428,0.96048,0.0277969,-92.3475,7.57858,13.9491,0,0,3.31677,5
1774389465536,0.0723247,1.00362,0.0203994,-101.198,7.35815,14.557,0,0,3.26464,5
1774389465550,0.0910067,1.04771,0.00982333,-109.553,6.12415,15.3226,0,0,3.30825,5
1774389465563,0.112363,1.08778,-0.00569271,-117.438,3.90903,15.9245,0,0,3.29556,5
1774389465576,0.131963,1.11862,-0.0258259,-124.882,0.984055,16.0277,0,0,3.26036,5
1774389465590,0.145485,1.15225,-0.0477266,-131.908,-2.18663,15.9345,0,0,3.35458,5
1774389465603,0.147227,1.19856,-0.0738797,-138.54,-5.03345,16.9465,0,0,3.31892,5
1774389465617,0.139475,1.24889,-0.10868,-144.799,-6.96141,19.4232,0,0,3.31186,5
1774389465630,0.124609,1.28352,-0.152667,-148.908,-7.444,22.5946,0,0,3.28431,5
1774389465644,0.104319,1.29564,-0.200923,-151.942,-6.24757,25.481,0,0,3.90504,5
1774389465658,0.0852684,1.30821,-0.252204,-153.894,-3.71766,28.4265,0,0,3.87484,5
1774389465672,0.0791691,1.33052,-0.308397,-153.553,-0.791432,30.5791,0,0,3.27153,5
1774389465685,0.0774792,1.35087,-0.372915,-150.278,1.98351,31.1606,0,0,3.28312,3
1774389465698,0.0706529,1.36131,-0.442267,-144.426,4.44907,30.7264,0,0,3.24912,3
1774389465712,0.0592457,1.36998,-0.510188,-136.571,6.82087,29.4709,0,0,3.28144,3
1774389465725,0.038141,1.38287,-0.571391,-126.561,9.72974,26.4669,0,0,3.25305,3
1774389465741,0.0191445,1.42138,-0.371477,-120.786,13.7861,19.9074,0,0,5.64843,5
1774389465756,0.0668871,1.39095,-0.238042,-99.9806,13.6393,13.2492,0,0,4.58871,5
1774389465771,0.074532,1.33286,-0.162887,-82.4667,14.6503,6.20009,0,0,5.57115,5
1774389465785,0.0531646,1.34899,-0.171096,-63.8106,14.4306,0.538518,0,0,3.25775,5
1774389465798,0.035294,1.32469,-0.156172,-46.3148,15.8785,-0.584849,0,0,3.27432,5
1774389465811,0.0363557,1.31323,-0.146865,-32.5853,16.5109,-1.20802,0,0,3.27956,5
1774389465825,0.0354491,1.32321,-0.144222,-19.9561,15.8224,0.6153,0,0,3.28988,5
1774389465838,0.0339735,1.2823,-0.152766,-10.8999,14.4228,2.55772,0,0,3.33723,5
1774389465852,0.0296477,1.25101,-0.156186,-6.33845,13.8283,3.98441,0,0,3.25008,5
1774389465866,0.0326433,1.24747,-0.15432,-2.47735,13.8949,4.91745,0,0,3.31906,5
1774389465879,0.0396184,1.22731,-0.152034,0.650781,13.7715,5.44019,0,0,3.24175,5
1774389465895,0.0435445,1.20991,-0.149741,2.37369,13.4931,5.61674,0,0,5.59685,5
1774389465909,0.048356,1.20032,-0.148531,3.78544,13.3092,5.1758,0,0,3.27829,5
1774389465922,0.0507255,1.18645,-0.147278,4.64143,13.2165,4.51081,0,0,3.30592,5
1774389465936,0.0558529,1.17886,-0.147681,5.21819,12.9085,3.69002,0,0,3.28432,5
1774389465949,0.0582576,1.16965,-0.146636,5.78957,12.7021,2.84889,0,0,3.25651,5
1774389465963,0.0586994,1.15992,-0.14412,6.03773,12.6674,2.14101,0,0,3.43699,5
1774389465976,0.0586521,1.15477,-0.141981,6.26512,12.4925,1.55419,0,0,3.25481,5
1774389465989,0.0603685,1.14658,-0.139819,6.40311,12.294,0.993012,0,0,3.30912,5
1774389466003,0.0622341,1.14066,-0.135583,6.39206,12.1619,0.330999,0,0,3.25412,5
1774389466017,0.0631639,1.13608,-0.132227,6.54905,12.1276,-0.498552,0,0,3.98027,5
1774389466030,0.0647044,1.13178,-0.129017,6.83683,12.1842,-1.50038,0,0,3.26462,5
1774389466044,0.0659212,1.12987,-0.12802,7.43431,12.1456,-2.46399,0,0,3.29025,5
1774389466057,0.0670528,1.12663,-0.131475,8.26332,11.9692,-3.5277,0,0,3.27403,5
1774389466071,0.0678467,1.11952,-0.129985,9.01458,11.8887,-4.55229,0,0,3.28727,5
1774389466084,0.0668868,1.11314,-0.130013,9.63848,11.6676,-5.54853,0,0,3.27388,5
1774389466100,0.0643034,1.1069,-0.131886,10.1439,11.4781,-6.21699,0,0,5.83045,5
1774389466114,0.0621852,1.10373,-0.130122,10.5841,11.1649,-6.41891,0,0,3.36808,5
1774389466127,0.0575439,1.0988,-0.131553,10.9881,10.8255,-6.21686,0,0,3.28199,5
1774389466141,0.0537781,1.09378,-0.131704,11.1155,10.4901,-5.78893,0,0,4.0204,5
1774389466155,0.0515437,1.09189,-0.130803,11.2966,10.1342,-5.24712,0,0,3.29879,5
1774389466168,0.051521,1.09194,-0.130923,11.7518,9.78929,-4.6839,0,0,3.27636,5
1774389466183,0.0502715,1.08978,-0.131197,12.4791,9.50224,-4.18267,0,0,4.87336,5
1774389466197,0.048073,1.09056,-0.13146,13.4777,9.2831,-3.79005,0,0,3.25677,5
1774389466210,0.0513625,1.09064,-0.130804,14.8537,9.01159,-3.45885,0,0,3.26127,5
1774389466223,0.0510168,1.09132,-0.131255,16.5686,8.7703,-3.18519,0,0,3.27834,5
1774389466237,0.0507716,1.08682,-0.133127,18.1107,8.513,-2.99968,0,0,3.83558,5
1774389466251,0.0487541,1.08056,-0.13589,19.321,8.30909,-2.85582,0,0,3.2786,5
1774389466264,0.0461735,1.07707,-0.138285,20.1478,8.22582,-2.72389,0,0,3.44293,5
1774389466278,0.0441756,1.07888,-0.140171,21.0717,8.16691,-2.34716,0,0,3.7754,5
1774389466292,0.0455215,1.07988,-0.141504,22.1754,8.10745,-1.90721,0,0,3.25786,5
1774389466305,0.045538,1.08286,-0.143782,23.4077,7.91387,-1.26714,0,0,3.29703,5
1774389466318,0.0460128,1.08254,-0.14578,24.5534,7.69519,-0.227504,0,0,3.2596,5
1774389466332,0.045474,1.08416,-0.147711,25.7144,7.44467,0.853583,0,0,3.32799,5
1774389466345,0.0438376,1.08641,-0.151095,26.9409,7.25787,1.99135,0,0,3.27899,5
1774389466359,0.0424864,1.08825,-0.15462,28.2528,7.08712,3.20532,0,0,3.28653,5
1774389466372,0.0412049,1.08982,-0.158311,29.7441,7.00859,4.47836,0,0,3.28401,5
1774389466385,0.0432786,1.09139,-0.161125,31.4416,6.85696,5.74336,0,0,3.25842,5
1774389466399,0.0451869,1.08927,-0.164584,33.0735,6.65388,6.91986,0,0,3.30199,5
1774389466412,0.049382,1.08857,-0.169206,34.649,6.374,7.96356,0,0,3.25369,5
1774389466426,0.0524968,1.08728,-0.173316,36.1733,6.03873,8.85623,0,0,3.31692,5
1774389466439,0.0558811,1.0873,-0.178025,37.8005,5.64048,9.6573,0,0,3.28875,5
1774389466453,0.0586903,1.08814,-0.182999,39.5031,5.21448,10.3162,0,0,3.31894,5
1774389466466,0.0621347,1.08924,-0.188577,41.4128,4.71646,10.8449,0,0,3.27929,5
1774389466479,0.0662399,1.08969,-0.193804,43.4206,4.09308,11.319,0,0,3.2776,5
1774389466493,0.0672081,1.09025,-0.19876,45.5148,3.4413,11.8505,0,0,3.28944,5
1774389466506,0.0697782,1.09322,-0.204022,47.8384,2.72888,12.3817,0,0,3.26051,5
1774389466520,0.0740937,1.09465,-0.210005,50.4221,1.88771,12.9683,0,0,3.29179,5
1774389466533,0.0736187,1.09872,-0.215224,53.1495,0.943437,13.6201,0,0,3.2726,5
1774389466546,0.0749155,1.10504,-0.220076,56.2438,-0.0604849,14.4352,0,0,3.2739,5
1774389466560,0.083939,1.1129,-0.223702,59.7554,-1.24146,15.2612,0,0,3.28492,5
1774389466573,0.0896638,1.1239,-0.226496,63.8283,-2.67004,16.1222,0,0,3.27951,5
1774389466587,0.0978822,1.13671,-0.228442,68.685,-4.34606,16.9987,0,0,3.27773,5
1774389466600,0.104385,1.15517,-0.227965,73.9882,-6.45388,18.0983,0,0,3.25675,5
1774389466615,0.115312,1.18762,-0.223921,80.6146,-8.91961,19.3059,0,0,4.46556,5
1774389466628,0.1188,1.22175,-0.223065,88.8296,-11.7416,20.2885,0,0,3.31064,5
1774389466642,0.100825,1.25394,-0.229581,97.694,-13.7471,21.2118,0,0,3.33816,5
1774389466655,0.0793963,1.30124,-0.244696,106.245,-14.6267,22.0023,0,0,3.29408,5
1774389466669,0.0721659,1.33585,-0.260196,114.315,-14.4935,21.6113,0,0,4.0738,5
1774389466683,0.0812563,1.33604,-0.265814,121.934,-13.9777,20.8302,0,0,3.28112,5
1774389466696,0.10243,1.34501,-0.268571,129.124,-14.3425,20.3533,0,0,3.27601,1
1774389466709,0.114457,1.34157,-0.278554,135.912,-14.7026,20.3755,0,0,3.29799,1
1774389466723,0.13687,1.31778,-0.28039,142.319,-15.4524,21.2861,0,0,3.29486,1
1774389466736,0.157523,1.27954,-0.271449,148.366,-16.9162,22.6112,0,0,3.30175,1
1774389466750,0.170205,1.1186,-0.163603,149.936,-20.5275,23.062,0,0,3.28399,1
1774389466763,0.190479,0.907658,-0.177087,135.274,-27.274,23.4478,0,0,3.32199,1
1774389466777,0.174461,0.896514,-0.13318,115.378,-32.5621,22.7226,0,0,3.28064,3
1774389466791,0.146546,0.87566,-0.101432,97.5535,-36.4421,18.3398,0,0,3.7044,3
1774389466804,0.113893,0.887483,-0.0767954,80.8078,-37.9904,12.9671,0,0,3.29366,3
1774389466818,0.0870245,0.866811,-0.057902,65.6235,-37.8137,7.85599,0,0,3.31462,3
1774389466831,0.0686554,0.855563,-0.038874,50.2693,-36.2583,3.84211,0,0,3.30323,3
1774389466845,0.0544209,0.839886,-0.0239453,35.6398,-33.7179,1.26858,0,0,3.28116,3
1774389466858,0.0438944,0.820623,-0.01094,20.6076,-30.2779,-0.314933,0,0,3.3056,3
1774389466871,0.0367325,0.801775,0.000151265,5.42081,-26.2883,-1.4812,0,0,3.28218,2
1774389466885,0.0346349,0.791482,0.0117504,-8.91406,-21.8982,-2.33199,0,0,3.87162,2
1774389466899,0.0417579,0.788184,0.0236645,-22.4449,-18.2369,-2.82291,0,0,3.28077,2
1774389466912,0.0544736,0.796529,0.0343741,-35.2167,-15.5873,-2.96259,0,0,3.27162,2
1774389466926,0.0664411,0.816307,0.0395226,-47.2721,-13.9953,-2.46285,0,0,3.29647,2
1774389466939,0.072771,0.840259,0.0390967,-58.6513,-13.2672,-1.11379,0,0,3.28886,2
1774389466953,0.0726207,0.868321,0.0333831,-69.3922,-12.9761,0.874237,0,0,3.29029,2
1774389466966,0.0675444,0.897719,0.0252074,-79.5307,-12.7697,2.60988,0,0,3.27964,2
1774389466980,0.0587289,0.924634,0.0173359,-89.1004,-12.4058,3.5605,0,0,3.3236,2
1774389466993,0.0526798,0.954377,0.0104492,-98.1334,-11.8842,3.79368,0,0,3.28064,2
1774389467007,0.0543158,0.991606,0.00248636,-106.66,-11.5632,3.57446,0,0,3.64047,5
1774389467020,0.0635355,1.03066,-0.00948439,-114.708,-11.7474,3.28147,0,0,3.27795,5
1774389467034,0.0775837,1.07117,-0.0249034,-122.304,-12.564,3.15821,0,0,3.27392,5
1774389467047,0.0920959,1.11181,-0.0445595,-129.475,-13.9239,3.41609,0,0,3.3054,3
1774389467061,0.101265,1.15013,-0.0679258,-136.243,-15.4937,4.38743,0,0,3.27253,5
1774389467074,0.101395,1.18622,-0.0909427,-142.632,-16.7835,6.20347,0,0,3.3269,5
1774389467088,0.0926584,1.22118,-0.115793,-147.786,-17.3651,8.73463,0,0,3.28184,5
1774389467102,0.0792319,1.24234,-0.144105,-151.867,-16.8428,11.4479,0,0,3.88895,3
1774389467115,0.0686774,1.25867,-0.1745,-155.221,-15.278,13.6404,0,0,3.27731,3
1774389467128,0.0683539,1.27497,-0.207227,-157.291,-13.2444,15.1489,0,0,3.31051,3
1774389467142,0.0767461,1.29752,-0.242687,-157.527,-11.5509,17.076,0,0,3.36016,3
1774389467155,0.0877289,1.3186,-0.281444,-155.207,-10.6906,19.7119,0,0,3.31231,3
1774389467169,0.0900742,1.32669,-0.322477,-151.02,-10.3877,22.009,0,0,3.30642,3
1774389467182,0.0795047,1.32404,-0.363008,-145.69,-9.93348,23.0156,0,0,3.29494,3
1774389467196,0.0676784,1.32027,-0.400314,-139.632,-8.92669,22.4795,0,0,3.33018,3
1774389467209,0.0611099,1.32489,-0.434655,-132.379,-7.60514,21.1055,0,0,3.27847,3
1774389467223,0.0561419,1.32575,-0.465048,-123.896,-6.12307,19.7016,0,0,3.64021,3
1774389467236,0.0483695,1.32522,-0.490012,-114.664,-4.27967,18.0133,0,0,3.27503,3
1774389467250,0.0400723,1.3296,-0.508781,-104.615,-1.9308,15.3878,0,0,3.30631,5
1774389467263,0.0306111,1.33656,-0.520718,-93.6402,1.05834,12.033,0,0,3.30384,5
1774389467277,0.0416149,1.38588,-0.379561,-74.3573,1.28629,5.53686,0,0,3.30994,5
1774389467290,0.0638073,1.29055,-0.295035,-60.9924,1.7605,-0.555518,0,0,3.33388,5
1774389467305,0.0529558,1.32331,-0.285613,-45.2878,3.0281,-7.15911,0,0,4.08656,5
1774389467318,0.0194847,1.29837,-0.28239,-29.2237,5.5237,-8.60302,0,0,3.68917,5
1774389467332,0.00805183,1.26597,-0.26356,-17.7679,8.12125,-8.23392,0,0,3.28123,5
1774389467345,-0.00321208,1.27316,-0.249311,-7.61489,9.07102,-6.38945,0,0,3.27803,5
1774389467359,0.0184317,1.2706,-0.243554,2.08933,9.18222,-4.35256,0,0,3.28869,5
1774389467372,0.0253877,1.24666,-0.237451,9.27443,8.19744,-1.80563,0,0,3.27149,5
1774389467386,0.0309718,1.22577,-0.233356,13.8436,7.41007,0.091469,0,0,3.33114,5
1774389467399,0.0312082,1.21256,-0.2285,17.0334,7.33525,1.03049,0,0,3.31462,5
1774389467413,0.0356516,1.19793,-0.221304,19.321,7.75834,1.35206,0,0,3.36751,5
1774389467427,0.0405734,1.18544,-0.214669,20.7764,7.88493,1.49074,0,0,3.31227,5
1774389467441,0.043657,1.1772,-0.208484,21.8603,7.70556,1.58054,0,0,4.05958,5
1774389467454,0.0417691,1.16693,-0.202388,22.5545,7.79529,1.55654,0,0,3.32884,5
1774389467468,0.041576,1.15757,-0.197359,22.8133,8.07268,1.34719,0,0,3.31412,5
1774389467481,0.0432064,1.15141,-0.192294,22.9933,8.33622,1.09735,0,0,3.53532,5
1774389467495,0.0437298,1.14377,-0.191401,23.1059,8.44367,0.964723,0,0,3.36308,5
1774389467508,0.0451486,1.13352,-0.190836,22.7244,8.42136,0.776158,0,0,3.35616,5
1774389467522,0.0441778,1.12688,-0.188576,22.0912,8.41999,0.583185,0,0,3.30114,5
1774389467536,0.0467941,1.11966,-0.184717,21.3055,8.34376,0.386477,0,0,3.80256,5
1774389467549,0.0478547,1.11427,-0.181636,20.4739,8.30521,0.115594,0,0,3.30203,5
1774389467563,0.0479293,1.10806,-0.177504,19.6094,8.18062,-0.286534,0,0,3.32132,5
1774389467576,0.0500719,1.10383,-0.172336,18.7749,7.97138,-0.749602,0,0,3.31823,5
1774389467590,0.0445189,1.10012,-0.167917,18.0828,7.96057,-1.03683,0,0,3.33827,5
1774389467603,0.0447074,1.09839,-0.164513,17.5583,7.92338,-1.37089,0,0,3.34079,5
1774389467617,0.0440121,1.09528,-0.162048,17.2619,7.89129,-1.59458,0,0,3.37131,5
1774389467631,0.0426959,1.09015,-0.159296,16.8781,7.77278,-1.75306,0,0,3.36247,5
1774389467644,0.0437435,1.08679,-0.156312,16.4949,7.61126,-1.89108,0,0,3.30938,5
1774389467658,0.0438805,1.08196,-0.154473,16.1028,7.40013,-1.97255,0,0,3.87823,5
1774389467672,0.0437765,1.07806,-0.151914,15.5558,7.20341,-1.96981,0,0,3.31501,5
1774389467685,0.0427269,1.07725,-0.150278,15.2403,6.97962,-1.8666,0,0,3.47649,5
1774389467699,0.0418193,1.07507,-0.148777,15.0589,6.77138,-1.68996,0,0,3.33484,5
1774389467712,0.0418161,1.07321,-0.146146,14.9927,6.54314,-1.46114,0,0,3.29753,5
1774389467726,0.0428595,1.0723,-0.144731,15.1216,6.28744,-1.2032,0,0,3.33286,5
1774389467739,0.0433554,1.06905,-0.143515,15.2385,5.94461,-0.938317,0,0,3.32043,5
1774389467753,0.0427086,1.06575,-0.143133,15.2696,5.56963,-0.708415,0,0,3.86482,5
1774389467767,0.0439264,1.06518,-0.142244,15.3504,5.18614,-0.456726,0,0,3.28966,5
1774389467780,0.0431372,1.06337,-0.141906,15.5106,4.85028,-0.229003,0,0,3.33305,5
1774389467794,0.0424892,1.06442,-0.142063,15.8905,4.58121,-0.12838,0,0,3.30749,5
1774389467807,0.0419656,1.06417,-0.141947,16.4113,4.39104,-0.00214279,0,0,3.30821,5
1774389467821,0.0408991,1.06261,-0.142551,16.9342,4.2445,0.262597,0,0,3.44323,5
1774389467835,0.0409683,1.06269,-0.142883,17.512,4.12417,0.477375,0,0,3.31418,5
1774389467848,0.0415149,1.06304,-0.142881,18.0901,3.99902,0.906616,0,0,3.31331,5
1774389467862,0.0411727,1.06424,-0.143562,18.9003,3.8278,1.45265,0,0,3.30886,5
1774389467876,0.0415182,1.06348,-0.14449,19.6638,3.67475,2.19543,0,0,3.96425,5
1774389467889,0.0422009,1.06289,-0.145656,20.4063,3.50202,2.9308,0,0,3.43512,5
1774389467903,0.0422451,1.06182,-0.147133,21.1302,3.34155,3.6733,0,0,3.33368,5
1774389467916,0.0426932,1.06161,-0.148749,21.8795,3.17296,4.37672,0,0,3.29038,5
1774389467930,0.0447659,1.06221,-0.150177,22.7208,2.974,5.08394,0,0,3.2991,5
1774389467943,0.0460433,1.06343,-0.151532,23.7166,2.74895,5.77803,0,0,3.3177,5
1774389467957,0.0473395,1.06455,-0.153873,24.7781,2.53181,6.45973,0,0,3.33032,5
1774389467971,0.0477569,1.06656,-0.156582,25.9214,2.32471,7.19184,0,0,3.82529,5
1774389467984,0.0477077,1.06679,-0.159451,27.1984,2.13394,7.96466,0,0,3.32255,5
1774389467998,0.0467104,1.06761,-0.162919,28.5343,1.97741,8.78405,0,0,3.29753,5
1774389468011,0.0477425,1.06994,-0.166642,30.0326,1.83909,9.62299,0,0,3.33775,5
1774389468025,0.049477,1.07213,-0.170373,31.6994,1.70168,10.378,0,0,3.33358,5
1774389468038,0.0518722,1.07358,-0.173535,33.4774,1.52187,11.0779,0,0,3.29966,5
1774389468052,0.0548354,1.07589,-0.177029,35.3898,1.28579,11.7158,0,0,3.32781,5
1774389468065,0.0588648,1.07999,-0.18006,37.4747,0.996146,12.222,0,0,3.31803,5
1774389468078,0.0613941,1.08416,-0.184101,39.7774,0.654669,12.6686,0,0,3.31605,5
1774389468093,0.0637166,1.08961,-0.187623,42.3423,0.229582,13.1843,0,0,4.20977,5
1774389468106,0.0669839,1.09597,-0.191013,45.2519,-0.245737,13.7717,0,0,3.32208,5
1774389468120,0.0716565,1.10354,-0.193272,48.4483,-0.883224,14.5621,0,0,3.30153,5
1774389468133,0.0765411,1.11303,-0.195657,51.9595,-1.6999,15.455,0,0,3.30416,5
1774389468147,0.0799095,1.12818,-0.196261,55.8416,-2.69086,16.5672,0,0,3.2994,5
1774389468160,0.0902094,1.15253,-0.192664,60.7648,-4.0694,17.8414,0,0,3.36156,5
1774389468174,0.104896,1.18132,-0.185541,66.6685,-5.96323,19.2341,0,0,3.32488,5
1774389468188,0.113024,1.21776,-0.177149,74.3178,-8.12079,20.3146,0,0,3.89579,5
1774389468201,0.11578,1.25298,-0.172595,83.2363,-10.5722,21.2582,0,0,3.30456,5
1774389468215,0.107641,1.2827,-0.176556,92.5977,-12.4447,21.5028,0,0,3.28371,5
1774389468228,0.0997628,1.3141,-0.191556,101.434,-13.4667,21.6681,0,0,3.33188,5
1774389468242,0.0957095,1.3396,-0.211408,109.775,-13.7565,21.1181,0,0,3.28907,5
1774389468255,0.0994889,1.33836,-0.218765,117.648,-13.917,20.9205,0,0,3.34923,5
1774389468269,0.104416,1.34823,-0.223975,125.079,-14.1156,20.6175,0,0,3.30807,5
1774389468282,0.121727,1.34915,-0.226533,132.093,-14.4277,20.0327,0,0,3.74625,5
1774389468296,0.133892,1.3095,-0.220085,138.136,-15.1659,20.027,0,0,3.78603,5
1774389468310,0.169249,1.18907,-0.130021,142.439,-17.8615,19.2209,0,0,3.30318,4
1774389468323,0.204651,0.982222,-0.123812,129.523,-24.5558,18.7375,0,0,3.31645,4
1774389468337,0.202503,1.012,-0.0803766,115.338,-31.3606,18.8687,0,0,3.43175,4
1774389468350,0.188009,0.984333,-0.0486745,104.227,-37.3119,16.1669,0,0,3.31282,4
1774389468364,0.157611,0.969953,-0.0265374,92.4899,-41.2345,11.838,0,0,3.30282,3
1774389468377,0.124197,0.93709,-0.0117958,81.5792,-42.8382,7.04415,0,0,3.35044,3
1774389468391,0.0914649,0.888902,-0.00100878,68.4378,-42.0149,2.65491,0,0,3.31671,3
1774389468405,0.0654491,0.858089,0.0115914,53.9187,-39.0313,-1.31472,0,0,3.7896,3
1774389468418,0.0486642,0.841575,0.0234269,39.0061,-34.5563,-4.7962,0,0,3.30029,3
1774389468432,0.0391476,0.829188,0.033848,24.1708,-29.35,-7.29197,0,0,3.28805,3
1774389468445,0.0386207,0.820419,0.0435785,9.45728,-23.8548,-8.43255,0,0,3.31423,2
1774389468459,0.046242,0.813773,0.050289,-5.10401,-18.6043,-8.32008,0,0,3.28197,2
1774389468472,0.0589965,0.81517,0.0544531,-18.8485,-14.0377,-7.46503,0,0,3.30058,2
1774389468485,0.0766705,0.820071,0.0552428,-31.8221,-10.5253,-6.65322,0,0,3.29894,2
1774389468500,0.0919593,0.83141,0.051567,-44.0679,-8.19174,-6.07364,0,0,4.11751,2
1774389468513,0.100302,0.848712,0.04597,-55.6268,-6.66863,-5.35529,0,0,3.31203,2
1774389468527,0.104713,0.871643,0.0403615,-66.5374,-5.65486,-4.45758,0,0,3.30801,2
1774389468540,0.107234,0.894841,0.0335248,-76.836,-4.97414,-3.40341,0,0,3.32368,2
1774389468554,0.112377,0.92058,0.0258982,-86.5569,-4.58337,-2.59292,0,0,3.30268,2
1774389468567,0.120062,0.949817,0.0188399,-95.7325,-4.60931,-2.25779,0,0,3.30286,2
1774389468581,0.133496,0.988366,0.0101151,-104.393,-5.36171,-2.08661,0,0,3.29829,2
1774389468594,0.148403,1.0286,-0.00140989,-112.569,-6.94926,-1.50841,0,0,3.33547,2
1774389468608,0.161515,1.06473,-0.0149826,-120.285,-9.12344,-0.710445,0,0,3.3186,3
1774389468622,0.168513,1.09458,-0.0283675,-127.569,-11.3821,0.196054,0,0,3.8111,3
1774389468635,0.170123,1.13446,-0.0442633,-134.444,-13.3239,1.29834,0,0,3.31697,3
1774389468649,0.166399,1.17854,-0.0670125,-140.612,-14.684,3.4949,0,0,3.30218,3
1774389468662,0.154477,1.21329,-0.0973404,-145.257,-15.1192,7.14269,0,0,3.31494,3
1774389468676,0.132507,1.23898,-0.133026,-148.747,-14.1757,11.6092,0,0,3.3582,3
1774389468690,0.11201,1.25769,-0.171741,-150.835,-11.6673,15.3315,0,0,3.35316,3
1774389468704,0.10015,1.27064,-0.211476,-151.753,-8.22669,17.7934,0,0,3.30047,3
1774389468718,0.0985998,1.29095,-0.252046,-150.921,-4.81931,20.0059,0,0,3.83025,3
1774389468731,0.101794,1.31103,-0.296767,-147.623,-2.05009,22.0262,0,0,3.29221,3
1774389468745,0.0991784,1.32292,-0.343729,-142.177,0.28077,23.2664,0,0,3.3221,3
1774389468758,0.0901539,1.33013,-0.390804,-135.009,2.58408,23.0293,0,0,3.30358,3
1774389468772,0.07862,1.33456,-0.434999,-126.34,5.1457,21.3834,0,0,3.32423,3
1774389468785,0.0681564,1.33917,-0.473801,-116.712,7.97683,19.1632,0,0,3.3187,3
1774389468799,0.0579368,1.34432,-0.506006,-106.063,11.1377,17.2182,0,0,3.32951,5
1774389468812,0.0770558,1.39435,-0.431176,-86.1139,13.7295,13.1326,0,0,3.31923,5
1774389468826,0.0865729,1.31146,-0.356885,-71.4897,15.0442,9.64486,0,0,3.31784,5
1774389468840,0.0857871,1.32692,-0.33043,-55.9464,17.5475,6.39215,0,0,3.8829,5
1774389468853,0.0615678,1.31462,-0.321585,-39.3735,20.3437,5.76127,0,0,3.47673,5
1774389468867,0.0667975,1.28745,-0.296001,-25.6532,22.2354,6.0881,0,0,3.3366,5
1774389468880,0.0812903,1.29209,-0.274098,-13.9202,22.4851,6.38631,0,0,3.32853,5
1774389468894,0.0827748,1.3023,-0.26573,-2.49379,21.4015,7.40642,0,0,3.32136,5
1774389468907,0.0795926,1.26808,-0.260868,5.91309,20.0264,8.43996,0,0,3.31466,5
1774389468921,0.0754071,1.24017,-0.257157,10.5497,19.6931,8.88757,0,0,3.32669,5
1774389468935,0.0764762,1.22561,-0.252755,13.6711,20.168,8.7757,0,0,3.82414,5
1774389468948,0.0819402,1.20937,-0.24593,15.7517,20.3881,8.24834,0,0,3.29194,5
1774389468962,0.0834496,1.19484,-0.241794,16.8468,20.1706,7.62595,0,0,3.29627,5
1774389468975,0.0846368,1.18199,-0.237252,17.29,20.0198,6.79741,0,0,3.31221,5
1774389468989,0.0864019,1.17356,-0.230699,17.4776,19.832,5.6895,0,0,3.32864,5
1774389469002,0.0876095,1.16417,-0.225062,17.503,19.4475,4.56922,0,0,3.33218,5
1774389469016,0.0863192,1.15705,-0.217814,17.3857,19.0443,3.57559,0,0,3.3417,5
1774389469030,0.0839109,1.15146,-0.21067,17.3517,18.7301,2.69849,0,0,3.33155,5
1774389469043,0.0820029,1.14653,-0.205781,17.3953,18.5375,1.79394,0,0,3.34071,5
1774389469058,0.0780217,1.13922,-0.196803,17.3864,18.2466,1.08658,0,0,3.88151,5
1774389469071,0.0857563,1.13603,-0.188431,17.4804,17.7579,0.0784811,0,0,3.33697,5
1774389469084,0.0846858,1.12412,-0.188411,17.4282,17.2007,-0.696657,0,0,3.32225,5
1774389469098,0.0819646,1.11376,-0.186578,16.5795,16.5408,-1.27973,0,0,3.33894,5
1774389469111,0.0782306,1.11017,-0.184461,15.7689,15.8104,-1.75132,0,0,3.31877,5
1774389469125,0.0757489,1.10519,-0.180932,15.027,15.1059,-2.04787,0,0,3.3081,5
1774389469138,0.0737815,1.10284,-0.178358,14.3948,14.4598,-2.28326,0,0,3.28738,5
1774389469152,0.0713236,1.09834,-0.174327,13.9701,13.8132,-2.51572,0,0,3.79873,5
1774389469166,0.0715036,1.09375,-0.171561,13.5475,13.1253,-2.79894,0,0,3.27877,5
1774389469179,0.06985,1.08941,-0.16898,13.0736,12.4537,-3.00761,0,0,3.30845,5
1774389469193,0.0679804,1.08507,-0.165541,12.5899,11.7633,-3.2414,0,0,3.31586,5
1774389469206,0.0663207,1.07978,-0.163458,12.0134,11.0928,-3.47364,0,0,3.7443,5
1774389469220,0.0641891,1.07661,-0.160698,11.3875,10.4281,-3.66331,0,0,3.49927,5
1774389469234,0.0609121,1.07375,-0.158229,10.8926,9.81195,-3.81022,0,0,3.31401,5
1774389469247,0.0594441,1.07048,-0.155367,10.4349,9.2012,-3.9506,0,0,3.31551,5
1774389469260,0.0567057,1.067,-0.153409,9.97979,8.61357,-3.97436,0,0,3.32673,5
1774389469274,0.0540763,1.06313,-0.151067,9.46753,8.04821,-3.96166,0,0,3.51431,5
1774389469288,0.0516473,1.06046,-0.149297,8.92748,7.49999,-3.88203,0,0,3.2891,5
1774389469301,0.0498905,1.05766,-0.147113,8.39375,6.98424,-3.82785,0,0,3.29495,5
1774389469314,0.0477727,1.0561,-0.144993,7.92464,6.48629,-3.78655,0,0,3.33075,5
1774389469328,0.0455554,1.05415,-0.143168,7.53407,6.00299,-3.75784,0,0,3.47218,5
1774389469341,0.0439902,1.05194,-0.140815,7.13416,5.54552,-3.69778,0,0,3.29599,5
1774389469355,0.0416393,1.05014,-0.139365,6.76867,5.112,-3.576,0,0,3.28992,5
1774389469369,0.038836,1.04738,-0.137691,6.3646,4.70237,-3.38869,0,0,3.75375,5
1774389469382,0.0368707,1.04551,-0.135951,5.92452,4.29173,-3.16992,0,0,3.2926,5
1774389469396,0.0352903,1.04447,-0.134223,5.5177,3.92597,-2.94116,0,0,3.31766,5
1774389469410,0.03348,1.04307,-0.132965,5.1915,3.59185,-2.70853,0,0,3.44953,5
1774389469424,0.0324323,1.04092,-0.131453,4.86133,3.27091,-2.51035,0,0,3.27994,5
1774389469437,0.0305548,1.03957,-0.130317,4.58008,2.98211,-2.33229,0,0,3.34573,5
1774389469450,0.0291866,1.03755,-0.128846,4.28335,2.74675,-2.16464,0,0,3.28868,5
1774389469464,0.0269172,1.03614,-0.127759,3.987,2.56228,-1.93789,0,0,3.32595,5
1774389469477,0.0263486,1.03494,-0.126165,3.72568,2.37531,-1.72814,0,0,3.29918,5
1774389469491,0.0241286,1.03258,-0.125004,3.43662,2.21938,-1.43423,0,0,3.93942,5
1774389469505,0.0243974,1.03158,-0.123979,3.10598,2.0131,-1.17951,0,0,3.29425,3
1774389469519,0.0233091,1.03056,-0.122593,2.78703,1.82268,-0.915101,0,0,3.34305,3
1774389469532,0.0230478,1.0303,-0.121054,2.51038,1.61768,-0.740025,0,0,3.31862,3
1774389469546,0.0220398,1.02965,-0.120041,2.32418,1.4687,-0.587615,0,0,3.28486,3
1774389469559,0.0201898,1.02848,-0.118977,2.145,1.3632,-0.394084,0,0,3.29855,3
1774389469572,0.0189865,1.02797,-0.117938,1.97458,1.29358,-0.196423,0,0,3.30714,3
1774389469586,0.018263,1.02698,-0.116816,1.82999,1.22573,0.0141301,0,0,3.3241,3
1774389469600,0.0182544,1.02591,-0.115775,1.63357,1.12058,0.22058,0,0,3.30007,3
1774389469614,0.0174881,1.02456,-0.115271,1.43746,0.991787,0.419731,0,0,4.37119,3
1774389469627,0.0173639,1.02276,-0.114767,1.16201,0.820545,0.591012,0,0,3.29475,5
1774389469641,0.0175227,1.02139,-0.113987,0.882735,0.648632,0.712436,0,0,3.28949,5
1774389469654,0.0167244,1.02035,-0.113518,0.607566,0.49621,0.822339,0,0,3.29418,5
1774389469668,0.0153097,1.01931,-0.112803,0.322141,0.364327,0.96076,0,0,3.29881,5
1774389469681,0.0144053,1.01848,-0.111661,0.0475877,0.269387,1.12439,0,0,3.31953,5
1774389469695,0.0142878,1.01768,-0.111123,-0.236828,0.1802,1.31352,0,0,3.29962,5
1774389469709,0.0143676,1.01689,-0.110171,-0.533123,0.0780322,1.48519,0,0,4.06536,5
1774389469723,0.0144226,1.01696,-0.109271,-0.76955,-0.0552289,1.59457,0,0,3.37523,5
1774389469736,0.0146674,1.01587,-0.108379,-1.02098,-0.173736,1.66912,0,0,3.30799,5
1774389469750,0.0149548,1.0162,-0.10696,-1.19578,-0.27275,1.6941,0,0,3.33997,5
1774389469763,0.0156568,1.0158,-0.105987,-1.31326,-0.335809,1.69413,0,0,3.31031,5
1774389469777,0.0158369,1.01583,-0.104939,-1.41644,-0.416312,1.65905,0,0,3.31136,5
1774389469790,0.0157849,1.01548,-0.104055,-1.46672,-0.482879,1.62722,0,0,3.2989,5
1774389469804,0.0151053,1.01506,-0.102878,-1.53303,-0.530298,1.63143,0,0,3.34781,3
1774389469817,0.015128,1.01582,-0.101326,-1.50999,-0.560498,1.63241,0,0,3.61103,3
1774389469831,0.0153953,1.01463,-0.100386,-1.48095,-0.574446,1.60122,0,0,3.77856,3
1774389469845,0.0161954,1.01548,-0.0994126,-1.38075,-0.572625,1.51868,0,0,3.35142,3
1774389469858,0.0168218,1.0144,-0.098236,-1.24207,-0.559774,1.38383,0,0,3.31008,3
1774389469872,0.0167694,1.01458,-0.0970896,-1.09704,-0.557063,1.22057,0,0,3.3489,3
1774389469885,0.0167941,1.01385,-0.0962496,-0.939164,-0.559215,1.0853,0,0,3.30044,3
1774389469899,0.0175331,1.01325,-0.0956171,-0.864646,-0.530844,0.952064,0,0,3.33732,3
1774389469912,0.0170119,1.01361,-0.0950763,-0.658145,-0.496786,0.798893,0,0,3.30219,3
1774389469926,0.0167697,1.01257,-0.0945165,-0.532165,-0.480481,0.620915,0,0,3.88345,5
1774389469940,0.0166129,1.01281,-0.0944082,-0.34303,-0.470657,0.435793,0,0,3.27481,5
1774389469953,0.0167405,1.01141,-0.0942513,-0.22188,-0.454105,0.233651,0,0,3.25116,5
1774389469966,0.0160938,1.01152,-0.0940906,-0.110523,-0.433772,0.0544086,0,0,3.26897,5
1774389469980,0.0153687,1.01093,-0.0938622,-0.0174018,-0.434703,-0.1075,0,0,3.2706,5
1774389469993,0.0153158,1.01075,-0.0930992,0.0465177,-0.41974,-0.227785,0,0,3.27899,5
1774389470006,0.0152332,1.01043,-0.0928501,0.14496,-0.395339,-0.298077,0,0,3.26277,5
1774389470020,0.0153251,1.00973,-0.0924624,0.168087,-0.371023,-0.407244,0,0,3.36923,5
1774389470034,0.0152742,1.01041,-0.0920382,0.281976,-0.409301,-0.574515,0,0,3.83673,5
1774389470047,0.0143926,1.00881,-0.0916646,0.35565,-0.473692,-0.757667,0,0,3.27268,5
1774389470061,0.0132187,1.00947,-0.091254,0.410205,-0.527621,-0.930117,0,0,3.30616,5
1774389470074,0.0119786,1.00909,-0.091139,0.543056,-0.546838,-1.04237,0,0,3.26838,5
1774389470087,0.00991732,1.00799,-0.091488,0.524156,-0.495184,-1.07339,0,0,3.27329,5
1774389470101,0.00873623,1.00904,-0.0912453,0.563264,-0.383483,-1.07612,0,0,3.26594,5
1774389470114,0.0083862,1.00857,-0.0910239,0.657556,-0.210823,-1.09969,0,0,3.3041,5
1774389470127,0.00941812,1.00869,-0.0905879,0.617247,-0.080818,-1.19001,0,0,3.29431,5
1774389470141,0.0102875,1.00892,-0.0903952,0.685389,-0.0497372,-1.27612,0,0,3.26605,5
1774389470154,0.00948524,1.00714,-0.0904351,0.587854,-0.0225407,-1.34413,0,0,3.27921,5
1774389470167,0.00854725,1.00848,-0.0899395,0.497931,-0.0028643,-1.35994,0,0,3.25286,5
1774389470181,0.00734066,1.00827,-0.0899033,0.47257,0.0195621,-1.32262,0,0,3.2742,5
1774389470194,0.00641106,1.0086,-0.089527,0.412236,0.0514351,-1.25057,0,0,3.2661,5
1774389470208,0.0055221,1.00954,-0.0893913,0.437926,0.0849458,-1.15516,0,0,3.27762,5
1774389470223,0.00568633,1.00913,-0.088888,0.478017,0.122571,-1.03085,0,0,3.3889,5
1774389470237,0.00575796,1.00882,-0.0893248,0.496592,0.148666,-0.916504,0,0,3.40081,5
1774389470250,0.00587984,1.00791,-0.0891767,0.461458,0.187856,-0.855247,0,0,3.32799,5
1774389470264,0.00547322,1.00812,-0.0889923,0.434717,0.227417,-0.823973,0,0,3.31671,5
1774389470277,0.00513777,1.00884,-0.0889014,0.498967,0.288737,-0.807728,0,0,3.34329,5
1774389470291,0.00468887,1.0094,-0.0887718,0.641397,0.350899,-0.753,0,0,3.30207,5
1774389470304,0.00440907,1.009,-0.0886372,0.800245,0.407005,-0.688925,0,0,3.28758,5
1774389470317,0.00396001,1.00892,-0.088391,0.933482,0.452257,-0.609604,0,0,3.2971,5
1774389470331,0.00386157,1.0084,-0.0883798,1.03612,0.482553,-0.5069,0,0,3.36899,5
1774389470345,0.00351118,1.00824,-0.0888602,1.09875,0.505155,-0.397968,0,0,3.30133,5
1774389470358,0.00316545,1.00791,-0.0891061,1.14417,0.5145,-0.222782,0,0,3.29083,5
1774389470371,0.00257858,1.00744,-0.0892024,1.1455,0.484784,0.0102301,0,0,3.28301,5
1774389470385,0.00189994,1.00736,-0.0895401,1.09367,0.466583,0.290547,0,0,3.33177,5
1774389470399,0.0020731,1.00662,-0.0898416,0.991214,0.439127,0.538012,0,0,3.54371,5
1774389470412,0.00223868,1.00653,-0.0898631,0.829852,0.423487,0.752328,0,0,3.2889,5
1774389470425,0.00209807,1.00745,-0.0893284,0.729352,0.4357,0.985452,0,0,3.33003,5
1774389470439,0.00123758,1.00745,-0.0895431,0.645194,0.435667,1.27401,0,0,3.3311,5
1774389470452,0.00140767,1.00745,-0.0894815,0.528077,0.489588,1.55238,0,0,3.33571,5
1774389470466,0.00104716,1.00741,-0.0894013,0.439366,0.540056,1.83654,0,0,3.29408,5
1774389470479,0.000947978,1.00688,-0.0900826,0.338932,0.592831,2.12488,0,0,3.27907,5
1774389470493,0.00121615,1.00665,-0.0899013,0.212874,0.633226,2.3658,0,0,3.29444,5
1774389470506,0.00148327,1.00794,-0.0896853,0.206928,0.680775,2.58464,0,0,3.27121,5
1774389470519,0.00184548,1.00853,-0.0894787,0.339619,0.730795,2.77664,0,0,3.32888,5
1774389470533,0.00209576,1.0091,-0.0893878,0.566776,0.810123,2.94289,0,0,3.25903,5
1774389470546,0.00286893,1.00884,-0.0891088,0.871539,0.893993,3.06984,0,0,3.29394,5
1774389470559,0.00390725,1.0074,-0.0900592,1.07571,0.976585,3.13871,0,0,3.30069,5
1774389470573,0.00471865,1.00517,-0.0900818,1.02265,1.07895,3.16775,0,0,3.38818,5
1774389470586,0.00567607,1.00404,-0.0908722,0.830837,1.17986,3.1288,0,0,3.31394,5
1774389470600,0.00617522,1.00402,-0.0910514,0.618525,1.29351,3.0582,0,0,3.25994,5
1774389470613,0.00559553,1.00444,-0.0905929,0.418979,1.49671,2.95988,0,0,3.30751,5
1774389470627,0.00147512,1.0051,-0.0910833,0.306415,2.01136,2.94672,0,0,3.28446,5
1774389470640,-0.0226231,1.00125,-0.0910611,-0.0665958,4.13881,3.04519,0,0,3.31883,5
1774389470653,-0.055063,0.998622,-0.0893423,-0.927369,9.03675,3.20965,0,0,3.2976,5
1774389470667,-0.0898106,0.998522,-0.0840044,-1.83748,17.1475,3.42183,0,0,3.25392,5
1774389470680,-0.117935,0.99832,-0.0735081,-2.78262,28.1475,3.75485,0,0,3.32357,5
1774389470693,-0.126572,0.999685,-0.0571182,-3.6803,40.599,3.72321,0,0,3.27212,5
1774389470707,-0.119819,1.00084,-0.0357862,-4.56659,52.3521,3.34224,0,0,3.32777,5
1774389470721,-0.105397,1.00895,-0.0166257,-5.13384,63.4459,1.98667,0,0,3.58862,5
1774389470735,-0.0875914,1.02544,-0.00168764,-4.392,73.9175,-0.570139,0,0,4.2828,5
1774389470749,-0.065215,1.02376,0.0147432,-3.35221,83.8017,-3.20833,0,0,3.83736,5
1774389470763,-0.0422584,1.02837,0.0264516,-3.359,91.7184,-2.77702,0,0,3.31901,5
1774389470777,-0.0149033,1.03395,0.0407229,-2.05687,97.328,-0.640888,0,0,3.33962,5
1774389470790,0.00276746,1.02865,0.0516688,-1.52188,101.593,1.00162,0,0,3.30307,5
1774389470804,0.00833721,1.03115,0.0598619,-0.37675,105.331,1.53719,0,0,3.30229,5
1774389470817,0.00889082,1.0233,0.065999,0.200597,109.097,1.34905,0,0,3.29397,5
1774389470830,0.010221,1.02386,0.0715581,0.808931,112.962,0.981359,0,0,3.31358,5
1774389470844,0.0124752,1.0245,0.0766179,1.57925,116.892,0.941298,0,0,3.3189,5
1774389470857,0.0135739,1.02553,0.0822465,2.53501,120.9,1.42502,0,0,3.31351,5
1774389470871,0.0123824,1.02403,0.0872018,3.60373,125.122,2.26097,0,0,3.3031,5
1774389470884,0.00812531,1.01796,0.0923568,4.36372,129.704,3.07017,0,0,3.26659,5
1774389470897,0.00304011,1.0136,0.0987705,4.78906,134.706,3.56678,0,0,3.32986,5
1774389470913,0.000376736,1.01084,0.107466,5.09891,140.106,3.82359,0,0,4.9606,5
1774389470926,0.00133186,1.00896,0.116582,5.30232,145.58,4.14135,0,0,3.32195,5
1774389470940,0.00513865,1.00592,0.123912,5.4485,150.93,4.64553,0,0,3.40475,5
1774389470953,0.0103164,1.00277,0.130707,5.39337,156.094,5.25417,0,0,3.33744,5
1774389470967,0.0170828,1.00272,0.13697,5.35289,160.965,5.8458,0,0,3.28844,5
1774389470980,0.0243968,1.00368,0.142031,5.47911,165.493,6.46033,0,0,3.26429,5
1774389470993,0.0309211,1.00379,0.145536,5.78665,169.75,7.23393,0,0,3.28107,5
1774389471007,0.0367011,1.00209,0.148129,6.23793,173.863,8.38548,0,0,3.2416,5
1774389471020,0.0407441,0.993607,0.149306,6.57613,177.946,9.73191,0,0,3.32234,5
1774389471033,0.0451015,0.985793,0.150923,6.40123,181.995,10.611,0,0,3.24579,5
1774389471047,0.0513503,0.984055,0.153505,6.26996,185.817,10.8024,0,0,3.31153,5
1774389471060,0.0592797,0.985115,0.155953,6.35758,189.425,10.6696,0,0,3.28083,5
1774389471074,0.0700226,0.984602,0.158325,6.72289,192.83,10.3966,0,0,3.30388,5
1774389471087,0.0834775,0.98155,0.159708,6.99107,196.044,9.94527,0,0,3.36492,5
1774389471101,0.0989705,0.980274,0.160165,7.13801,198.863,9.19687,0,0,3.27953,5
1774389471114,0.11479,0.980166,0.159706,7.1778,201.167,8.27508,0,0,3.27497,5
1774389471127,0.12839,0.982314,0.157985,7.32796,203.057,7.54972,0,0,3.27496,5
1774389471141,0.139164,0.981572,0.153991,7.46543,204.698,7.01962,0,0,3.2997,5
1774389471154,0.146926,0.980263,0.149093,7.48685,206.31,6.321,0,0,3.27916,5
1774389471168,0.154957,0.980091,0.13307,7.21933,208.143,5.01587,0,0,3.31731,5
1774389471181,0.156861,0.981997,0.131735,7.59282,210.18,3.0025,0,0,3.2777,5
1774389471194,0.161062,0.985443,0.124522,7.23115,212.095,1.27934,0,0,3.25568,5
1774389471208,0.169927,0.989806,0.126069,7.63138,213.933,0.150385,0,0,3.30268,5
1774389471221,0.174529,0.984486,0.117268,7.3823,215.74,-0.610374,0,0,3.26736,5
1774389471235,0.182965,0.986062,0.107185,6.8723,217.163,-1.17132,0,0,3.2937,5
1774389471248,0.19873,0.981749,0.0918635,6.06334,218.128,-1.39678,0,0,3.29329,5
1774389471262,0.207239,0.983252,0.0734323,5.5875,218.884,-1.91104,0,0,3.44494,5
1774389471275,0.209483,0.981838,0.0506715,5.01802,219.89,-2.62596,0,0,3.29709,3
1774389471288,0.215996,0.982109,0.0295574,4.37987,220.723,-3.46564,0,0,3.28407,3
1774389471302,0.230786,0.984536,0.00901437,3.69059,221.042,-4.52925,0,0,3.3136,3
1774389471315,0.244908,0.988661,-0.0205491,2.41268,220.527,-3.82689,0,0,3.28934,3
1774389471329,0.28739,0.993833,-0.0397764,2.59464,217.765,-3.69058,0,0,3.27499,3
1774389471342,0.342684,0.984109,-0.0445818,2.28125,211.603,-3.52082,0,0,3.28612,3
1774389471356,0.401208,0.994296,-0.0298092,2.43161,200.775,-3.46035,0,0,3.74851,3
1774389471370,0.377192,0.992058,-0.0266584,2.62106,189.294,-3.22643,0,0,3.2827,3
1774389471383,0.367551,0.996623,-0.0269767,2.54512,178.745,-3.31264,0,0,3.26636,3
1774389471396,0.358086,0.999536,-0.0258076,2.82327,168.9,-3.63251,0,0,3.28738,3
1774389471411,0.343206,0.997485,-0.028843,2.73941,159.522,-3.73234,0,0,4.22997,3
1774389471426,0.330172,0.996794,-0.0321299,2.60159,150.609,-3.64502,0,0,5.0709,3
1774389471440,0.315999,0.997457,-0.0342375,2.18933,142.01,-3.16096,0,0,3.30996,3
1774389471453,0.303781,1.00124,-0.0359967,2.06952,133.827,-2.50066,0,0,3.35581,3
1774389471467,0.292204,1.00129,-0.0378818,1.99369,126.127,-1.75065,0,0,3.27796,3
1774389471481,0.283195,1.00236,-0.0393,2.02915,118.882,-1.12707,0,0,3.88108,3
1774389471495,0.275134,1.00064,-0.0413289,1.94702,112.062,-0.656214,0,0,4.22743,3
1774389471509,0.267607,1.0002,-0.0423722,1.69137,105.644,-0.243458,0,0,4.06518,3
1774389471523,0.259417,0.999143,-0.0435087,1.33016,99.6144,0.0999018,0,0,3.27531,3
1774389471537,0.251755,1.00085,-0.0448945,1.00163,93.9373,0.373476,0,0,4.63499,3
1774389471552,0.244675,1.00219,-0.0453975,0.851249,88.6001,0.555915,0,0,3.29327,5
1774389471565,0.237263,1.00356,-0.046028,0.894704,83.5947,0.651475,0,0,3.35062,5
1774389471580,0.230303,1.00344,-0.0466522,0.960556,78.8843,0.687724,0,0,4.07927,5
1774389471594,0.223947,1.00286,-0.0475909,0.988032,74.4282,0.684259,0,0,3.97818,5
1774389471608,0.217858,1.00187,-0.0482963,0.909061,70.2517,0.653585,0,0,3.31794,3
1774389471621,0.211683,1.00234,-0.0489495,0.821245,66.3222,0.588235,0,0,3.27951,3
1774389471634,0.206205,1.00295,-0.0492111,0.841977,62.6243,0.446052,0,0,3.35082,3
1774389471648,0.200786,1.00438,-0.0493331,1.0431,59.1522,0.230061,0,0,3.28973,3
1774389471662,0.195475,1.00449,-0.050304,1.33099,55.8955,-0.0239125,0,0,3.6861,5
1774389471675,0.190877,1.00435,-0.0512751,1.61087,52.8338,-0.316307,0,0,3.28903,5
1774389471689,0.185988,1.00203,-0.0526735,1.76329,49.9011,-0.568322,0,0,3.27292,5
1774389471703,0.18078,1.00179,-0.053872,1.7633,47.1221,-0.780081,0,0,3.37514,5
1774389471716,0.175586,1.00144,-0.0546551,1.73418,44.4931,-0.952559,0,0,3.28451,5
1774389471732,0.170534,1.00217,-0.0556815,1.74139,41.9811,-1.05413,0,0,6.12819,5
1774389471746,0.16566,1.00234,-0.0561718,1.77859,39.6104,-1.07978,0,0,3.29223,5
1774389471760,0.161276,1.00296,-0.0569184,1.81969,37.3826,-1.11641,0,0,3.68012,5
1774389471778,0.156743,1.00273,-0.0576536,1.81268,35.278,-1.10175,0,0,7.32622,5
1774389471791,0.152835,1.00208,-0.0577801,1.6973,33.2859,-1.05494,0,0,3.30525,5
1774389471804,0.149109,1.00133,-0.0586272,1.51346,31.3764,-0.968786,0,0,3.30573,5
1774389471818,0.145919,1.00122,-0.0592877,1.24273,29.574,-0.860493,0,0,3.28055,5
1774389471835,0.142623,1.00142,-0.0600688,0.980343,27.8175,-0.723591,0,0,3.32527,5
1774389471849,0.139077,1.00207,-0.060474,0.77249,26.1536,-0.596509,0,0,3.28301,5
1774389471863,0.135877,1.00273,-0.0604559,0.604986,24.5654,-0.445727,0,0,3.35475,5
1774389471877,0.133191,1.00311,-0.0607161,0.461863,23.0697,-0.308968,0,0,3.74845,5
1774389471890,0.130463,1.00302,-0.0616162,0.338329,21.6587,-0.18716,0,0,3.31286,5
1774389471903,0.128089,1.00257,-0.0625304,0.133947,20.3056,-0.0593385,0,0,3.28436,5
1774389471917,0.125797,1.00248,-0.0627106,-0.100505,19.003,0.0587438,0,0,3.33055,5
1774389471930,0.123242,1.00233,-0.0631391,-0.360343,17.7988,0.137661,0,0,3.28731,5
1774389471944,0.120917,1.00226,-0.0626841,-0.621449,16.6762,0.154774,0,0,3.7789,5
1774389471959,0.118287,1.00306,-0.0626013,-0.80625,15.6398,0.128536,0,0,4.28177,5
1774389471972,0.115687,1.00328,-0.0625008,-0.935726,14.6306,0.16072,0,0,3.38557,3
1774389471986,0.113361,1.00428,-0.062394,-1.01255,13.6725,0.207369,0,0,3.34181,3
1774389471999,0.110838,1.00466,-0.0621851,-1.00585,12.7814,0.257824,0,0,3.28364,3
1774389472012,0.10897,1.00486,-0.0620494,-0.963562,11.9351,0.302452,0,0,3.32477,3
1774389472026,0.106884,1.00411,-0.0620691,-0.945053,11.1454,0.341151,0,0,3.73042,3
1774389472040,0.10552,1.00393,-0.0620132,-0.990525,10.3896,0.363549,0,0,3.27073,3
1774389472053,0.104076,1.00272,-0.0620451,-1.11437,9.65181,0.37998,0,0,3.28781,3
1774389472066,0.102738,1.0028,-0.0624494,-1.29251,8.96483,0.411762,0,0,3.27466,3
1774389472080,0.101246,1.00279,-0.0624836,-1.46022,8.33351,0.428914,0,0,3.37918,3
1774389472094,0.0996472,1.00362,-0.0623456,-1.57528,7.72519,0.446818,0,0,3.69662,3
1774389472107,0.0982468,1.0038,-0.0627367,-1.64963,7.14757,0.461576,0,0,3.32642,3
1774389472121,0.096801,1.00377,-0.0623526,-1.71938,6.61091,0.506336,0,0,3.36888,3
1774389472134,0.0955144,1.00402,-0.0623911,-1.78265,6.09622,0.54516,0,0,3.27821,3
1774389472148,0.0939959,1.00426,-0.0622998,-1.81668,5.61211,0.576239,0,0,3.27416,3
1774389472161,0.093131,1.00451,-0.0621377,-1.85565,5.15558,0.601293,0,0,3.87058,3
1774389472175,0.0922719,1.00454,-0.0619614,-1.85989,4.74522,0.600536,0,0,3.40121,3
1774389472188,0.0911941,1.00462,-0.0613336,-1.85619,4.36943,0.592541,0,0,3.29164,3
1774389472203,0.0898965,1.00478,-0.0606693,-1.82015,4.03271,0.571722,0,0,3.65331,3
1774389472217,0.0888799,1.00517,-0.0604931,-1.75617,3.71701,0.549073,0,0,3.2617,3
1774389472236,0.0878971,1.00523,-0.0598869,-1.67222,3.43273,0.521271,0,0,8.57611,3
1774389472249,0.0867971,1.00549,-0.0589335,-1.52532,3.18751,0.460346,0,0,3.28807,3
1774389472263,0.0859374,1.00598,-0.0585556,-1.337,2.95776,0.375006,0,0,3.42671,3
1774389472277,0.0848056,1.00577,-0.0589523,-1.15753,2.75631,0.298307,0,0,3.32184,3
1774389472291,0.084065,1.00632,-0.0590648,-0.964142,2.5773,0.21178,0,0,3.3674,3
1774389472307,0.083154,1.00559,-0.0593645,-0.797876,2.4186,0.137385,0,0,4.92284,3
1774389472320,0.0823788,1.00576,-0.0595123,-0.64479,2.26624,0.0586001,0,0,3.30303,3
1774389472334,0.0813173,1.00533,-0.0595041,-0.511424,2.11985,-0.016194,0,0,3.3587,3
1774389472347,0.0807399,1.00551,-0.0594109,-0.373549,1.9958,-0.108202,0,0,3.32462,3
1774389472361,0.0798675,1.0054,-0.0594393,-0.257539,1.88471,-0.199331,0,0,3.31429,3
1774389472374,0.0791614,1.0054,-0.0600002,-0.146751,1.79869,-0.262226,0,0,3.30364,3
1774389472387,0.0785182,1.00533,-0.0600988,-0.0678683,1.69566,-0.279203,0,0,3.30546,5
1774389472401,0.0776468,1.00531,-0.0604067,0.0130122,1.61424,-0.272962,0,0,3.26708,5
1774389472414,0.0768883,1.00551,-0.060541,0.0855021,1.53269,-0.248659,0,0,3.28347,5
1774389472428,0.0762698,1.00673,-0.0604451,0.230143,1.45828,-0.248413,0,0,3.27751,5
1774389472441,0.0757637,1.00729,-0.0603855,0.44246,1.41202,-0.249037,0,0,3.28266,5
1774389472454,0.0753331,1.00782,-0.0604139,0.709664,1.35294,-0.25819,0,0,3.29816,5
1774389472468,0.0752844,1.00887,-0.0600674,1.07192,1.31045,-0.276678,0,0,3.30744,5
1774389472481,0.074832,1.01062,-0.0599709,1.62924,1.24465,-0.30569,0,0,3.29766,5
1774389472495,0.0749974,1.01392,-0.0590352,2.38738,1.1864,-0.368186,0,0,3.2549,5
1774389472508,0.0761164,1.02172,-0.0570407,3.69517,1.09544,-0.490119,0,0,3.29175,5
1774389472521,0.078724,1.03162,-0.0550052,5.90201,0.953068,-0.687425,0,0,3.28034,5
1774389472535,0.0791036,1.05858,-0.0539023,9.76589,0.768155,-0.907062,0,0,3.30457,5
1774389472548,0.0921293,1.06507,-0.043516,13.2765,0.534953,-2.25849,0,0,3.27283,5
1774389472561,0.101361,1.08314,-0.0271564,17.3523,-0.0354252,-4.03253,0,0,3.29357,5
1774389472575,0.104487,1.08381,-0.00181767,20.7751,-0.267656,-3.78407,0,0,3.29429,5
1774389472588,0.0997898,1.08019,0.0291821,23.6677,0.312135,-2.59255,0,0,3.28314,5
1774389472602,0.0879305,1.05241,0.0655099,24.8163,2.15467,-2.58457,0,0,3.33716,5
1774389472615,0.0780206,1.03611,0.106751,24.1004,5.12146,-2.67767,0,0,3.28633,5
1774389472629,0.0766692,1.01852,0.14952,22.6711,8.34017,-1.8959,0,0,3.32016,5
1774389472642,0.0802242,0.997709,0.191326,20.0934,11.3077,-0.306744,0,0,3.28442,5
1774389472656,0.0841256,0.979114,0.229083,16.5659,13.8351,1.38381,0,0,3.51892,5
1774389472670,0.0867459,0.963276,0.259808,12.01,15.9254,2.66055,0,0,3.3226,5
1774389472683,0.0904261,0.953351,0.283754,6.70376,17.5854,3.43105,0,0,3.27155,3
1774389472696,0.095312,0.948216,0.300407,0.865357,18.7677,3.84577,0,0,3.33277,5
1774389472710,0.101607,0.950683,0.311218,-5.12727,19.4098,4.01156,0,0,3.27823,5
1774389472723,0.108171,0.956588,0.315321,-10.9666,19.5987,4.0122,0,0,3.30281,5
1774389472737,0.113242,0.962287,0.314493,-16.7939,19.4812,3.952,0,0,3.28168,5
1774389472750,0.116436,0.970247,0.310669,-22.5372,19.2277,3.8956,0,0,3.39786,5
1774389472763,0.117174,0.981093,0.304812,-27.9485,19.0145,3.95798,0,0,3.28407,5
1774389472777,0.115605,0.991721,0.295977,-32.9675,19.0077,4.21382,0,0,3.29401,5
1774389472790,0.114201,1.00276,0.285211,-37.488,19.2445,4.57392,0,0,3.30301,5
1774389472804,0.113904,1.01247,0.272984,-41.546,19.6825,4.96221,0,0,3.28705,5
1774389472817,0.113098,1.01709,0.260928,-45.3896,20.3049,5.24522,0,0,3.33251,5
1774389472831,0.113063,1.02195,0.249667,-49.1165,21.0072,5.30597,0,0,3.27399,5
1774389472844,0.11555,1.02773,0.239624,-52.5008,21.6384,5.31021,0,0,3.53955,5
1774389472858,0.118109,1.03028,0.228931,-55.5886,22.107,5.44867,0,0,3.30359,5
1774389472871,0.122521,1.03448,0.217937,-58.4146,22.4251,5.62475,0,0,3.63407,5
1774389472885,0.127658,1.0394,0.206302,-60.8114,22.5781,5.68006,0,0,3.26796,5
1774389472898,0.133339,1.04144,0.194227,-62.8392,22.5268,5.64448,0,0,3.27875,5
1774389472911,0.140491,1.04161,0.182263,-64.6132,22.2125,5.6109,0,0,3.27523,5
1774389472925,0.146188,1.03764,0.16985,-66.3104,21.6658,5.88835,0,0,3.26738,5
1774389472938,0.151796,1.03834,0.155995,-67.8559,20.9712,6.25172,0,0,3.32314,5
1774389472952,0.155279,1.03774,0.141966,-69.0106,20.2226,6.33951,0,0,3.24812,5
1774389472965,0.156773,1.03356,0.12759,-70.0013,19.4831,6.04857,0,0,3.49194,5
1774389472979,0.158437,1.03855,0.113575,-70.7017,18.7221,5.91482,0,0,3.29257,5
1774389472992,0.16257,1.04739,0.0988494,-70.2453,17.7229,5.94272,0,0,3.31403,5
1774389473005,0.164279,1.04845,0.0828673,-68.9954,16.6392,6.10308,0,0,3.28173,5
1774389473019,0.1619,1.04692,0.0677976,-67.3976,15.7689,6.24973,0,0,3.29812,5
1774389473032,0.157019,1.0446,0.0511342,-65.7602,15.2586,6.42498,0,0,3.29527,5
1774389473046,0.152907,1.05024,0.0334379,-63.3441,15.0218,6.55272,0,0,3.27407,5
1774389473059,0.147362,1.055,0.013985,-60.1494,15.1221,6.71097,0,0,3.40373,5
1774389473073,0.141579,1.06098,-0.00663511,-56.2638,15.5481,6.81539,0,0,3.85223,5
1774389473087,0.13384,1.06909,-0.0282219,-51.4537,16.3335,6.85015,0,0,3.45533,5
1774389473100,0.124741,1.07609,-0.049975,-45.8983,17.6165,6.81788,0,0,3.31527,5
1774389473114,0.116702,1.08629,0.0526907,-41.4367,19.7597,5.55981,0,0,3.28692,5
1774389473127,0.101455,1.09002,0.112675,-28.9113,21.4534,2.99354,0,0,3.31583,5
1774389473140,0.0905693,1.07046,0.142704,-17.4096,22.0282,1.00241,0,0,3.2982,5
1774389473154,0.0778854,1.0827,0.148144,-5.34862,22.5812,-0.222336,0,0,3.27786,5
1774389473167,0.0654253,1.07582,0.145199,6.60963,24.0074,0.653359,0,0,3.26957,5
1774389473181,0.0737748,1.06157,0.144519,16.4413,24.0155,1.05175,0,0,3.54766,5
1774389473194,0.078065,1.05491,0.145128,24.2164,22.4818,1.26636,0,0,3.2766,5
1774389473208,0.0734232,1.06399,0.143212,30.9083,20.0543,2.08896,0,0,3.26451,5
1774389473221,0.0713332,1.076,0.139244,37.6018,17.3387,3.23707,0,0,3.30996,5
1774389473234,0.0710644,1.06792,0.13292,43.5455,14.8671,3.99023,0,0,3.2694,5
1774389473248,0.0660988,1.04877,0.125783,47.0277,13.8238,4.62492,0,0,3.29934,5
1774389473261,0.060336,1.0493,0.121649,49.245,13.7073,4.93156,0,0,3.28812,5
1774389473275,0.0618614,1.04858,0.113884,51.2125,13.2634,5.11609,0,0,3.55675,5
1774389473288,0.0661067,1.03619,0.104088,51.9234,12.4959,5.46412,0,0,3.27716,5
1774389473302,0.0622014,1.02939,0.0964398,51.5149,11.7796,5.99473,0,0,3.25084,5
1774389473315,0.0617553,1.02593,0.0885387,50.6258,11.1604,6.29561,0,0,3.31496,5
1774389473328,0.0625353,1.022,0.0814636,49.3284,10.7947,6.44045,0,0,3.29447,5
1774389473342,0.0616902,1.02005,0.0754347,47.8284,10.6032,6.57161,0,0,3.3277,5
1774389473355,0.0628788,1.01827,0.0695092,46.2585,10.4067,6.52542,0,0,3.27696,5
1774389473369,0.0652218,1.0159,0.063309,44.5531,10.2781,6.23218,0,0,3.30601,5
1774389473382,0.0668644,1.01434,0.0567714,42.7438,10.2124,5.76999,0,0,3.28842,5
1774389473396,0.0686595,1.01271,0.049815,40.8934,10.0609,5.24338,0,0,3.5002,5
1774389473409,0.0704507,1.01192,0.0434298,39.0817,9.90421,4.70134,0,0,3.27114,5
1774389473422,0.0708291,1.0112,0.037911,37.3349,9.76186,4.10964,0,0,3.25872,5
1774389473436,0.0715325,1.0113,0.0343846,35.6432,9.7324,3.4762,0,0,3.34662,5
1774389473449,0.0716286,1.01186,0.0307882,34.1217,9.70887,2.83975,0,0,3.28484,5
1774389473463,0.0712401,1.01099,0.026495,32.6107,9.76974,2.18805,0,0,3.28764,5
1774389473476,0.0717761,1.01058,0.0231048,31.1146,9.84559,1.56134,0,0,3.25438,5
1774389473491,0.0714665,1.01096,0.0200978,29.6759,9.97629,0.925682,0,0,4.10971,5
1774389473504,0.0705832,1.01067,0.016571,28.3577,10.0624,0.357794,0,0,3.27503,5
1774389473517,0.0712013,1.01106,0.013807,27.1348,10.1278,-0.117866,0,0,3.29105,5
1774389473531,0.0724971,1.01162,0.0152425,25.9866,9.94383,-0.534731,0,0,3.30399,5
1774389473544,0.0716648,1.01065,0.0119814,24.9751,9.81638,-0.859275,0,0,3.2671,5
1774389473557,0.0704953,1.01142,0.00769918,23.9022,9.64085,-1.12237,0,0,3.2826,5
1774389473571,0.0678501,1.01325,0.00398857,23.02,9.47302,-1.23069,0,0,3.28927,5
1774389473584,0.0662175,1.0126,0.000216032,22.2255,9.2234,-1.26271,0,0,3.31179,5
1774389473598,0.0651153,1.01288,-0.00404282,21.565,9.00192,-1.14649,0,0,3.29794,5
1774389473611,0.0641361,1.01344,-0.00621493,21.0636,8.75003,-0.892494,0,0,3.49636,5
1774389473625,0.0632638,1.01421,-0.0107157,20.6879,8.47888,-0.61849,0,0,3.29038,5
1774389473638,0.062483,1.01644,-0.0133647,20.4391,8.24949,-0.26908,0,0,3.2762,5
1774389473651,0.0626866,1.0195,-0.0181934,20.6341,8.00042,-0.00906452,0,0,3.27349,5
1774389473665,0.0634792,1.02325,-0.0213055,20.9715,7.81756,0.369961,0,0,3.29844,5
1774389473678,0.0636713,1.02576,-0.023737,21.5631,7.64667,0.862604,0,0,3.28438,5
1774389473692,0.0648159,1.02897,-0.0254002,22.441,7.44255,1.3867,0,0,3.27923,5
1774389473705,0.0652805,1.02822,-0.0276633,23.4927,7.26229,1.79834,0,0,3.44273,5
1774389473719,0.0661091,1.02686,-0.0308737,24.2645,7.00951,2.3436,0,0,3.34199,5
1774389473732,0.0667414,1.02989,-0.0350542,25.1664,6.72595,2.91479,0,0,3.30055,5
1774389473746,0.0665452,1.03048,-0.0390731,25.9711,6.41547,3.62608,0,0,3.32616,5
1774389473759,0.065717,1.03268,-0.0432046,26.6835,6.10185,4.33729,0,0,3.27538,5
1774389473772,0.0650638,1.03373,-0.0486395,27.4219,5.80754,5.15077,0,0,3.27646,5
1774389473786,0.0647916,1.03653,-0.0531961,28.2152,5.53188,5.96057,0,0,3.28996,5
1774389473799,0.066752,1.03822,-0.0571691,29.0792,5.23786,6.69455,0,0,3.30836,5
1774389473812,0.0688402,1.0379,-0.062004,29.9196,4.88239,7.39165,0,0,3.27092,5
1774389473826,0.0710186,1.03866,-0.0666594,30.6687,4.52032,8.02309,0,0,3.53523,5
1774389473840,0.0714682,1.03892,-0.0717519,31.4148,4.13317,8.67649,0,0,3.59894,5
1774389473853,0.0725281,1.0411,-0.0775185,32.2295,3.75446,9.34677,0,0,3.3386,5
1774389473867,0.0731465,1.0434,-0.0826166,33.168,3.43125,9.9666,0,0,3.30073,5
1774389473880,0.0748804,1.0457,-0.0883031,34.2672,3.12232,10.5255,0,0,3.31316,5
1774389473894,0.0770402,1.04725,-0.0937944,35.4849,2.81145,11.0433,0,0,3.58514,5
1774389473907,0.0798743,1.05037,-0.0983087,36.8639,2.44565,11.6078,0,0,3.27384,5
1774389473921,0.0822535,1.05519,-0.103725,38.443,2.03271,12.1115,0,0,3.39735,5
1774389473934,0.0842083,1.06012,-0.109033,40.2332,1.62795,12.575,0,0,3.28814,5
1774389473948,0.0867823,1.06626,-0.114771,42.29,1.1714,13.033,0,0,3.27586,5
1774389473961,0.0882935,1.07269,-0.1195,44.7251,0.627833,13.6537,0,0,3.29344,5
1774389473975,0.0900803,1.07877,-0.124993,47.4128,0.0471071,14.2627,0,0,3.3006,5
1774389473988,0.0903155,1.08603,-0.129627,50.4499,-0.623078,15.05,0,0,3.33405,5
1774389474001,0.096701,1.09776,-0.132287,53.9247,-1.46677,15.8526,0,0,3.29475,5
1774389474015,0.104441,1.11121,-0.133527,57.9603,-2.52004,16.6432,0,0,3.37144,5
1774389474028,0.11355,1.1263,-0.134115,62.6648,-3.93643,17.5667,0,0,3.27683,5
1774389474042,0.118322,1.14891,-0.132317,67.9319,-5.59579,18.6362,0,0,3.39625,5
1774389474055,0.130786,1.18026,-0.125506,74.7293,-7.71786,19.5626,0,0,3.28849,5
1774389474069,0.131718,1.21247,-0.118693,82.7319,-10.2112,20.5369,0,0,3.26964,5
1774389474082,0.12774,1.24403,-0.115051,91.705,-12.3749,21.3396,0,0,3.3151,5
1774389474096,0.108701,1.28175,-0.127689,100.591,-13.7305,22.358,0,0,3.58501,5
1774389474109,0.0977334,1.32294,-0.137832,108.979,-14.0274,23.6645,0,0,3.31279,5
1774389474123,0.0950929,1.33465,-0.155721,116.897,-13.855,24.5003,0,0,3.26783,5
1774389474136,0.108476,1.3348,-0.166378,124.37,-13.9813,25.8227,0,0,3.49957,1
1774389474150,0.118317,1.34776,-0.178502,131.424,-14.4876,27.3844,0,0,3.31566,1
1774389474163,0.13992,1.33817,-0.182718,138.083,-15.2272,28.6812,0,0,3.3124,1
1774389474177,0.149891,1.31314,-0.174898,143.743,-16.4232,29.9747,0,0,3.32029,1
1774389474190,0.198749,1.22068,-0.0914218,149.711,-19.0195,30.7969,0,0,3.28627,4
1774389474203,0.254065,0.992367,-0.0727857,140.794,-27.4507,31.1256,0,0,3.28046,1
1774389474217,0.242357,0.9796,-0.042131,121.174,-35.623,31.7544,0,0,3.34855,4
1774389474230,0.227604,1.00623,-0.00583416,108.104,-43.2244,29.3408,0,0,3.43401,4
1774389474244,0.193831,0.975586,0.0146857,94.3477,-48.4339,25.3772,0,0,3.24279,4
1774389474257,0.157669,0.972799,0.0305713,82.5637,-51.0905,20.2979,0,0,3.2944,4
1774389474270,0.119821,0.935392,0.039655,70.5617,-51.1651,15.0715,0,0,3.27923,4
1774389474284,0.0875258,0.903122,0.0471242,57.5279,-48.8543,10.7055,0,0,3.32853,3
1774389474298,0.0633906,0.867737,0.0535835,43.4024,-44.6131,7.70075,0,0,3.58438,3
1774389474311,0.047646,0.839035,0.0612338,27.9904,-39.0911,5.86006,0,0,3.27164,3
1774389474324,0.0395299,0.826685,0.0703325,12.3895,-32.6812,4.92676,0,0,3.28925,3
1774389474338,0.0402034,0.821495,0.0774317,-2.33623,-26.1542,4.78143,0,0,3.27949,2
1774389474352,0.0494211,0.825276,0.0827578,-16.236,-20.1677,5.15379,0,0,3.53112,2
1774389474365,0.0616949,0.826672,0.0848294,-29.3561,-14.928,5.84183,0,0,3.2961,2
1774389474379,0.0754713,0.834476,0.086063,-41.7402,-10.5328,6.60902,0,0,3.29201,2
1774389474392,0.0883462,0.848825,0.0848296,-53.4297,-7.11685,7.2728,0,0,3.31599,2
1774389474406,0.0996972,0.869295,0.0821234,-64.4636,-4.63923,7.56022,0,0,3.28186,2
1774389474419,0.107167,0.89739,0.0784466,-74.8784,-3.01823,7.67053,0,0,3.32471,2
1774389474432,0.110776,0.924342,0.073724,-84.7091,-2.09104,7.69843,0,0,3.2899,2
1774389474446,0.112754,0.952357,0.0687595,-93.9884,-1.67359,7.67553,0,0,3.60308,2
1774389474460,0.113471,0.981111,0.0640442,-102.747,-1.49922,7.3105,0,0,3.26912,5
1774389474473,0.116015,1.01423,0.0602718,-111.015,-1.59881,6.6842,0,0,3.25134,5
1774389474486,0.122205,1.05365,0.0550521,-118.818,-2.12101,6.26559,0,0,3.28303,5
1774389474500,0.129951,1.09158,0.0460356,-126.184,-3.08235,6.28795,0,0,3.36138,5
1774389474513,0.136728,1.12289,0.0333668,-133.137,-4.21328,6.25638,0,0,3.29122,5
1774389474527,0.140646,1.15558,0.0184333,-139.7,-5.1322,5.74274,0,0,3.27879,5
1774389474540,0.142919,1.19715,0.00144103,-145.895,-5.59579,5.00227,0,0,3.31492,5
1774389474553,0.149534,1.24022,-0.0228158,-151.723,-5.6874,4.94049,0,0,3.27892,5
1774389474567,0.157398,1.27065,-0.0576603,-155.724,-5.68995,6.32772,0,0,3.39386,3
1774389474580,0.157732,1.29209,-0.0990421,-158.377,-5.51551,9.63249,0,0,3.2762,3
1774389474594,0.154208,1.32082,-0.146846,-159.4,-5.13248,13.8266,0,0,3.25346,3
1774389474607,0.150187,1.34883,-0.204485,-157.584,-4.59924,16.4444,0,0,3.30094,3
1774389474620,0.147591,1.36785,-0.269736,-153.04,-4.15071,16.5386,0,0,3.26797,3
1774389474634,0.14641,1.38507,-0.337664,-145.86,-3.96884,15.0598,0,0,3.31881,3
1774389474647,0.14257,1.39959,-0.402643,-136.267,-3.97873,12.9108,0,0,3.2862,3
1774389474661,0.12663,1.4089,-0.45909,-124.659,-3.43313,10.3355,0,0,3.49418,3
1774389474674,0.0993324,1.52221,-0.586215,-106.605,-1.24778,4.29429,0,0,3.2911,3
1774389474687,0.125236,1.43864,-0.529252,-86.595,-1.418,-2.41692,0,0,3.24761,3
1774389474701,0.0858706,1.38632,-0.471567,-69.6629,1.53253,-6.42961,0,0,3.79197,3
1774389474715,0.0735311,1.39516,-0.453271,-51.7249,3.2214,-9.34502,0,0,3.26264,3
1774389474728,0.0534032,1.3831,-0.432755,-34.7932,6.30563,-8.86065,0,0,3.30349,3
1774389474742,0.0631006,1.36813,-0.412868,-21.3743,7.81411,-8.37434,0,0,3.26516,3
1774389474755,0.0599994,1.3726,-0.398688,-9.55331,7.14458,-6.39396,0,0,3.3292,5
1774389474768,0.0539802,1.33573,-0.394204,-0.798838,5.87631,-4.31828,0,0,3.26996,5
1774389474782,0.0452561,1.29471,-0.387161,3.56637,5.92479,-2.89084,0,0,3.25747,5
1774389474795,0.0480281,1.27731,-0.376785,5.97826,6.73571,-2.14378,0,0,3.26194,5
1774389474808,0.0556117,1.26349,-0.362239,7.86607,6.99717,-1.79317,0,0,3.28477,5
1774389474822,0.0587637,1.24714,-0.349003,9.06608,7.25424,-1.65533,0,0,3.27868,5
1774389474835,0.0593755,1.23494,-0.336046,9.81256,7.47591,-2.03734,0,0,3.27266,5
1774389474849,0.0608147,1.22266,-0.32308,10.3112,7.84143,-2.63556,0,0,3.38162,5
1774389474862,0.0620522,1.21312,-0.312549,10.7018,8.04387,-3.29186,0,0,3.29559,5
1774389474875,0.0604596,1.20329,-0.303535,11.029,8.35056,-3.821,0,0,3.28697,5
1774389474889,0.0586056,1.19482,-0.292535,11.295,8.77535,-4.26479,0,0,3.28866,5
1774389474902,0.0580926,1.18874,-0.282539,11.6565,8.89286,-4.60876,0,0,3.2581,5
1774389474916,0.0577622,1.18119,-0.272938,12.1485,9.00677,-4.91074,0,0,3.36288,5
1774389474929,0.0634253,1.17255,-0.26034,12.5067,8.92247,-5.23303,0,0,3.27134,5
1774389474942,0.0635236,1.16316,-0.251837,12.6992,8.89984,-5.55138,0,0,3.30096,5
1774389474956,0.0631478,1.15518,-0.242788,12.6763,8.89861,-5.98546,0,0,3.26249,5
1774389474969,0.0625963,1.14995,-0.234541,12.7223,8.80281,-6.45129,0,0,3.51701,5
1774389474983,0.061375,1.14496,-0.226782,12.9344,8.71239,-6.74925,0,0,3.26636,5
1774389474996,0.0576766,1.14111,-0.217206,13.275,8.82487,-7.00225,0,0,3.25014,5
1774389475010,0.0567771,1.13621,-0.211785,13.9087,8.79573,-6.98885,0,0,3.31494,5
1774389475023,0.0543902,1.13163,-0.205396,14.5917,8.69671,-6.76211,0,0,3.33044,5
1774389475037,0.051734,1.1268,-0.200588,15.3172,8.50263,-6.32157,0,0,3.6462,5
1774389475051,0.0485533,1.12352,-0.196898,16.0937,8.3417,-5.71264,0,0,3.68014,5
1774389475066,0.0473588,1.11868,-0.192654,16.8686,8.14098,-5.10789,0,0,4.55405,5
1774389475079,0.049804,1.11753,-0.188296,17.8013,7.85604,-4.54005,0,0,3.50027,5
1774389475098,0.0494517,1.11282,-0.184749,18.981,7.48174,-4.11883,0,0,3.5729,5
1774389475112,0.0508872,1.10229,-0.182787,19.5601,7.00255,-3.95759,0,0,3.94736,5
1774389475126,0.0511602,1.09724,-0.180751,19.515,6.47788,-3.83665,0,0,3.5247,5
1774389475139,0.0509728,1.09583,-0.1789,19.5936,5.96765,-3.7469,0,0,3.43834,5
1774389475153,0.0468111,1.09467,-0.177141,19.7063,5.55755,-3.59282,0,0,3.44012,5
1774389475167,0.0448814,1.09408,-0.175501,20.0435,5.30534,-3.17891,0,0,3.97225,5
1774389475181,0.0416801,1.09293,-0.174094,20.3887,5.11008,-2.75225,0,0,3.35053,5
1774389475198,0.0410851,1.09361,-0.173313,20.8512,4.93006,-2.05321,0,0,4.60762,5
1774389475213,0.0402173,1.09154,-0.17245,21.298,4.67879,-0.938658,0,0,3.86171,5
1774389475227,0.0394728,1.09099,-0.171602,21.8619,4.46302,0.210151,0,0,3.31249,5
1774389475240,0.0381736,1.08923,-0.171529,22.4507,4.26877,1.37502,0,0,3.33966,5
1774389475254,0.0376252,1.08793,-0.171587,23.1054,4.08798,2.50837,0,0,3.32197,5
1774389475267,0.0386277,1.0882,-0.171759,23.9152,3.90578,3.58886,0,0,3.32027,5
1774389475281,0.0399279,1.08768,-0.171754,24.912,3.68584,4.6036,0,0,3.41029,5
