timestamp,ax,ay,az,gx,gy,gz,roll_k,pitch_k,delay_ms,classe_prevista
1774536471693,0.0417451,0.872742,-0.604694,0.838856,-1.51757,-0.419428,0,0,3.33206,-1
1774536471706,0.0373538,0.854982,-0.615234,0.41264,-1.42757,-0.0919302,0,0,3.25008,-1
1774536471720,0.0432125,0.872801,-0.610596,0.328329,-1.13769,-0.129733,0,0,3.23201,-1
1774536471734,0.0332038,0.873047,-0.602296,0.435008,-1.11453,0.129512,0,0,3.77352,-1
1774536471747,0.0366209,0.864747,-0.614989,0.244465,-0.908603,0.43481,0,0,3.22326,-1
1774536471761,0.0417477,0.871826,-0.608155,0.297657,-0.69487,0.709649,0,0,3.51543,-1
1774536471775,0.0402833,0.874756,-0.620849,0.160442,-0.526885,0.923451,0,0,3.22573,-1
1774536471788,0.0395508,0.878174,-0.613038,0.213687,-0.313191,1.24395,0,0,3.22562,-1
1774536471801,0.0490716,0.872315,-0.616699,0.396764,-0.442619,0.916358,0,0,3.23178,-1
1774536471815,0.0375985,0.876953,-0.616699,0.587596,-0.274977,1.35834,0,0,3.30047,0
1774536471828,0.0358888,0.876465,-0.608887,0.778435,-0.221428,1.48079,0,0,3.27949,0
1774536471841,0.0361328,0.869874,-0.618408,0.65661,0.251436,2.07574,0,0,3.27156,0
1774536471855,0.0378417,0.866699,-0.610352,0.908146,0.541695,2.73979,0,0,3.28243,0
1774536471868,0.0368653,0.872558,-0.615478,0.855015,0.725008,2.67182,0,0,3.26417,5
1774536471882,0.0468743,0.874756,-0.610108,1.27439,0.473534,2.51161,0,0,3.23449,5
1774536471895,0.0432131,0.877197,-0.61499,1.47308,0.381771,2.39706,0,0,3.27167,5
1774536471908,0.0571279,0.871582,-0.608155,1.61818,0.450313,2.10716,0,0,3.24917,5
1774536471922,0.0488287,0.860352,-0.622802,1.4658,0.28261,2.03061,0,0,3.27117,5
1774536471935,0.0471193,0.866943,-0.604249,1.29788,0.312947,1.85514,0,0,3.24639,5
1774536471948,0.046875,0.865723,-0.619384,1.38922,0.0308162,2.19813,0,0,3.29221,5
1774536471962,0.0405278,0.865234,-0.614991,1.13766,0.678742,2.90769,0,0,3.25882,5
1774536471975,0.0571277,0.861817,-0.60962,0.969634,0.542121,3.29732,0,0,3.30721,5
1774536471988,0.0397961,0.872802,-0.630126,0.801694,1.12918,4.28146,0,0,3.27839,5
1774536472002,0.0476069,0.871338,-0.619874,0.786275,1.21366,4.80101,0,0,3.47961,5
1774536472016,0.0549311,0.871338,-0.616211,0.778634,1.17561,4.68714,0,0,3.35113,5
1774536472029,0.0527345,0.875244,-0.618896,1.13705,1.1832,4.67177,0,0,3.27058,5
1774536472043,0.0651847,0.874756,-0.620361,1.34331,1.02306,4.15319,0,0,3.76567,5
1774536472056,0.0551765,0.877929,-0.618164,1.44265,0.725488,4.06116,0,0,3.26919,5
1774536472070,0.0493168,0.87793,-0.608155,1.8393,0.671809,4.01531,0,0,3.25556,5
1774536472083,0.0532224,0.871827,-0.617919,2.27437,0.694634,3.71023,0,0,3.27862,5
1774536472097,0.0603022,0.868164,-0.618408,2.16805,0.580267,3.27524,0,0,3.25858,5
1774536472110,0.0695794,0.868164,-0.613526,2.46535,0.20648,2.56559,0,0,3.28754,5
1774536472123,0.0690918,0.861084,-0.623534,2.40464,-0.121809,1.87092,0,0,3.25411,5
1774536472137,0.0742184,0.867187,-0.621826,2.3817,-0.45768,0.909358,0,0,3.30358,5
1774536472150,0.0656744,0.858887,-0.621094,2.35118,-1.06809,-0.418521,0,0,3.36167,5
1774536472164,0.0742182,0.869628,-0.609376,2.3969,-1.4805,-1.35784,0,0,3.63669,5
1774536472177,0.0598155,0.858887,-0.621581,2.52659,-1.71732,-1.96123,0,0,3.28058,5
1774536472191,0.0578615,0.869628,-0.613038,2.64873,-1.2905,-1.62629,0,0,3.26388,5
1774536472204,0.037355,0.862061,-0.618896,2.4277,-0.313953,-0.016875,0,0,3.28141,5
1774536472218,0.0371094,0.863281,-0.622558,2.50374,0.434367,0.960855,0,0,3.2633,5
1774536472231,0.0554186,0.866455,-0.621338,2.37418,0.625763,1.77018,0,0,3.33754,5
1774536472245,0.0485845,0.854493,-0.622314,2.04613,0.51919,2.37344,0,0,3.55111,5
1774536472259,0.0537106,0.856933,-0.617188,1.96192,0.275053,2.66383,0,0,3.81682,5
1774536472272,0.0664054,0.85791,-0.61792,1.82456,0.229054,2.22944,0,0,3.27341,5
1774536472286,0.0637209,0.864501,-0.624267,1.33637,-0.205673,1.71807,0,0,3.24989,5
1774536472299,0.0688473,0.853272,-0.623535,1.25962,-0.434886,1.24475,0,0,3.27773,5
1774536472312,0.0668947,0.857422,-0.623535,0.901121,-0.824039,0.679954,0,0,3.31797,5
1774536472326,0.0512706,0.863037,-0.626709,0.771122,-0.694786,0.862413,0,0,3.29363,5
1774536472339,0.0559079,0.86084,-0.622803,0.39732,-0.717535,1.23627,0,0,3.2656,5
1774536472353,0.0532228,0.858399,-0.621826,0.236802,-0.488778,1.81621,0,0,3.30741,5
1774536472366,0.0500491,0.854737,-0.619629,-0.106527,0.0300161,2.04557,0,0,3.2661,5
1774536472380,0.0649404,0.85498,-0.626708,-0.198382,0.0991676,2.0458,0,0,3.57434,5
1774536472393,0.0659179,0.863281,-0.625244,-0.320489,0.328016,1.73314,0,0,3.30443,5
1774536472407,0.0666503,0.860108,-0.628906,-0.244351,0.114717,1.138,0,0,3.25058,5
1774536472420,0.0805654,0.87329,-0.619385,0.487818,-0.205787,0.290923,0,0,3.28256,5
1774536472434,0.0732427,0.865723,-0.616944,0.374159,-1.12122,-0.975834,0,0,3.2558,5
1774536472447,0.076904,0.868408,-0.617432,0.907864,-0.893357,-1.70919,0,0,3.54643,5
1774536472461,0.0676276,0.873535,-0.618896,1.03041,-1.17529,-2.32,0,0,3.26667,5
1774536472474,0.0686034,0.864258,-0.618896,1.1678,-1.54162,-2.50363,0,0,3.70445,5
1774536472488,0.0568856,0.864746,-0.625732,1.12218,-1.54198,-2.43518,0,0,3.26625,5
1774536472501,0.0507817,0.868408,-0.630615,1.03825,-1.68688,-1.9013,0,0,3.33249,5
1774536472515,0.0539549,0.871826,-0.623536,1.54148,-1.54976,-1.35169,0,0,3.53113,5
1774536472529,0.0422371,0.862794,-0.624268,1.51148,-0.832777,-0.306388,0,0,3.27684,5
1774536472542,0.0441893,0.859375,-0.631347,1.59534,-0.374504,0.930062,0,0,3.31463,5
1774536472555,0.0537103,0.862549,-0.629395,1.6183,0.312291,1.58713,0,0,3.27774,5
1774536472569,0.0627435,0.85791,-0.617921,1.4658,0.274847,1.64117,0,0,3.61172,5
1774536472583,0.0632324,0.856445,-0.637206,1.59529,0.251931,1.67935,0,0,3.26573,5
1774536472596,0.0732415,0.860107,-0.620851,1.60305,-0.0836342,1.02356,0,0,3.25576,5
1774536472609,0.0576183,0.863769,-0.619385,1.86234,-0.0839691,1.09916,0,0,3.28593,5
1774536472623,0.065185,0.858643,-0.625,1.98461,-0.259367,0.649304,0,0,3.25545,5
1774536472636,0.0637208,0.853272,-0.626709,1.82459,-0.549329,0.160793,0,0,3.29099,5
1774536472650,0.0668943,0.859375,-0.631591,1.73292,-0.656382,0.106924,0,0,3.54786,5
1774536472663,0.0566413,0.856934,-0.625977,1.90822,-0.908145,-0.205794,0,0,3.28737,5
1774536472677,0.0642085,0.863037,-0.629394,1.733,-1.02279,-0.099343,0,0,3.28752,5
1774536472691,0.0581059,0.857666,-0.625977,1.68707,-1.32031,-0.0687329,0,0,3.63782,5
1774536472704,0.0480964,0.864013,-0.631103,1.75566,-0.954564,0.289718,0,0,3.27776,5
1774536472717,0.062499,0.857666,-0.64453,1.88537,-0.954199,0.198564,0,0,3.26319,5
1774536472731,0.0441907,0.852539,-0.630372,1.67197,-0.900817,0.648406,0,0,3.2806,5
1774536472744,0.0527338,0.854736,-0.638915,1.23708,-0.519465,1.0454,0,0,3.2541,5
1774536472758,0.0522461,0.839357,-0.63794,0.893473,-0.374191,1.28221,0,0,3.33288,5
1774536472771,0.0563962,0.839111,-0.624269,0.565213,-0.0308773,1.3587,0,0,3.27132,5
1774536472785,0.0544435,0.846923,-0.631347,0.160709,-0.0610386,1.43504,0,0,3.77137,5
1774536472798,0.0661613,0.848389,-0.627686,-0.343008,0.022817,1.26734,0,0,3.27156,5
1774536472812,0.0651856,0.867919,-0.626221,-0.274877,-0.266886,0.794366,0,0,3.24495,5
1774536472825,0.060059,0.851808,-0.629883,-0.312939,-0.457825,0.481229,0,0,3.27571,5
1774536472839,0.0600586,0.852783,-0.624756,-0.488374,-0.534275,0.47329,0,0,3.27537,5
1774536472854,0.0500495,0.85498,-0.62915,-0.534305,-0.496221,0.366519,0,0,5.45164,5
1774536472868,0.0590814,0.853272,-0.630127,-0.648741,-0.473305,0.572313,0,0,3.30582,5
1774536472881,0.0615233,0.866454,-0.627197,-0.648855,-0.595298,0.122587,0,0,3.33426,5
1774536472895,0.0639647,0.850099,-0.62793,-0.809,-0.984344,-0.213405,0,0,3.3045,5
1774536472908,0.0649413,0.855468,-0.621827,-0.92355,-1.28215,-0.785688,0,0,3.28439,5
1774536472924,0.056153,0.844727,-0.627197,-0.96942,-1.07654,-0.786259,0,0,3.32476,5
1774536472937,0.0483404,0.868651,-0.625733,-0.725435,-0.451007,-0.0617924,0,0,3.26569,5
1774536472950,0.0522458,0.850099,-0.628662,-0.549794,-0.503764,-0.190711,0,0,3.33015,5
1774536472965,0.0502931,0.853515,-0.627197,-0.320839,-0.313168,0.114199,0,0,3.28458,5
1774536472978,0.0549313,0.856689,-0.621827,-0.03845,-0.198588,0.167885,0,0,3.32332,5
1774536472991,0.0600582,0.863037,-0.635741,0.526154,-0.12984,0.617871,0,0,3.30632,5
1774536473005,0.0456553,0.879393,-0.629639,0.831756,0.0608782,0.976741,0,0,3.33284,5
1774536473018,0.0854464,0.855959,-0.637695,0.496518,-0.632895,0.611052,0,0,3.3568,5
1774536473032,0.0954583,0.882322,-0.625489,1.10626,-2.41806,-1.84487,0,0,3.35702,5
1774536473048,0.0192924,0.860353,-0.63208,0.931472,-2.09955,-0.139109,0,0,5.21077,5
1774536473061,0.0451642,0.871337,-0.628174,1.64051,-0.795196,1.82247,0,0,3.28043,5
1774536473074,0.00317677,0.854249,-0.643309,1.58784,1.15073,4.7833,0,0,3.25086,5
1774536473088,0.0690872,0.877684,-0.643555,2.07585,1.76275,5.39633,0,0,3.26762,5
1774536473101,0.0800774,0.875733,-0.640381,1.87043,1.15328,4.32931,0,0,3.29932,5
1774536473114,0.079834,0.8667,-0.641357,1.25253,0.0392808,2.90982,0,0,3.2906,5
1774536473128,0.0710455,0.861329,-0.631348,0.931618,-1.47177,1.84076,0,0,3.33193,5
1774536473141,0.0520033,0.88159,-0.635986,1.04569,-1.89271,2.00747,0,0,3.31989,5
1774536473155,0.0627434,0.86133,-0.632324,0.923786,-1.99227,2.18303,0,0,3.75695,5
1774536473169,0.0576175,0.84546,-0.635254,0.93129,-2.2364,2.25184,0,0,3.34382,5
1774536473182,0.0620114,0.846435,-0.625245,1.19058,-2.0765,2.03076,0,0,3.30645,5
1774536473196,0.0695795,0.847412,-0.628174,0.840045,-1.87043,1.89327,0,0,3.31497,5
1774536473210,0.0668947,0.839844,-0.636718,0.435519,-1.61857,1.45845,0,0,4.66189,5
1774536473224,0.0805654,0.83667,-0.63086,0.130076,-1.63357,0.35225,0,0,3.31176,5
1774536473237,0.0793458,0.837402,-0.641113,-0.594696,-1.83949,-0.457207,0,0,3.28376,5
1774536473251,0.0891106,0.854491,-0.631104,-0.587793,-3.29625,-2.10522,0,0,3.27871,5
1774536473264,0.0581076,0.860351,-0.637939,-0.275122,-3.47311,-2.51867,0,0,3.27556,5
1774536473277,0.0124544,0.851075,-0.644775,-0.656108,-2.31413,-0.757485,0,0,3.26536,3
1774536473291,0.0292957,0.864745,-0.642334,-0.702244,-0.3226,1.41767,0,0,3.27225,3
1774536473304,0.0515121,0.859864,-0.625734,-1.03021,0.342847,2.2282,0,0,3.27152,3
1774536473318,0.0656728,0.860107,-0.635009,-1.44996,0.366389,2.06886,0,0,3.28286,3
1774536473331,0.0786124,0.856446,-0.63623,-1.69441,-0.441941,1.28323,0,0,3.2995,3
1774536473345,0.0637217,0.848877,-0.62671,-1.93106,-0.633397,0.863015,0,0,3.28582,3
1774536473358,0.0534675,0.849609,-0.640136,-2.20583,-0.603084,0.488923,0,0,3.66493,3
1774536473372,0.0568845,0.85083,-0.625978,-2.99158,-0.709817,0.8851,0,0,3.2665,3
1774536473385,0.0666497,0.868895,-0.625977,-1.92473,-0.923451,-0.0677504,0,0,3.29632,3
1774536473399,0.0498059,0.869629,-0.626953,-1.97705,-0.298334,0.579506,0,0,3.26047,3
1774536473412,0.0707993,0.889647,-0.634521,-0.0706068,-0.511238,-0.312086,0,0,3.28134,3
1774536473425,0.0361352,0.867921,-0.63623,0.610007,0.929858,1.28085,0,0,3.2743,3
1774536473439,0.0400388,0.877197,-0.633301,0.725076,2.18958,2.90677,0,0,3.27315,5
1774536473452,0.0568836,0.872315,-0.628662,2.197,2.99919,3.38121,0,0,3.26562,5
1774536473466,0.0546877,0.92236,-0.631347,4.52439,3.16777,3.9765,0,0,3.83835,5
1774536473480,0.0969209,0.954343,-0.650145,9.44547,2.0698,2.65781,0,0,3.2705,5
1774536473493,0.149166,1.10277,-0.687742,17.3509,-1.54601,3.59448,0,0,3.28508,5
1774536473508,0.0473704,2.09026,-0.857898,53.7041,-8.25284,1.00259,0,0,4.8477,5
1774536473521,0.421361,1.44633,-0.747566,77.2132,-11.3404,33.9976,0,0,3.28313,5
1774536473536,0.371341,2.61833,-0.848137,112.057,-31.171,6.11183,0,0,3.36987,5
1774536473549,0.292242,2.48634,-0.853515,174.045,-39.2362,15.9901,0,0,3.26797,5
1774536473564,0.375238,1.91581,-0.673597,210.391,-49.1428,13.9486,0,0,4.45539,5
1774536473577,0.343264,1.87012,-0.677734,241.175,-56.3211,13.1535,0,0,3.31308,5
1774536473591,0.316164,1.88501,-0.667481,250.121,-62.1774,17.1334,0,0,3.94113,5
1774536473605,0.393549,1.91138,-0.598394,250.13,-71.2047,17.0916,0,0,3.27802,5
1774536473618,0.130878,1.53933,-0.445811,250.13,-78.7787,-10.8881,0,0,3.29473,5
1774536473632,0.0556693,1.02396,-0.276135,250.13,-72.6016,-17.8099,0,0,3.26887,5
1774536473645,-0.241678,0.576203,0.629575,235.259,-61.2099,-57.9828,0,0,3.25999,5
1774536473660,-0.495832,-1.33654,0.581546,100.15,-0.419508,-75.2347,0,0,3.27904,5
1774536473673,-0.343761,0.279916,0.625241,1.33536,46.5027,-40.2487,0,0,3.26719,5
1774536473689,0.013891,0.419668,0.684566,-64.5678,77.7627,7.25788,0,0,4.93283,5
1774536473702,0.135245,0.806858,0.497572,-80.0914,86.6324,22.8089,0,0,3.30287,5
1774536473718,0.13208,0.542011,0.474367,-102.337,78.306,22.3287,0,0,5.9116,2
1774536473732,0.0315012,0.391124,0.409917,-135.692,71.808,14.6641,0,0,3.28115,2
1774536473746,0.0800747,0.411864,0.350102,-172.948,64.29,3.59884,0,0,3.9432,2
1774536473759,0.175286,0.473628,0.312991,-213.547,51.5242,-4.14494,0,0,3.26758,2
1774536473772,0.230953,0.608145,0.217292,-247.767,37.1975,-1.53696,0,0,3.30467,2
1774536473786,0.215089,0.823715,0.0808201,-250.135,26.9873,7.68544,0,0,3.28737,2
1774536473799,0.137701,1.00438,-0.105456,-250.137,22.0202,12.6668,0,0,3.26371,2
1774536473814,-0.00804644,1.14062,-0.311753,-250.137,23.3574,8.14192,0,0,3.28441,2
1774536473828,-0.241927,1.32616,-0.546859,-250.137,36.6966,-1.18153,0,0,3.28599,2
1774536473841,-0.382559,1.54002,-0.736071,-250.137,56.9645,-22.6046,0,0,3.29036,2
1774536473854,-0.379883,1.73754,-0.931627,-250.137,78.0781,-51.7571,0,0,3.32845,5
1774536473869,-0.200208,1.77221,-1.08861,-250.137,91.01,-78.8813,0,0,4.21989,5
1774536473882,0.134986,1.67237,-1.17309,-233.947,90.6797,-86.3742,0,0,3.29045,5
1774536473896,0.418193,1.57789,-1.19922,-217.459,81.063,-74.2259,0,0,3.29543,5
1774536473909,0.650863,1.51929,-1.21973,-203.144,61.9504,-59.4499,0,0,3.27297,5
1774536473923,0.767326,1.31325,-1.22021,-197.479,40.0143,-40.027,0,0,3.2611,5
1774536473938,0.817379,1.02883,-1.19971,-206.365,19.3946,-6.26274,0,0,4.98583,5
1774536473951,0.727301,1.13354,-1.32128,-200.731,4.99911,30.3375,0,0,3.25834,5
1774536473965,0.50734,1.20971,-1.47143,-173.226,-5.79837,63.2724,0,0,3.9548,5
1774536473979,0.116482,1.07935,-1.52539,-134.992,-11.1397,70.0695,0,0,3.26334,5
1774536473992,-0.115951,0.826922,-1.50488,-104.633,-13.715,46.7409,0,0,3.66402,5
1774536474006,-0.105714,0.773441,-1.46558,-75.3804,-20.1157,7.7565,0,0,3.26608,5
1774536474019,0.0595587,0.872308,-1.42383,-40.7445,-28.6632,-13.2614,0,0,3.24819,5
1774536474033,0.169426,0.86377,-1.28858,-8.70376,-36.4655,-10.7659,0,0,3.61386,3
1774536474046,0.136233,0.791997,-1.08156,9.87457,-38.9136,-6.65296,0,0,3.26556,3
1774536474059,-0.0290412,1.33102,0.064617,249.89,-83.1543,-23.609,0,0,3.27393,3
1774536474073,-0.611287,3.50205,-0.839048,225.696,-86.3175,-53.23,0,0,3.30243,3
1774536474086,-0.403335,2.28915,-0.263712,206.66,-32.1686,-41.3935,0,0,3.28423,3
1774536474100,-0.213148,1.27986,-0.200444,191.679,4.58161,-26.5034,0,0,3.27891,3
1774536474113,-0.122077,0.934106,-0.299065,177.754,15.5082,-18.3669,0,0,3.26565,3
1774536474127,0.129621,0.81495,-0.377436,161.062,6.69583,-14.8585,0,0,3.77787,3
1774536474140,0.103517,0.83496,-0.426022,145.191,-11.1196,-7.96109,0,0,3.25897,3
1774536474154,-0.016349,0.826417,-0.47778,130.496,-15.5452,4.30835,0,0,3.24784,3
1774536474167,-0.0544407,0.815186,-0.513913,112.827,-10.7376,14.3945,0,0,3.27589,3
1774536474180,-0.0507815,0.834471,-0.52661,97.359,-0.544534,20.4367,0,0,3.26949,3
1774536474194,0.0422298,0.899165,-0.53125,85.4546,4.91058,19.8555,0,0,3.2953,3
1774536474207,0.0407716,0.940183,-0.492923,81.401,8.2867,21.914,0,0,3.25575,2
1774536474221,0.0915492,0.946777,-0.465822,78.3694,5.3312,22.3583,0,0,3.30458,3
1774536474234,0.17309,0.921388,-0.479003,77.3217,2.8193,20.1396,0,0,3.28226,2
1774536474248,0.122562,0.896486,-0.515378,75.9174,2.57277,15.3635,0,0,3.62241,2
1774536474261,0.175778,0.873781,-0.585444,71.2489,0.368614,6.26863,0,0,3.28356,2
1774536474274,0.164796,0.798589,-0.619627,63.3285,-3.94226,-3.17377,0,0,3.27354,5
1774536474288,0.148683,0.788819,-0.716302,50.9665,-10.36,-9.79491,0,0,3.29362,5
1774536474301,0.0456615,0.81201,-0.620856,40.2092,-7.09486,-9.58799,0,0,3.257,5
1774536474315,0.0610341,0.849851,-0.60547,33.8384,-5.03259,-7.68129,0,0,3.27384,5
1774536474328,0.0129428,0.875242,-0.589601,31.041,-2.03353,-3.55374,0,0,3.26556,5
1774536474342,0.0144042,0.83887,-0.633542,27.8581,1.10374,1.65891,0,0,3.65223,5
1774536474355,0.037596,0.838379,-0.633545,22.5397,2.57105,5.0348,0,0,3.24765,5
1774536474368,0.0707985,0.809816,-0.632813,18.4926,3.16734,6.15156,0,0,3.26586,5
1774536474382,0.0700684,0.800538,-0.642089,12.2048,3.93816,7.17455,0,0,3.27147,5
1774536474395,0.0900865,0.881098,-0.621095,9.33874,3.70253,6.64938,0,0,3.29308,5
1774536474408,0.115965,0.83057,-0.613038,7.58953,2.86343,4.6356,0,0,3.27497,5
1774536474422,0.138182,0.882321,-0.612549,6.80231,0.902722,1.81198,0,0,3.28232,5
1774536474436,0.135254,0.846926,-0.610352,5.32972,-1.3489,-1.89706,0,0,3.73706,5
1774536474449,0.122315,0.886228,-0.605469,4.44363,-3.35677,-3.7615,0,0,3.27391,5
1774536474463,0.104738,0.875245,-0.617431,4.95369,-4.31965,-5.8605,0,0,3.27276,5
1774536474476,0.080324,0.856447,-0.626464,3.89419,-4.69428,-5.71007,0,0,3.29445,5
1774536474489,0.0764163,0.888425,-0.623047,4.11428,-3.99307,-4.80243,0,0,3.34082,5
1774536474504,0.0681158,0.854983,-0.616456,4.12976,-3.76359,-4.22195,0,0,3.3078,5
1774536474517,0.0468765,0.873046,-0.616211,3.81711,-2.11615,-1.68955,0,0,3.24652,5
1774536474531,0.094235,0.907957,-0.610108,5.42587,-1.61882,-2.12171,0,0,3.24708,5
1774536474544,0.0895999,0.891603,-0.614013,6.23583,-2.51056,-3.06013,0,0,3.24754,5
1774536474557,0.110838,0.867922,-0.61499,6.33578,-4.02139,-5.35648,0,0,3.24532,5
1774536474571,0.115234,0.853517,-0.618652,6.46552,-5.53284,-7.38728,0,0,3.2535,5
1774536474584,0.0886249,0.839845,-0.623535,5.54291,-6.12155,-8.63997,0,0,3.3575,5
1774536474599,0.0605488,0.848632,-0.631103,4.88615,-5.86285,-8.93101,0,0,3.40674,5
1774536474613,0.0502937,0.873289,-0.619874,4.7406,-5.64907,-8.52712,0,0,3.27045,5
1774536474626,0.0817849,0.875,-0.633544,4.70995,-5.94627,-8.66399,0,0,3.33312,3
1774536474640,0.0693368,0.862306,-0.619874,4.4964,-5.53476,-8.11505,0,0,3.32126,3
1774536474654,0.0676271,0.862549,-0.614258,6.14339,-4.97003,-8.16789,0,0,3.98507,3
1774536474667,0.0329614,0.866943,-0.629149,6.58734,-4.61867,-6.42922,0,0,3.33839,3
1774536474681,0.0537095,0.870849,-0.626465,7.67067,-3.25327,-5.00143,0,0,3.28326,3
1774536474694,0.0434577,0.879394,-0.634765,8.04543,-3.22141,-4.35942,0,0,3.27393,3
1774536474708,0.0595692,0.882324,-0.61548,8.88466,-4.4034,-4.70195,0,0,3.25925,3
1774536474722,0.0666499,0.859865,-0.630614,10.159,-5.06804,-5.67079,0,0,3.28012,3
1774536474735,0.0393086,0.873778,-0.634277,10.2213,-5.74741,-5.33621,0,0,3.2795,3
1774536474749,0.0158708,0.875488,-0.65454,9.6113,-3.78822,-2.53715,0,0,4.02335,3
1774536474763,0.0166015,0.880859,-0.642335,10.0911,-2.46697,0.584668,0,0,3.34115,3
1774536474776,0.0285636,0.86255,-0.650146,9.39001,-1.22262,3.25687,0,0,3.32876,3
1774536474789,0.0581034,0.865967,-0.639405,9.03089,-0.893459,3.83911,0,0,3.27762,3
1774536474803,0.113033,0.898923,-0.622804,7.757,-2.86063,5.30388,0,0,3.26012,3
1774536474816,0.0202702,1.04491,-0.659177,18.7753,-2.95411,4.45123,0,0,3.25758,3
1774536474830,0.0607882,1.00659,-0.648194,18.0923,-5.92833,5.44938,0,0,3.23889,3
1774536474843,0.187003,1.04394,-0.691403,17.1155,-10.0417,10.026,0,0,3.27404,3
1774536474856,-0.124734,1.50632,-0.801018,37.9181,-1.40557,16.4516,0,0,3.25215,3
1774536474870,-0.0903344,1.62963,-0.742436,66.6964,2.66006,20.5837,0,0,3.25447,3
1774536474883,0.00560852,1.18192,-0.745849,70.4085,6.00429,42.2608,0,0,3.27378,3
1774536474896,-0.0566363,1.5034,-0.822504,84.7185,3.59782,23.1184,0,0,3.23765,3
1774536474910,-0.0568847,1.55102,-0.755864,116.533,8.04136,27.0495,0,0,3.43604,3
1774536474923,0.0746978,1.26564,-0.707767,133.624,6.96291,23.3625,0,0,3.27456,3
1774536474937,0.191642,1.20459,-0.710449,148.275,2.79043,20.316,0,0,3.32232,5
1774536474950,0.255367,1.55613,-0.756589,171.839,-3.65005,14.4029,0,0,3.24754,5
1774536474963,0.371086,1.79368,-0.758057,204.044,-12.6399,10.8814,0,0,3.29873,5
1774536474977,0.470452,1.66993,-0.741456,235.236,-26.5129,-1.58297,0,0,3.26163,5
1774536474990,0.435305,1.93187,-0.835443,250.115,-38.5681,-7.31488,0,0,3.2668,5
1774536475003,0.417482,2.24949,-0.859617,250.13,-50.8732,-16.3879,0,0,3.25623,5
1774536475017,0.390871,2.09864,-0.845216,250.13,-59.8765,-17.4264,0,0,3.25719,5
1774536475030,0.425291,1.89406,-0.872801,250.13,-64.6822,-15.5515,0,0,3.26699,5
1774536475043,0.517816,1.44071,-0.99877,250.13,-74.0746,-9.15906,0,0,3.24126,5
1774536475057,0.167017,1.81736,-1.18553,250.13,-68.9212,-21.2932,0,0,3.24869,5
1774536475070,0.393783,2.11619,-0.919452,250.13,-62.6094,8.2758,0,0,3.25499,5
1774536475084,0.260507,1.90138,-0.223437,250.13,-61.9777,30.4664,0,0,3.64528,5
1774536475098,0.39086,2.20481,0.833666,250.13,-76.802,16.9753,0,0,3.84015,5
1774536475111,0.134539,-3.99957,0.250773,250.13,-61.1149,-17.0347,0,0,3.27058,3
1774536475125,-0.585155,-0.593012,0.311519,64.4527,-28.5592,-6.74311,0,0,3.34147,3
1774536475138,-0.444834,0.134715,-0.265829,-25.6504,11.8833,-11.4533,0,0,3.27386,3
1774536475151,-0.146994,0.651819,-0.124766,-52.0957,27.0993,-12.6553,0,0,3.31167,3
1774536475165,0.0224491,0.620119,-0.231194,-58.1619,26.2375,-17.7125,0,0,3.26524,3
1774536475178,-0.0497996,0.366473,-0.0805769,-69.7137,21.8593,-19.7766,0,0,3.31056,3
1774536475192,-0.032716,0.110858,0.0192801,-96.7897,20.8865,-25.9023,0,0,3.27889,3
1774536475205,0.0146451,-0.165508,0.141105,-144.555,16.7751,-38.3463,0,0,3.24889,3
1774536475218,0.0576142,-0.211911,0.23803,-205.702,8.70272,-49.0733,0,0,3.27576,3
1774536475232,0.120845,0.115944,0.214357,-250.093,3.63102,-42.6781,0,0,3.24887,3
1774536475245,0.170651,0.430642,0.122565,-250.137,2.79473,-22.6002,0,0,3.2893,3
1774536475258,0.173828,0.595936,-0.00877987,-250.137,5.50874,-0.609755,0,0,3.25932,3
1774536475272,0.109135,0.571535,-0.0861762,-250.137,8.31018,10.1953,0,0,3.30436,2
1774536475286,0.106201,0.582275,-0.177484,-250.137,9.92968,6.26347,0,0,3.7158,2
1774536475299,0.110107,0.709464,-0.306876,-250.137,11.67,1.32554,0,0,3.66178,5
1774536475313,0.143796,0.804437,-0.47533,-250.137,16.7201,5.53778,0,0,3.28717,5
1774536475326,0.182614,0.905266,-0.596671,-250.137,25.1214,19.711,0,0,3.2523,5
1774536475340,0.188232,1.06713,-0.708977,-250.137,35.135,37.303,0,0,3.29034,5
1774536475353,0.12476,1.33128,-0.865956,-250.137,46.5382,46.0142,0,0,3.25954,5
1774536475368,0.00611182,1.43578,-0.960687,-250.137,59.1172,36.7116,0,0,4.80659,5
1774536475381,-0.112296,1.33375,-0.951905,-250.137,74.6181,17.6221,0,0,3.25862,5
1774536475396,-0.143797,1.42577,-0.996579,-250.137,92.3563,3.05272,0,0,4.5658,5
1774536475409,-0.0639704,1.44507,-1.06933,-250.137,104.835,-5.62492,0,0,3.27376,5
1774536475423,0.142808,1.51171,-1.18652,-250.137,103.307,-14.5788,0,0,3.24223,5
1774536475436,0.415997,1.66723,-1.3618,-250.137,83.5236,-18.4923,0,0,3.27676,5
1774536475449,0.571766,1.69311,-1.50487,-250.137,52.5805,-16.7498,0,0,3.27347,5
1774536475464,0.499517,1.66065,-1.61034,-250.137,24.4327,-1.37414,0,0,3.29688,5
1774536475478,0.391121,1.57398,-1.67016,-250.137,10.6702,14.3888,0,0,3.27711,5
1774536475491,0.362063,1.4214,-1.7351,-237.905,4.06004,20.4672,0,0,3.66461,5
1774536475505,0.507314,1.28126,-1.76953,-202.272,-2.22273,28.9,0,0,3.2896,5
1774536475518,0.293228,1.24927,-1.885,-155.322,2.88802,78.3323,0,0,3.271,5
1774536475532,-0.0397716,1.05519,-1.91333,-105.515,16.3301,116.176,0,0,3.28937,5
1774536475545,-0.472382,0.814958,-1.87476,-62.3332,24.999,91.6047,0,0,3.25787,5
1774536475558,-0.501951,0.550067,-1.78345,-25.8304,21.3853,11.538,0,0,3.27426,5
1774536475572,-0.146509,0.592526,-1.75171,9.02625,8.08199,-42.7931,0,0,3.27369,5
1774536475585,0.25046,0.653316,-1.64429,45.1395,-2.90505,-29.9289,0,0,3.29297,5
1774536475600,3.99962,3.99964,-3.06631,84.5103,-77.2692,-50.9103,0,0,3.29474,5
1774536475614,2.48912,1.1462,-0.952296,206.687,-104.629,-91.2879,0,0,4.00391,5
1774536475627,0.38711,1.02589,-0.064027,250.086,-79.5746,-92.1061,0,0,3.29978,5
1774536475641,-0.591484,0.677026,-0.344707,250.13,-21.3559,-60.8328,0,0,3.64665,5
1774536475655,-0.10355,0.773431,-0.35205,241.817,3.27311,-49.3474,0,0,3.3046,5
1774536475668,0.0305082,0.912588,-0.444574,214.775,-3.45892,-40.1085,0,0,3.26341,3
1774536475682,-0.0329545,0.855229,-0.547844,187.882,-15.0419,-18.35,0,0,3.28241,3
1774536475695,-0.274397,0.807865,-0.64428,159.982,-17.4937,4.0082,0,0,3.28156,3
1774536475709,-0.129893,0.806152,-0.599368,136.726,-8.68056,19.1909,0,0,3.3676,3
1774536475722,-0.10425,0.818114,-0.619872,113.939,2.91971,29.7452,0,0,3.27021,3
1774536475736,-0.000983791,0.847654,-0.588381,98.2371,10.9614,34.5372,0,0,3.78348,3
1774536475749,-0.0727489,0.898434,-0.606688,89.4134,21.1272,37.0585,0,0,3.26854,3
1774536475763,0.166975,0.718763,-0.620116,77.1649,11.3533,29.4122,0,0,3.2691,3
1774536475776,0.0339449,0.626715,-0.647215,57.5082,12.945,21.6947,0,0,3.27791,3
1774536475790,0.224352,0.780263,-0.634766,47.2545,9.24797,16.509,0,0,3.26804,3
1774536475803,0.213624,0.717045,-0.63208,35.1037,3.71545,-1.79088,0,0,3.37369,3
1774536475817,0.179934,0.685061,-0.677975,20.9836,-3.52712,-16.4739,0,0,3.27647,5
1774536475830,0.16919,0.802238,-0.640383,12.0242,-9.36821,-21.3768,0,0,3.31884,5
1774536475843,0.0959524,0.793458,-0.625733,4.42744,-10.4951,-21.8087,0,0,3.28695,5
1774536475857,0.0554228,0.891839,-0.626953,5.59425,-9.95474,-20.5432,0,0,3.59126,5
1774536475871,0.0146513,0.922361,-0.621827,6.13686,-7.51389,-16.8281,0,0,3.27699,5
1774536475884,0.0222163,0.894533,-0.621826,7.73886,-4.95675,-11.8142,0,0,3.25589,5
1774536475897,-0.032711,0.871828,-0.625488,6.90923,-1.03445,-4.01542,0,0,3.30876,5
1774536475911,0.0134245,0.925533,-0.622315,8.36496,3.71281,2.93962,0,0,3.25654,5
1774536475925,0.049558,0.865971,-0.616455,7.20726,4.86907,6.69853,0,0,4.42431,5
1774536475939,0.0659168,0.869385,-0.612793,7.63316,4.46605,7.53352,0,0,3.26686,5
1774536475953,0.0915509,0.831057,-0.603028,6.27616,2.50578,5.79563,0,0,3.7793,5
1774536475966,0.106444,0.852782,-0.611083,5.88589,0.719342,3.28495,0,0,3.27528,5
1774536475979,0.095948,0.851807,-0.620849,4.30692,-1.36433,0.247309,0,0,3.26199,5
1774536475993,0.0988767,0.877928,-0.618408,4.28247,-3.38729,-2.10452,0,0,3.28599,5
1774536476006,0.0856943,0.868653,-0.625244,4.18331,-4.71623,-3.78458,0,0,3.28399,5
1774536476020,0.0563985,0.864502,-0.614259,4.22896,-4.76331,-3.33633,0,0,3.29426,5
1774536476033,0.0378431,0.866455,-0.613281,4.08411,-3.28392,-1.50565,0,0,3.26041,5
1774536476047,0.0576158,0.855714,-0.627196,4.17548,-2.39021,-2.07577,0,0,3.30462,5
1774536476060,0.0322283,0.863281,-0.620362,3.68751,-1.75636,-2.1526,0,0,3.26837,5
1774536476074,0.112055,0.82178,-0.610596,2.69565,-2.90725,-4.17355,0,0,3.57697,5
1774536476087,0.0661653,0.849607,-0.625243,2.65653,-3.59473,-5.24321,0,0,3.27826,5
1774536476100,0.083739,0.877195,-0.621582,3.02254,-3.96909,-5.70946,0,0,3.27543,5
1774536476114,0.0922846,0.822758,-0.627441,2.16879,-6.05898,-7.65455,0,0,3.29154,5
1774536476127,0.0859379,0.846434,-0.627197,3.82278,-6.28222,-8.39621,0,0,3.25517,5
1774536476141,0.0761726,0.886716,-0.620118,4.38112,-7.06792,-8.93839,0,0,3.36534,5
1774536476154,0.0554214,0.879883,-0.608643,3.86311,-6.92381,-8.51188,0,0,3.46306,5
1774536476168,0.0483403,0.869141,-0.634031,5.16664,-6.64913,-8.38181,0,0,3.75232,5
1774536476182,0.0131861,0.900877,-0.642333,6.63212,-6.06166,-8.5037,0,0,3.27978,5
1774536476195,0.0288075,0.901123,-0.639893,7.40381,-5.17646,-7.01675,0,0,3.27639,5
1774536476208,0.0278321,0.892579,-0.633301,7.77825,-4.08506,-4.62071,0,0,3.27678,3
1774536476222,0.0268555,0.891113,-0.64038,8.20568,-2.7113,-1.89585,0,0,3.25713,3
1774536476235,0.0380852,0.890137,-0.644043,9.54828,-3.02259,-0.665351,0,0,3.29482,3
1774536476249,0.0605453,0.893799,-0.652831,6.36196,-2.74837,3.4234,0,0,3.26315,3
1774536476262,0.0959448,0.883302,-0.649903,4.35315,-3.69371,6.88967,0,0,3.59663,3
1774536476276,0.118163,0.911619,-0.608645,12.1678,-3.6489,6.35931,0,0,3.27297,3
1774536476289,0.164303,0.962155,-0.671871,10.8715,-8.38458,13.306,0,0,3.25106,3
1774536476302,0.310537,1.23802,-0.668213,21.0128,-9.93738,19.368,0,0,3.31821,3
1774536476316,-0.110078,1.48851,-0.803457,49.4144,0.859443,34.0159,0,0,3.25949,3
1774536476330,0.0295312,0.997593,-0.719244,65.5106,4.05025,39.0942,0,0,3.55758,3
1774536476343,-0.023922,1.40744,-0.794672,78.6205,5.94467,37.963,0,0,3.29032,3
1774536476357,0.0302696,1.79245,-0.781495,110.373,5.67965,22.3744,0,0,3.43008,3
1774536476370,-0.00927458,1.41018,-0.745364,136.783,4.85578,26.4082,0,0,3.27658,3
1774536476384,-0.0451635,1.27906,-0.716067,153.952,6.38016,22.5611,0,0,3.65139,5
1774536476397,0.00634405,1.20997,-0.718262,168.077,6.3588,26.233,0,0,3.28108,5
1774536476411,0.0771435,1.25439,-0.716553,185.753,5.19963,19.7164,0,0,3.27773,5
1774536476424,0.206534,1.73239,-0.787349,215.794,1.36261,23.6297,0,0,3.28849,5
1774536476438,0.20874,2.02561,-0.769044,250.096,-4.23868,21.117,0,0,3.26363,5
1774536476451,0.376209,2.32102,-0.780273,250.13,-13.7386,23.0057,0,0,3.36171,5
1774536476465,0.297125,2.36059,-0.803221,250.13,-23.4636,17.0212,0,0,3.27619,5
1774536476478,0.182869,2.1255,-0.84448,250.13,-28.453,11.822,0,0,3.77935,5
1774536476492,0.11231,2.15796,-0.872801,250.13,-21.8234,13.4335,0,0,3.27852,5
1774536476505,0.15405,1.77688,-0.987541,250.13,-23.9597,45.7006,0,0,3.38341,5
1774536476519,0.0324792,2.08592,-0.924565,250.13,-3.34121,66.0865,0,0,3.345,5
1774536476532,0.125238,1.91578,-0.389442,250.13,10.3604,125.185,0,0,3.275,5
1774536476546,0.0668986,2.08519,0.130091,250.13,5.27226,169.391,0,0,3.30415,5
1774536476559,-0.293676,1.2796,1.82727,250.13,-6.75897,166.072,0,0,3.27849,5
1774536476573,-0.271242,-3.99963,0.672932,185.545,-36.3979,66.9997,0,0,3.30495,5
1774536476586,-0.584695,-1.32563,0.0359333,49.7235,-32.4848,-35.9125,0,0,3.26969,5
1774536476600,-0.70922,-0.280347,0.165274,-73.4113,7.0216,-89.1453,0,0,3.57361,5
1774536476613,-0.241488,0.260216,0.0136825,-143.419,28.4366,-88.0698,0,0,3.31239,5
1774536476627,0.183808,0.535137,-0.0661565,-170.942,28.8164,-68.4166,0,0,3.25723,1
1774536476640,0.164064,0.0642419,0.218486,-210.327,23.9285,-30.046,0,0,3.29163,1
1774536476653,0.204831,0.0180696,0.268307,-250.098,18.6465,7.39008,0,0,3.28163,1
1774536476667,0.243161,0.0764119,0.287596,-250.137,0.910848,15.3127,0,0,3.28671,1
1774536476684,0.231202,0.398415,0.230473,-250.137,-29.0464,3.42409,0,0,5.29977,1
1774536476697,0.154791,0.754614,0.0512821,-250.137,-54.0437,-0.0423386,0,0,3.28469,1
1774536476711,0.0915572,0.795896,-0.0151321,-250.137,-69.6333,3.67568,0,0,3.37498,1
1774536476725,0.024907,0.891351,-0.0922798,-250.137,-76.0089,13.7762,0,0,3.53973,5
1774536476738,-0.0683528,0.969477,-0.19677,-250.137,-73.4682,24.943,0,0,3.27663,5
1774536476751,-0.0961895,1.09423,-0.323722,-250.137,-67.4259,28.1266,0,0,3.255,5
1774536476765,-0.110351,1.21947,-0.470937,-250.137,-61.9597,25.8649,0,0,3.27163,5
1774536476778,-0.114013,1.18067,-0.557123,-250.137,-53.7258,26.1295,0,0,3.23612,5
1774536476792,-0.157224,1.14331,-0.579588,-250.137,-40.9441,26.4424,0,0,3.29876,5
1774536476805,-0.26342,1.26781,-0.65893,-250.137,-20.0285,20.1895,0,0,3.26289,2
1774536476819,-0.352533,1.4929,-0.850084,-250.137,8.88714,8.40109,0,0,3.80578,2
1774536476832,-0.386228,1.63939,-0.982901,-250.137,41.639,-9.66134,0,0,3.24919,2
1774536476846,-0.331547,1.77538,-1.16112,-250.137,78.589,-21.0116,0,0,3.28632,1
1774536476859,-0.0864429,1.80249,-1.38353,-250.137,111.746,-14.2129,0,0,3.27589,1
1774536476873,0.183087,1.77637,-1.65306,-250.137,129.334,7.57366,0,0,3.34832,1
1774536476886,0.209471,1.78394,-1.85863,-250.137,134.224,29.2226,0,0,3.30371,1
1774536476899,0.122076,1.55373,-1.92993,-242.71,128.25,25.1262,0,0,3.27715,1
1774536476913,0.0693396,1.41017,-1.95386,-218.322,109.69,-9.65991,0,0,3.3165,5
1774536476926,0.382302,1.32203,-2.00464,-187.901,74.4932,-51.9196,0,0,3.2735,5
1774536476940,1.04536,1.10963,-2.08911,-150.686,25.1028,-49.9562,0,0,3.57398,5
1774536476953,1.23363,0.832783,-2.2495,-116.103,-24.3247,11.9839,0,0,3.27795,5
1774536476967,0.803741,0.765874,-2.2959,-74.4004,-58.2104,76.0047,0,0,3.27387,5
1774536476980,0.103565,0.812497,-2.26807,-23.3335,-76.7525,92.8076,0,0,3.28008,5
1774536476994,-0.459189,0.672373,-2.12965,21.7794,-70.9447,48.1744,0,0,3.27021,5
1774536477007,0.787755,0.0684017,0.172202,249.902,-132.892,-55.0953,0,0,3.39636,5
1774536477021,-1.16051,2.07774,-0.184789,250.13,-86.3442,-38.4136,0,0,3.27239,5
1774536477035,-0.0891863,2.16064,0.0549149,250.13,-49.3499,-49.508,0,0,3.64222,5
1774536477048,-0.238759,1.28693,-0.354219,250.13,-17.9474,-34.9153,0,0,3.27663,3
1774536477061,-0.163091,0.841096,-0.494619,227.953,0.645548,-22.8289,0,0,3.25258,3
1774536477075,0.252412,0.698985,-0.559078,199.708,-12.1475,-26.4773,0,0,3.27719,3
1774536477088,-0.116918,0.743649,-0.614986,163.563,-14.4481,-3.28271,0,0,3.27449,3
1774536477102,-0.0939957,0.715578,-0.651365,137.949,-1.37947,12.4118,0,0,3.30493,3
1774536477115,-0.0517608,0.745603,-0.619143,112.949,7.98301,14.9212,0,0,3.27471,3
1774536477129,-0.00220073,0.682377,-0.655515,90.4042,15.3209,15.1143,0,0,3.6605,3
1774536477142,0.0527305,0.430682,-0.731684,62.5012,14.1843,16.8227,0,0,3.26908,3
1774536477156,-0.00316992,0.769752,-0.623787,53.2535,12.6351,14.0333,0,0,3.25462,2
1774536477169,0.0764104,0.880119,-0.56104,46.3733,10.0026,13.5425,0,0,3.27808,2
1774536477183,0.101805,0.845706,-0.600339,40.9444,7.68171,5.00853,0,0,3.35367,2
1774536477196,0.189447,0.667249,-0.650387,29.2788,0.968539,-6.71348,0,0,3.44389,2
1774536477210,0.117193,0.700925,-0.628664,16.6005,-3.49173,-14.4808,0,0,3.29715,5
1774536477223,0.0876486,0.786615,-0.612062,8.91607,-6.47031,-17.2186,0,0,3.42778,5
1774536477237,-0.0165943,0.859858,-0.609619,5.65212,-4.71168,-13.4465,0,0,3.26708,5
1774536477250,-0.0126956,0.904782,-0.599854,3.2543,-4.20661,-10.3924,0,0,3.6335,5
1774536477264,0.0100082,0.960934,-0.613524,7.39281,-2.54365,-6.25604,0,0,3.2835,5
1774536477277,-0.0312471,0.923098,-0.618408,8.40357,0.439768,-0.951864,0,0,3.26093,5
1774536477291,0.00170668,0.931884,-0.606202,9.22818,3.64565,5.58889,0,0,3.29891,5
1774536477304,0.0197741,0.892825,-0.59961,9.43491,7.05003,8.58479,0,0,3.27806,5
1774536477317,0.0556616,0.846195,-0.602051,8.44374,7.74739,9.86895,0,0,3.29515,5
1774536477331,0.0729968,0.903316,-0.604736,7.85555,7.40492,10.7396,0,0,3.27252,5
1774536477345,0.0822747,0.852787,-0.594971,6.65769,4.5906,8.16288,0,0,3.69102,5
1774536477358,0.0864255,0.884763,-0.600341,6.60311,1.89582,4.93452,0,0,3.27754,5
1774536477371,0.0978996,0.854983,-0.600098,5.70319,-1.08862,1.75127,0,0,3.45884,5
1774536477385,0.0900884,0.867919,-0.593018,5.58028,-2.86082,-0.196527,0,0,3.27982,5
1774536477398,0.0766611,0.851808,-0.609862,5.58778,-3.76246,-1.16697,0,0,3.29176,5
1774536477412,0.0471212,0.855957,-0.59961,4.69555,-2.62709,-0.687502,0,0,3.30984,5
1774536477425,0.0361336,0.839845,-0.613769,4.09221,-1.80235,-0.03119,0,0,3.27586,5
1774536477439,0.0539538,0.866453,-0.61084,3.93146,-1.91592,-0.686368,0,0,3.64108,5
1774536477453,0.0629876,0.861817,-0.605713,3.3441,-2.34308,-0.86242,0,0,3.2766,5
1774536477466,0.0739738,0.865234,-0.599122,3.27488,-2.8392,-1.79296,0,0,3.25049,5
1774536477479,0.0654303,0.87622,-0.621092,3.39682,-3.51841,-2.53361,0,0,3.28041,5
1774536477493,0.0649414,0.873779,-0.616944,3.15292,-4.08341,-2.03104,0,0,3.26006,5
1774536477506,0.0314965,0.852785,-0.60669,3.46534,-4.00008,-1.48147,0,0,3.28821,5
1774536477520,0.0224616,0.859619,-0.620116,3.54191,-4.1754,-0.192128,0,0,3.2743,5
1774536477533,0.0656708,0.881346,-0.608399,3.90041,-4.54924,-0.518758,0,0,3.31515,5
1774536477546,0.0688474,0.845706,-0.607666,6.32582,-4.70976,-0.92326,0,0,3.27145,5
1774536477560,0.0859363,0.909908,-0.615966,8.21948,-5.66317,-2.5785,0,0,3.60852,5
1774536477574,0.0556662,0.896485,-0.61377,9.60167,-6.17506,-3.35037,0,0,3.27689,5
1774536477587,0.0978974,0.929685,-0.612061,12.2035,-7.06018,-5.02123,0,0,3.26669,5
1774536477601,0.0693379,0.906496,-0.620361,15.0811,-7.15258,-4.15354,0,0,3.27832,3
1774536477614,0.0629887,0.887208,-0.626709,15.5644,-8.81513,-2.71136,0,0,3.2555,3
1774536477627,0.0188019,0.884766,-0.644042,16.846,-7.33735,-0.0484618,0,0,3.2808,3
1774536477641,-0.00903125,1.03417,-0.656005,16.7101,-8.32726,-3.66051,0,0,3.27321,3
1774536477655,0.218246,0.863049,-0.638673,19.135,-5.2016,14.1959,0,0,3.80495,3
1774536477668,-0.09739,1.13841,-0.703365,29.2876,-1.49988,15.3347,0,0,3.27047,3
1774536477682,-0.0224662,0.915055,-0.691895,40.0656,2.80486,19.1184,0,0,3.25613,3
1774536477695,-0.0478498,0.982173,-0.71411,37.8267,6.26372,27.1218,0,0,3.28084,3
1774536477708,-0.129877,1.19701,-0.729003,49.027,13.9923,37.2494,0,0,3.40802,3
1774536477726,-0.0336981,1.32592,-0.768796,69.0868,14.6635,31.0749,0,0,7.62339,3
1774536477740,0.0844644,1.36133,-0.713383,90.879,13.9092,30.1002,0,0,3.37571,5
1774536477753,0.15356,1.33423,-0.723144,112.131,9.60735,26.0498,0,0,3.38382,5
1774536477767,0.160888,1.406,-0.716553,132.422,5.61468,23.9487,0,0,3.28471,5
1774536477780,0.248529,1.45166,-0.697999,154.596,-0.352817,17.373,0,0,3.3276,5
1774536477794,0.229494,1.64989,-0.757808,181.546,-5.63594,19.944,0,0,3.28262,5
1774536477808,0.249754,1.68091,-0.751709,215.516,-13.2138,14.3338,0,0,3.56769,5
1774536477821,0.268309,1.93968,-0.791013,249.439,-20.7329,14.2672,0,0,3.30336,5
1774536477835,0.192388,2.21556,-0.823728,250.129,-27.5886,15.3577,0,0,3.26715,5
1774536477848,0.070321,2.2417,-0.901118,250.13,-26.8023,18.9049,0,0,3.28961,5
1774536477861,0.166985,1.86843,-0.806403,250.13,-25.9703,18.7025,0,0,3.26471,5
1774536477875,0.170654,1.92309,-0.859127,250.13,-22.5225,26.0156,0,0,3.30391,5
1774536477888,0.0815492,1.96313,-1.0659,250.13,-23.4647,29.2487,0,0,3.37663,5
1774536477903,0.00122633,2.15819,-1.12378,250.13,-4.34734,74.4053,0,0,3.83469,5
1774536477916,0.160633,2.04102,-0.372611,250.13,11.7397,148.155,0,0,3.27863,5
1774536477929,0.110843,1.90162,0.308058,250.13,11.1838,203.654,0,0,3.28719,5
1774536477943,0.403544,-0.862844,1.30193,250.13,-8.28589,194.559,0,0,3.28702,5
1774536477956,-0.412296,-1.65864,0.166095,138.447,-22.0473,165.152,0,0,3.25658,5
1774536477970,-0.615953,-0.959766,-0.262909,36.8343,1.60233,40.796,0,0,3.29874,5
1774536477983,-0.573489,0.0465604,-0.0107598,-34.8368,16.3974,-64.5131,0,0,3.26045,5
1774536477997,-0.217798,0.479706,-0.166005,-64.6954,22.3605,-121.584,0,0,3.31119,1
1774536478010,0.0319649,0.551997,-0.195066,-76.2556,13.0703,-137.198,0,0,3.26854,1
1774536478024,0.0170909,0.212914,-0.0134404,-99.8238,11.9706,-119.56,0,0,3.60924,1
1774536478037,0.111077,-0.0693162,0.216537,-146.816,10.9476,-95.5507,0,0,3.2803,1
1774536478051,0.20263,-0.132564,0.283443,-203.302,2.1767,-83.5006,0,0,3.26991,1
1774536478064,0.239255,0.0886076,0.305418,-250.091,-16.2411,-79.2714,0,0,3.28117,1
1774536478077,0.233887,0.315414,0.23023,-250.137,-34.3636,-71.4277,0,0,3.26704,1
1774536478091,0.20923,0.421623,0.157476,-250.137,-48.81,-54.658,0,0,3.34732,5
1774536478104,0.206299,0.567617,0.0813042,-250.137,-57.0757,-39.2139,0,0,3.26452,5
1774536478118,0.178225,0.718007,-0.0568751,-250.137,-64.5727,-27.4545,0,0,3.77189,5
1774536478132,0.12891,0.88158,-0.2141,-250.137,-67.0128,-19.2525,0,0,3.27473,5
1774536478145,0.103029,1.03661,-0.346182,-250.137,-66.2832,-13.3113,0,0,3.24341,3
1774536478159,0.0883799,1.07446,-0.486074,-250.137,-59.4343,-4.13131,0,0,3.27619,3
1774536478172,0.0734874,1.14111,-0.607169,-250.137,-49.8721,2.45907,0,0,3.24837,3
1774536478185,0.0205115,1.37645,-0.718254,-250.137,-37.3255,3.80019,0,0,3.29345,3
1774536478199,-0.0319787,1.59056,-0.883533,-250.137,-19.7428,-0.377506,0,0,3.29828,3
1774536478212,-0.0808071,1.55469,-0.917966,-250.137,3.35098,-1.78485,0,0,3.31587,3
1774536478226,-0.062013,1.58594,-0.978511,-250.137,30.9495,-6.68976,0,0,3.59436,3
1774536478240,0.0429614,1.80467,-1.10619,-250.137,58.8957,-3.14095,0,0,3.77908,3
1774536478253,0.233141,1.80615,-1.229,-250.137,80.9932,11.4129,0,0,3.37336,3
1774536478267,0.310786,1.73096,-1.33642,-250.137,93.1253,31.3999,0,0,3.3061,3
1774536478280,0.213874,1.69092,-1.44775,-250.137,100.634,46.6946,0,0,3.32432,3
1774536478294,0.0485956,1.77221,-1.6079,-250.137,103.509,43.263,0,0,3.30184,3
1774536478307,-0.100087,1.71875,-1.67871,-250.115,101.536,13.259,0,0,3.31491,3
1774536478321,0.0512589,1.49391,-1.61792,-221.456,89.3786,-33.5258,0,0,3.28778,3
1774536478335,0.506804,1.37379,-1.60986,-188.171,66.6029,-46.7273,0,0,3.90382,3
1774536478348,1.01754,1.22608,-1.71728,-150.297,35.9467,-0.60333,0,0,3.29467,3
1774536478362,0.934576,0.939961,-1.84252,-116.865,3.71922,75.4431,0,0,3.28289,3
1774536478375,0.334271,0.891361,-1.86084,-79.1598,-24.8569,96.6811,0,0,3.30024,3
1774536478389,-0.289263,0.877931,-1.87988,-32.4284,-41.2508,60.9441,0,0,3.27349,3
1774536478402,-0.455067,0.681654,-1.73536,7.65461,-43.5244,-2.66165,0,0,3.34474,5
1774536478416,-0.161153,0.801749,-1.65088,40.6769,-41.6584,-35.921,0,0,3.30904,5
1774536478429,0.225803,0.866451,-1.48097,71.7476,-42.5335,-30.044,0,0,3.37163,5
1774536478443,0.437973,1.59345,-1.03153,93.8787,-51.0144,-45.374,0,0,3.3006,5
1774536478457,0.193865,-0.300405,1.30452,219.043,-54.6529,-69.1213,0,0,3.68143,5
1774536478470,-0.693541,1.97714,0.238112,250.099,-47.4957,-68.7485,0,0,3.302,5
1774536478484,-0.478287,1.34086,-0.220671,246.584,-12.4854,-50.9491,0,0,3.28028,5
1774536478497,-0.16262,1.03493,-0.317864,221.361,4.19707,-27.7102,0,0,3.30934,5
1774536478511,0.125712,1.08935,-0.29175,211.125,-2.61152,-18.0936,0,0,3.28415,5
1774536478524,-0.0822608,0.973397,-0.371088,202.68,-13.9505,-2.41261,0,0,3.32076,2
1774536478538,-0.112058,0.903813,-0.510977,186.932,-14.5414,14.3115,0,0,3.29245,2
1774536478552,-0.0529827,0.880861,-0.547849,164.114,-7.77775,23.7005,0,0,3.90924,2
1774536478565,0.00805237,0.842288,-0.641351,141.084,-2.69973,24.9377,0,0,3.28941,2
1774536478579,-0.0673775,0.735115,-0.635498,118.671,6.19722,20.8133,0,0,3.36606,2
1774536478592,0.0170839,0.805903,-0.673093,96.3353,9.59203,18.1858,0,0,3.41824,2
1774536478606,0.0329579,0.588638,-0.734859,68.1961,4.85969,9.74889,0,0,3.28224,2
1774536478619,0.0158703,0.764148,-0.58546,52.8245,6.05987,5.15726,0,0,3.3231,2
1774536478632,0.0742147,0.808102,-0.591308,46.2661,6.14495,-0.71932,0,0,3.31762,2
1774536478646,0.0537124,0.79004,-0.635007,39.4191,4.15466,-2.24275,0,0,3.36123,2
1774536478659,0.0852029,0.758547,-0.639404,29.9484,0.263429,-10.3888,0,0,3.29193,2
1774536478673,0.117674,0.7417,-0.652099,20.3836,-2.88998,-15.9029,0,0,3.71389,5
1774536478687,0.0290589,0.880117,-0.606937,13.3887,-4.09803,-17.7157,0,0,3.30741,5
1774536478700,0.0642065,0.870118,-0.628416,14.4417,-5.47191,-15.6814,0,0,3.27999,5
1774536478714,0.0437026,0.876953,-0.615235,11.5067,-4.98522,-15.1456,0,0,3.32034,5
1774536478727,0.0151387,0.915281,-0.599366,13.3264,-3.47479,-10.6,0,0,3.2768,5
1774536478740,0.00244229,0.883791,-0.610839,13.1605,-1.37614,-5.78344,0,0,3.31863,5
1774536478754,-0.0356419,0.916257,-0.620849,12.901,0.471437,-3.47559,0,0,3.32706,5
1774536478768,-0.00561734,0.877932,-0.624023,11.4747,0.267379,-3.07673,0,0,3.86324,5
1774536478781,0.04028,0.863038,-0.609132,11.1682,-0.236138,-1.29949,0,0,3.31689,5
1774536478795,0.0212416,0.860596,-0.621825,9.43684,-0.0993733,-2.10606,0,0,3.30247,5
1774536478809,0.0498027,0.854004,-0.611085,10.457,-0.457657,-2.10687,0,0,3.6588,5
1774536478822,0.0458987,0.850586,-0.60791,9.82506,-2.08235,-3.99811,0,0,3.27704,5
1774536478836,0.0375982,0.856201,-0.611328,8.95507,-3.17448,-5.16677,0,0,3.39054,5
1774536478849,0.022462,0.86084,-0.623046,8.32124,-3.87716,-5.38909,0,0,3.29126,5
1774536478863,-0.0200166,0.846925,-0.633788,6.17771,-3.31354,-3.10152,0,0,3.40587,5
1774536478876,0.00585756,0.85498,-0.627198,5.32909,-2.7029,-1.83333,0,0,3.29102,5
1774536478890,0.00488288,0.850586,-0.618653,4.39025,-2.80905,-0.970328,0,0,3.30312,5
1774536478903,0.0219715,0.857177,-0.625,3.71823,-2.43549,-0.183992,0,0,3.29789,5
1774536478917,0.0209962,0.856201,-0.625488,3.53453,-2.35886,-0.175581,0,0,3.27645,5
1774536478930,0.0170901,0.863769,-0.613526,3.29032,-2.13763,-0.068809,0,0,3.32521,5
1774536478944,0.0183105,0.862305,-0.623534,3.81627,-2.22892,-0.427123,0,0,3.3075,5
1774536478957,0.0126957,0.860108,-0.624512,3.75579,-2.56455,-0.213953,0,0,3.38876,5
1774536478971,-0.00732282,0.867919,-0.623291,3.85486,-1.95481,0.861521,0,0,3.29252,5
1774536478984,0.0104968,0.864258,-0.629638,3.42791,-1.87794,2.42592,0,0,3.68419,5
1774536478998,-0.0104966,0.879882,-0.633545,3.35122,-1.29066,4.61613,0,0,3.29769,5
1774536479011,-7.34658e-07,0.854982,-0.637207,2.72582,-0.626618,6.6087,0,0,3.27717,5
1774536479025,0.0112297,0.873778,-0.622071,3.06073,0.151894,7.39616,0,0,3.31297,5
1774536479038,0.0153806,0.860841,-0.625244,3.06107,0.0687853,7.74011,0,0,3.3468,5
1774536479052,0.0622526,0.86499,-0.618897,3.67877,-0.556627,6.97786,0,0,3.32254,5
1774536479065,0.0549322,0.901609,-0.632323,5.29609,-1.22834,5.90946,0,0,3.29078,5
1774536479079,0.0563964,0.904541,-0.646239,6.78477,-2.35002,5.81689,0,0,3.63471,5
1774536479092,0.033693,0.910644,-0.630616,12.2007,-2.55705,4.61952,0,0,3.33304,5
1774536479106,0.0581038,0.883303,-0.637207,11.8172,-2.49624,7.39417,0,0,3.29719,5
1774536479124,0.0756824,0.886474,-0.647948,15.1341,-3.6477,11.1108,0,0,3.33637,5
1774536479138,0.0397974,1.2324,-0.671141,28.765,-5.83751,7.30914,0,0,3.30047,5
1774536479152,0.10522,1.28296,-0.782951,33.3008,-4.58903,33.2947,0,0,3.32799,5
1774536479166,-0.0058516,1.14088,-0.710698,66.4859,6.37073,34.0222,0,0,3.29404,5
1774536479183,0.00659093,1.23168,-0.80761,68.6086,1.91285,33.9695,0,0,7.17252,5
1774536479196,0.198717,1.64353,-0.734136,103.515,-4.35252,20.3876,0,0,3.29362,5
1774536479211,0.0583594,1.36892,-0.70386,127.663,-6.68469,21.0375,0,0,4.93427,5
1774536479225,0.0380874,1.35767,-0.726561,149.749,-7.28947,14.8764,0,0,3.27263,5
1774536479240,0.150383,1.17506,-0.666752,169.271,-10.7828,8.96773,0,0,5.19398,5
1774536479253,0.122561,1.18091,-0.701902,179.356,-13.3943,5.57591,0,0,3.32651,5
1774536479267,0.100343,1.58982,-0.777827,201.299,-17.2862,7.72305,0,0,3.37765,5
1774536479280,0.0935063,1.86277,-0.830563,237.46,-19.3262,3.07335,0,0,3.41132,5
1774536479294,0.161616,1.89184,-0.828369,250.117,-20.1747,1.73416,0,0,3.34274,5
1774536479307,0.179686,1.73585,-0.794436,250.13,-24.6901,2.91485,0,0,3.31158,5
1774536479321,0.239742,1.49782,-0.895745,250.13,-29.8193,-6.47154,0,0,3.29426,5
1774536479336,0.40868,1.48193,-0.961421,250.13,-31.3801,1.42722,0,0,4.79098,5
1774536479349,0.321783,1.43824,-1.10326,250.13,-43.1257,2.29684,0,0,3.29297,5
1774536479363,0.140394,1.68797,-1.04468,250.13,-31.3248,28.6683,0,0,3.2703,3
1774536479376,0.22973,1.4153,-0.618438,250.13,-23.9311,72.4143,0,0,3.28273,3
1774536479389,0.483381,1.19264,0.640537,250.13,-37.9173,78.9858,0,0,3.27874,3
1774536479403,0.565912,-1.7288,1.93497,250.13,-73.1633,22.8347,0,0,3.28969,3
1774536479416,-0.202827,-0.98223,-0.265227,67.6632,-45.112,60.7408,0,0,3.26065,3
1774536479430,-0.0966871,0.57411,-0.398428,10.0499,-33.1189,34.0572,0,0,3.28143,3
1774536479443,0.107652,0.198513,0.0295111,-30.1964,-35.3642,6.06613,0,0,3.35489,3
1774536479456,0.21093,0.659636,-0.29197,-45.3894,-44.5481,-9.32051,0,0,3.30915,3
1774536479470,0.174075,0.44606,-0.19654,-55.7149,-49.537,-8.27585,0,0,3.33121,3
1774536479484,0.125736,0.140402,-0.0593358,-87.2357,-42.5032,4.47581,0,0,3.98267,3
1774536479498,0.103273,0.0434638,-0.0366227,-130.613,-34.5347,10.9096,0,0,3.28299,3
1774536479511,0.143796,0.0207535,0.028804,-180.065,-30.8129,5.2423,0,0,3.29989,3
1774536479525,0.160399,0.24144,0.025635,-223.781,-28.6434,4.29865,0,0,3.30174,3
1774536479538,0.198484,0.536356,-0.0476023,-250.111,-23.5089,16.057,0,0,3.30871,3
1774536479552,0.217772,0.774642,-0.162834,-250.137,-16.8387,35.8581,0,0,3.30676,3
1774536479565,0.204591,0.851801,-0.265618,-250.137,-10.5025,49.7495,0,0,3.30541,3
1774536479579,0.123053,0.807864,-0.304929,-250.137,-2.36691,53.1264,0,0,3.3471,3
1774536479592,0.0446832,0.95458,-0.393548,-250.137,9.24031,57.5071,0,0,3.30073,3
1774536479606,0.0209978,1.01416,-0.500725,-250.137,25.2893,62.3311,0,0,3.59247,3
1774536479619,1.46964e-06,1.11694,-0.561519,-250.137,41.4876,67.6207,0,0,3.27749,3
1774536479633,-0.117179,1.20043,-0.663079,-250.137,57.9378,70.1883,0,0,3.27436,3
1774536479647,-0.259512,1.23608,-0.71777,-250.137,75.5778,58.424,0,0,3.54852,3
1774536479660,-0.318111,1.25537,-0.713867,-250.137,93.6384,40.8649,0,0,3.30617,3
1774536479674,-0.301271,1.27637,-0.685549,-250.137,110.716,24.4744,0,0,3.35934,3
1774536479687,-0.186531,1.35693,-0.669191,-250.137,121.607,10.1212,0,0,3.31724,3
1774536479701,-0.0241813,1.42016,-0.714108,-250.137,125.721,-0.134792,0,0,3.80115,5
1774536479714,0.100089,1.43457,-0.75903,-250.137,124.299,-7.74049,0,0,3.26638,5
1774536479728,0.211418,1.51977,-0.872551,-250.137,121.781,-9.52493,0,0,3.29363,5
1774536479741,0.279536,1.5376,-0.973626,-250.137,115.739,-4.41732,0,0,3.32021,5
1774536479757,0.284668,1.45655,-1.08495,-250.137,104.096,10.9465,0,0,3.305,5
1774536479772,0.203863,1.44556,-1.17602,-250.137,89.9759,10.9923,0,0,3.28876,5
1774536479785,0.120611,1.5205,-1.32323,-250.137,78.7745,4.80771,0,0,3.24375,5
1774536479799,0.153074,0.103127,-1.05837,-234.039,64.8078,4.80153,0,0,3.29051,5
1774536479812,0.0913129,1.64711,-1.57931,-203.877,63.4746,0.965664,0,0,3.33673,5
1774536479826,0.12573,1.35451,-1.70629,-165.931,57.4335,-12.9784,0,0,3.41536,5
1774536479840,0.256339,1.09401,-1.77392,-124.095,36.6391,-5.98409,0,0,3.31786,5
1774536479854,0.261718,0.916028,-1.88085,-89.8815,14.2895,21.423,0,0,3.66234,5
1774536479868,0.00978326,0.734632,-1.86646,-61.7914,-10.7917,19.8336,0,0,3.35517,5
1774536479882,-0.238996,0.765135,-1.88794,-25.1511,-31.14,-13.8518,0,0,3.32606,5
1774536479896,-0.198001,0.770263,-1.82886,14.2355,-48.7915,-50.6655,0,0,3.28447,5
1774536479909,-0.0280881,0.852289,-1.74341,51.2683,-60.4159,-63.735,0,0,3.25845,5
1774536479923,0.930109,3.99966,-1.55372,249.931,-138.243,69.1649,0,0,3.71298,5
1774536479937,1.96794,2.41271,-0.764948,210.612,-196.888,-33.5081,0,0,3.251,5
1774536479950,0.307978,1.05429,-0.0249541,216.666,-139.02,-36.3331,0,0,3.44037,5
1774536479964,-0.420603,0.803728,-0.269026,235.005,-67.5676,-28.6565,0,0,3.25706,5
1774536479977,-0.207046,0.825194,-0.398184,227.397,-20.6728,-39.7523,0,0,3.24223,5
1774536479990,-0.0332153,0.83911,-0.448239,207.653,10.4651,-45.3227,0,0,3.27491,3
1774536480004,0.186752,0.822511,-0.58251,180.645,4.62416,-43.5514,0,0,3.26554,3
1774536480017,-0.0431968,0.839354,-0.576172,148.025,1.30866,-15.9665,0,0,3.26208,3
1774536480030,-0.0793432,0.770269,-0.586425,125.206,1.61801,3.65216,0,0,3.25567,3
1774536480044,-0.140132,0.802244,-0.624265,105.31,12.2489,17.4442,0,0,3.24886,3
1774536480057,-0.0158778,0.790284,-0.608644,89.1307,18.8484,20.394,0,0,3.27412,3
1774536480070,0.00146363,0.61305,-0.603272,61.0738,16.7883,24.7285,0,0,3.2445,3
1774536480084,0.0595662,0.814439,-0.56055,52.5963,13.8884,19.8369,0,0,3.25513,3
1774536480097,0.105221,0.850095,-0.559326,46.6014,13.9618,15.9581,0,0,3.24036,3
1774536480110,0.153561,0.776616,-0.599362,39.61,10.5225,7.54276,0,0,3.27967,3
1774536480124,0.187498,0.705327,-0.637693,24.7324,3.36593,-7.79384,0,0,3.24917,3
1774536480137,0.238034,0.762447,-0.62378,13.8734,-2.4522,-16.3426,0,0,3.24434,5
1774536480150,0.0854599,0.845697,-0.602296,7.87622,-6.17948,-20.5912,0,0,3.26441,5
1774536480164,0.0883787,0.847412,-0.601074,3.90473,-9.1192,-21.6554,0,0,3.27626,5
1774536480177,0.0200243,0.92187,-0.585694,3.29832,-7.61982,-18.0265,0,0,3.2573,5
1774536480191,-0.0153784,0.938475,-0.588623,6.82091,-6.23802,-12.9898,0,0,3.23873,5
1774536480204,-0.0239252,0.920411,-0.606932,7.97595,-4.11662,-7.12037,0,0,3.26217,5
1774536480217,-0.0119637,0.909669,-0.594239,7.67969,-1.1175,-1.7077,0,0,3.23867,5
1774536480230,-0.0126953,0.933836,-0.598633,8.41148,2.75186,4.08582,0,0,3.23913,5
1774536480244,0.00903168,0.928711,-0.573976,9.44934,5.11977,3.93145,0,0,3.24302,5
1774536480258,0.0405251,0.879398,-0.567872,8.26073,4.59594,2.10869,0,0,3.81543,5
1774536480271,0.123041,0.889159,-0.584716,10.8829,1.66705,-2.74324,0,0,3.32669,5
1774536480285,0.111085,0.898681,-0.580811,10.8626,-1.94296,-7.17878,0,0,3.37882,5
1774536480298,0.0910659,0.892823,-0.581787,12.281,-4.69954,-9.85992,0,0,3.54508,5
1774536480312,0.0673845,0.878175,-0.595702,11.3368,-7.16548,-10.6176,0,0,3.34208,5
1774536480325,0.0549325,0.906004,-0.588135,12.068,-8.22032,-10.6336,0,0,3.45948,5
1774536480339,-0.019526,0.86304,-0.607909,10.2537,-7.13086,-7.82723,0,0,3.31495,5
1774536480352,0.0117166,0.926021,-0.590333,11.3272,-4.7581,-4.69778,0,0,3.30993,5
1774536480366,-0.0109847,0.836188,-0.600341,9.78017,-2.1629,-1.52988,0,0,3.32167,5
1774536480379,-0.00732447,0.885739,-0.588868,10.648,-0.284319,0.0671069,0,0,3.26787,5
1774536480392,0.0581009,0.887451,-0.607176,10.2447,0.731809,-0.0838187,0,0,3.24754,5
1774536480406,0.0971652,0.932614,-0.591798,9.82485,-0.426324,-0.450016,0,0,3.25036,5
1774536480419,0.0690938,0.928467,-0.655025,10.6862,-4.63701,-1.6019,0,0,3.28576,5
1774536480433,0.129879,0.872807,-0.647217,12.3647,-7.4552,-1.63356,0,0,3.27819,5
1774536480446,0.101809,1.06078,-0.600833,17.0869,-10.2415,-6.22442,0,0,3.26386,5
1774536480459,0.0295461,0.888684,-0.628416,15.6503,-10.5112,-1.66867,0,0,3.30137,5
1774536480473,-0.0468697,1.02709,-0.671872,20.8345,-8.7041,1.60741,0,0,3.25188,3
1774536480486,-0.109859,1.05054,-0.687011,24.7061,-3.22685,13.042,0,0,3.26371,3
1774536480500,-0.0622592,1.08935,-0.673829,43.9121,8.08793,26.3684,0,0,3.27826,3
1774536480513,0.0288022,1.01709,-0.681884,39.5616,5.35388,30.4234,0,0,3.29478,3
1774536480526,-0.0634701,1.19945,-0.682129,53.9017,8.94298,27.5906,0,0,3.34997,3
1774536480540,0.12694,0.987075,-0.665529,57.1342,5.6979,27.4887,0,0,3.27978,3
1774536480553,0.0263742,1.07397,-0.67871,64.9921,5.36674,27.7555,0,0,3.31836,5
1774536480567,0.0681123,1.00879,-0.672608,73.8842,4.28352,25.4451,0,0,3.28695,5
1774536480581,0.113522,0.951908,-0.675293,79.6812,1.1863,25.1301,0,0,4.04774,5
1774536480594,0.0920425,0.878423,-0.659181,84.2473,-2.52301,21.2482,0,0,3.26334,5
1774536480608,0.1062,0.807622,-0.689939,87.6912,-3.79262,17.7058,0,0,3.28275,5
1774536480621,0.12036,0.781496,-0.695068,87.6641,-5.95967,14.9188,0,0,3.26423,5
1774536480634,0.136962,0.79663,-0.693604,88.5564,-7.73105,11.553,0,0,3.29902,5
1774536480648,0.146728,0.742435,-0.687989,89.724,-10.3028,7.10368,0,0,3.26678,5
1774536480661,0.107669,0.675542,-0.755122,88.3144,-12.9897,3.40065,0,0,3.3303,5
1774536480675,0.0730005,0.742427,-0.784178,88.4655,-13.5414,1.68873,0,0,3.27087,5
1774536480688,0.108396,0.803951,-0.794189,91.7601,-13.3895,1.68702,0,0,3.26115,5
1774536480701,0.034429,0.803955,-0.837155,95.5763,-12.0853,2.4725,0,0,3.27871,5
1774536480715,0.0908164,0.815185,-0.775151,101.467,-11.5044,-0.798259,0,0,3.26265,5
1774536480728,0.100829,0.916253,-0.852534,110.075,-13.3188,-0.397347,0,0,3.28132,5
1774536480742,0.147702,0.9873,-0.828127,118.351,-15.2805,-4.32432,0,0,3.2651,5
1774536480755,0.0913125,0.956789,-0.7793,130.271,-16.3501,-7.95058,0,0,3.29952,5
1774536480768,0.148922,1.00097,-0.936268,143.193,-20.065,-9.57853,0,0,3.27799,5
1774536480782,0.143311,1.09765,-0.936768,154.851,-22.0743,-8.57352,0,0,3.61,5
1774536480796,0.120119,1.02833,-0.958983,174.606,-24.6997,-10.7078,0,0,3.27491,3
1774536480809,0.0251531,1.06225,-0.896245,192.234,-26.8376,-7.385,0,0,3.25997,3
1774536480823,-0.00951906,1.10815,-1.06469,206.94,-27.8006,-5.07864,0,0,3.27895,3
1774536480836,-0.150625,1.27636,-1.07593,225.081,-21.2432,-1.24048,0,0,3.25624,3
1774536480850,-0.0766653,1.5283,-1.22167,250.105,-17.6067,-4.11164,0,0,3.29976,3
1774536480864,0.0344161,1.29836,-1.15577,250.13,-12.2954,-2.36053,0,0,3.69504,3
1774536480877,0.0100115,1.1399,-1.13941,250.13,-14.7304,-2.3359,0,0,3.67989,3
1774536480891,-0.233626,1.04298,-1.25243,250.13,-9.58529,-20.0281,0,0,3.26795,3
1774536480904,-0.0918068,1.03857,-1.27514,250.13,3.23147,-14.8601,0,0,3.26276,3
1774536480918,0.114488,1.17943,-1.05031,250.13,8.44517,8.54913,0,0,3.29174,3
1774536480931,0.101563,1.34862,-0.848159,250.13,6.48288,17.2432,0,0,3.25678,3
1774536480944,0.086671,1.13063,-0.49441,250.13,-1.22894,2.61766,0,0,3.28495,3
1774536480958,0.229482,0.346002,0.219188,250.13,-18.7535,-42.5732,0,0,3.26537,3
1774536480971,0.611057,-2.86647,0.389392,212.656,-52.5693,-79.4898,0,0,3.28467,3
1774536480985,0.217313,-0.105174,0.0115011,15.9522,-58.0785,-54.2085,0,0,3.26599,3
1774536480998,0.148198,-1.09856,0.154043,-126.491,-53.3787,3.01154,0,0,3.71328,3
1774536481012,0.217769,-0.580114,0.272941,-237.698,-51.3227,43.0135,0,0,3.27365,3
1774536481025,0.130621,-0.0217676,0.24756,-250.125,-52.6094,59.9678,0,0,3.26071,3
1774536481039,-0.0297739,0.359348,0.36132,-250.137,-49.4078,77.3719,0,0,3.29887,3
1774536481052,-0.103266,0.904991,0.170668,-250.137,-35.5406,96.8279,0,0,3.25904,3
1774536481066,0.0309965,1.10594,0.0996143,-250.137,-24.6216,106.189,0,0,3.62998,3
1774536481079,0.00464052,0.976572,-0.0331938,-250.137,-22.3915,105.954,0,0,3.27556,3
1774536481093,-0.0432095,1.02173,-0.0856897,-250.137,-23.7925,92.7994,0,0,3.61754,3
1774536481106,-0.0529778,1.00073,-0.154048,-250.137,-23.1914,80.5008,0,0,3.25386,3
1774536481120,0.0368589,1.14769,-0.289785,-250.137,-24.0983,72.977,0,0,3.2736,3
1774536481133,0.0358887,1.44017,-0.473132,-250.137,-25.3804,67.3415,0,0,3.27084,3
1774536481147,-0.133289,1.34522,-0.531246,-250.137,-20.196,57.5594,0,0,3.26947,3
1774536481160,-0.243645,1.09963,-0.530762,-250.137,-9.47636,44.8448,0,0,3.26976,3
1774536481173,-0.335443,1.20068,-0.603755,-250.137,8.65364,30.4876,0,0,3.28197,1
1774536481187,-0.358885,1.37377,-0.724845,-250.137,32.6554,8.77741,0,0,3.84352,1
1774536481201,-0.388914,1.52953,-0.859121,-250.137,58.6992,-10.0194,0,0,3.29454,1
1774536481214,-0.283211,1.62328,-0.969719,-250.137,86.804,-23.7344,0,0,3.25106,1
1774536481228,-0.139414,1.5542,-0.969971,-250.137,112.486,-28.4304,0,0,3.28076,1
1774536481241,0.0527209,1.56421,-1.00049,-250.137,132.827,-31.4321,0,0,3.25537,1
1774536481255,0.203603,1.47169,-1.03247,-250.137,144.904,-23.6871,0,0,3.27926,1
1774536481268,0.275386,1.37891,-1.05932,-250.137,150.186,-5.29318,0,0,3.5495,5
1774536481283,0.334957,1.21363,-1.00489,-250.137,145.936,0.604795,0,0,4.82455,5
1774536481297,0.365965,1.48094,-1.13622,-249.848,128.308,-9.12768,0,0,3.27388,5
1774536481311,0.45141,1.58544,-1.26977,-222.912,105.138,-14.0943,0,0,3.89117,5
1774536481324,0.430666,1.38112,-1.25171,-198.94,83.861,-11.0946,0,0,3.27482,5
1774536481338,0.367192,1.24464,-1.24219,-183.763,69.9452,-1.17022,0,0,3.24254,5
1774536481351,0.373291,1.12232,-1.25513,-169.556,59.0719,18.6977,0,0,3.2816,5
1774536481364,0.388915,1.14795,-1.34008,-144.918,43.5117,40.7032,0,0,3.23952,5
1774536481379,0.239268,1.14404,-1.47167,-108.716,20.054,53.2928,0,0,4.89392,5
1774536481393,-0.0200014,1.01246,-1.45923,-75.1862,0.172533,33.4778,0,0,3.27887,5
1774536481408,-0.149161,0.93482,-1.41358,-46.2503,-16.8532,-2.4069,0,0,4.76146,5
1774536481421,-0.0827683,0.999507,-1.3501,-10.0972,-30.9859,-21.6907,0,0,3.24941,5
1774536481435,0.0226977,0.94556,-1.20167,17.7508,-40.4104,-23.8528,0,0,3.81846,5
1774536481451,1.62831,3.99966,-3.53499,-10.712,-54.9778,-3.05894,0,0,3.31902,5
1774536481464,-0.142942,-1.11659,0.787539,241.199,-54.062,-12.3342,0,0,3.27362,5
1774536481478,-0.203121,1.27376,0.302524,224.475,-44.46,-3.16184,0,0,3.3255,5
1774536481491,-0.0803309,1.30908,-0.0446534,225.472,-24.4704,-8.3841,0,0,3.26558,3
1774536481508,-0.0339388,1.03762,-0.228991,217.664,-2.91466,-9.26629,0,0,3.3218,3
1774536481521,0.0690846,0.989749,-0.318109,197.783,-1.05529,-11.6922,0,0,3.25941,3
1774536481536,0.0891099,0.970216,-0.354001,181.589,-6.01794,-9.56701,0,0,3.27017,3
1774536481549,0.102294,0.994139,-0.37744,172.002,-13.3667,-9.38186,0,0,3.25134,3
1774536481564,-0.11766,0.800795,-0.531239,154.193,-8.36378,-2.4573,0,0,4.80255,3
1774536481578,0.0151274,0.835203,-0.540771,128.957,2.82851,0.622877,0,0,3.48858,3
1774536481593,0.0197751,0.912348,-0.516359,113.405,5.42489,2.66208,0,0,4.79303,3
1774536481606,-0.0317347,0.797615,-0.558591,95.7276,6.20533,5.85178,0,0,3.27008,3
1774536481620,0.0219689,0.787842,-0.571532,77.0568,5.06984,10.4839,0,0,3.86784,3
1774536481634,-0.0114723,0.741214,-0.808821,60.2153,7.92844,13.8058,0,0,3.27838,3
1774536481647,0.0278293,0.805415,-0.612074,43.3222,5.36897,9.43185,0,0,3.24184,3
1774536481660,0.0261232,0.903313,-0.556645,37.9596,3.91748,6.33897,0,0,3.27754,5
1774536481674,0.0458971,0.897705,-0.543946,37.9847,2.61199,5.26825,0,0,3.24087,5
1774536481688,-0.00463513,0.939206,-0.549804,38.7855,4.67733,6.64748,0,0,3.51063,5
1774536481702,0.08764,0.614525,-0.660149,35.2097,4.13794,0.304047,0,0,3.26421,5
1774536481715,-0.0666396,1.00925,-0.621585,24.5679,2.84099,-1.74604,0,0,3.72998,5
1774536481729,0.0617586,0.856944,-0.556401,22.4754,0.956082,-3.83761,0,0,3.30599,5
1774536481742,0.01514,0.871825,-0.5625,20.7269,3.07422,-2.98558,0,0,3.26913,5
1774536481756,0.0502905,0.835696,-0.59448,18.018,2.29848,-4.05237,0,0,3.2613,5
1774536481769,0.016848,0.864012,-0.592774,14.1718,3.3806,-0.858153,0,0,3.2866,5
1774536481782,0.0559055,0.868408,-0.581056,12.2462,3.30542,-0.763453,0,0,3.27467,5
1774536481796,0.0578612,0.85962,-0.611814,10.5361,2.78678,0.777087,0,0,3.29167,5
1774536481809,0.0310077,0.902097,-0.595948,7.68224,2.18381,2.96728,0,0,3.27856,5
1774536481823,0.0612772,0.853763,-0.58545,6.05506,1.40536,2.60342,0,0,3.27699,5
1774536481836,0.0720207,0.856445,-0.588135,4.63501,0.260686,1.5583,0,0,3.30638,5
1774536481849,0.071045,0.877196,-0.585205,4.48107,-0.708955,0.146449,0,0,3.27736,5
1774536481863,0.0681154,0.86255,-0.604735,3.74882,-1.22086,-0.625183,0,0,3.25802,5
1774536481876,0.0488295,0.861572,-0.593018,3.46593,-0.832449,-1.03013,0,0,3.27567,5
1774536481890,0.0310071,0.89575,-0.601074,3.38939,-0.504145,-0.0772878,0,0,3.72913,5
1774536481903,0.0632302,0.887696,-0.602051,2.13103,-0.313168,0.350717,0,0,3.35297,5
1774536481917,0.0407731,0.878663,-0.588868,1.69509,0.114077,1.31202,0,0,3.33525,5
1774536481930,0.035889,0.867677,-0.591064,0.832922,0.0229918,2.35011,0,0,3.3228,5
1774536481944,0.0429683,0.857911,-0.590576,-0.121184,0.0610307,2.94597,0,0,3.32717,5
1774536481958,0.0385745,0.874511,-0.598144,-0.389045,-0.0533209,3.22873,0,0,3.26593,5
1774536481971,0.0812958,0.865967,-0.584718,-0.854497,-1.31172,2.17662,0,0,3.25706,5
1774536481985,0.0561541,0.880126,-0.589599,-0.679564,-2.25097,1.39772,0,0,3.26017,5
1774536481998,0.0478521,0.883056,-0.587402,-0.420107,-2.02313,1.6181,0,0,3.29875,5
1774536482012,0.0749493,0.865236,-0.577393,-0.450351,-2.35844,0.695578,0,0,3.24047,5
1774536482025,0.0437034,0.862793,-0.582519,-0.313114,-1.87834,0.587894,0,0,3.23963,5
1774536482038,0.0356451,0.861816,-0.58667,-0.945933,-1.43556,1.10635,0,0,3.26463,5
1774536482052,0.060301,0.881835,-0.587402,-1.44988,-1.6944,0.733197,0,0,3.24273,5
1774536482065,0.0793444,0.869142,-0.595703,-0.840304,-2.52589,-0.769491,0,0,3.25593,5
1774536482078,0.0590834,0.905271,-0.59668,0.235566,-2.73262,-0.778617,0,0,3.34776,5
1774536482092,0.0749501,0.893556,-0.589112,0.534053,-3.68607,-1.44971,0,0,3.28893,5
1774536482105,0.0515153,0.887207,-0.598144,1.04529,-4.15221,-1.90031,0,0,3.24558,3
1774536482118,0.0576168,0.890869,-0.595703,1.88466,-4.12217,-2.24393,0,0,3.26989,3
1774536482132,0.0446786,0.877198,-0.591309,1.48894,-4.11451,-1.6952,0,0,3.25476,3
1774536482145,0.0358893,0.888183,-0.585694,1.36653,-2.99349,-0.360112,0,0,3.25302,3
1774536482158,0.0434565,0.875489,-0.593261,1.069,-2.95424,-0.0384892,0,0,3.24771,3
1774536482172,0.04541,0.863038,-0.594971,0.367113,-2.12297,0.45752,0,0,3.23895,3
1774536482185,0.0410159,0.85376,-0.597412,-0.685971,-2.24415,0.0843423,0,0,3.29024,3
1774536482199,0.0327154,0.829347,-0.593262,-2.63164,-1.58844,0.198359,0,0,3.25211,3
1774536482212,0.0351561,0.805422,-0.599853,-5.50095,-0.741304,0.312863,0,0,3.26641,3
1774536482225,0.0661599,0.814941,-0.575197,-8.5542,-0.755711,-0.617391,0,0,3.24808,3
1774536482239,0.0673827,0.883784,-0.56836,-10.6391,-1.72422,-2.11301,0,0,3.27693,3
1774536482252,0.0839832,0.947994,-0.577636,-7.98738,-4.44003,-4.8446,0,0,3.25932,3
1774536482265,0.0266153,0.937012,-0.585693,-6.38328,-4.44275,-3.93221,0,0,3.24236,3
1774536482279,0.0532208,0.925294,-0.591064,-4.28454,-4.8393,-4.09907,0,0,3.25176,3
1774536482292,0.0100128,0.92041,-0.588135,-2.9784,-3.42126,-2.60455,0,0,3.26106,3
1774536482305,0.0244131,0.916748,-0.584717,-2.06961,-2.55049,-1.15412,0,0,3.25967,3
1774536482319,0.020264,0.885012,-0.57959,-2.19834,-1.78702,0.204749,0,0,3.23797,3
1774536482332,0.0239255,0.881348,-0.578613,-2.50351,-1.11517,1.15173,0,0,3.28497,3
1774536482345,0.0319819,0.887939,-0.584228,-2.70972,-0.931481,1.67124,0,0,3.2528,3
1774536482359,0.0412591,0.882325,-0.576417,-2.80906,-1.3431,1.58024,0,0,3.23749,3
1774536482372,0.0493158,0.86133,-0.584228,-3.46499,-1.46553,1.25224,0,0,3.25554,3
1774536482385,0.0483399,0.864746,-0.583252,-4.13673,-1.74018,0.87061,0,0,3.28271,3
1774536482399,0.0468751,0.874511,-0.577881,-4.34331,-1.76334,0.13051,0,0,3.25734,3
1774536482415,0.0534663,0.899168,-0.581054,-3.26062,-2.47257,-1.09038,0,0,6.26708,3
1774536482428,0.0483402,0.886231,-0.577149,-2.67234,-2.85458,-2.25075,0,0,3.2883,3
1774536482442,0.036866,0.885254,-0.575928,-2.74802,-2.9541,-2.33579,0,0,3.35702,3
1774536482455,0.0510244,0.903075,-0.565919,-1.59657,-3.1906,-2.89257,0,0,3.29024,3
1774536482469,0.0290543,0.900635,-0.579101,-1.04635,-3.01544,-2.56521,0,0,3.27706,3
1774536482483,0.0129406,0.896729,-0.575928,-1.05343,-2.26792,-1.1007,0,0,3.58021,3
1774536482496,0.0197749,0.896484,-0.579345,-1.48049,-1.29105,0.387826,0,0,3.27912,3
1774536482509,0.0207519,0.905273,-0.580078,-1.13775,-0.550358,1.6476,0,0,3.25567,3
1774536482523,0.0322258,0.901123,-0.577393,-0.893374,-0.267458,1.97677,0,0,3.28336,3
1774536482536,0.0495593,0.893555,-0.573731,-0.565213,-0.984017,1.10774,0,0,3.25675,3
1774536482550,0.0561519,0.890137,-0.568848,-0.549634,-1.7092,0.138373,0,0,3.33045,3
1774536482563,0.057373,0.886963,-0.581542,-0.229328,-2.60979,-1.19714,0,0,3.26421,3
1774536482577,0.0495611,0.887207,-0.572999,0.037901,-3.23602,-2.16697,0,0,3.79187,3
1774536482591,0.0437016,0.880372,-0.569336,-0.335505,-3.70182,-2.64837,0,0,3.39454,3
1774536482604,0.0288096,0.881348,-0.577148,-0.762932,-3.77855,-2.45058,0,0,3.28052,3
1774536482618,0.00732572,0.888427,-0.569581,-1.13703,-3.16855,-1.11584,0,0,3.28495,3
1774536482631,0.0158685,0.888916,-0.57788,-1.53395,-2.29095,-0.222267,0,0,3.27851,3
1774536482645,0.0278312,0.886963,-0.583007,-2.03766,-1.86302,0.747123,0,0,3.28286,3
1774536482658,0.0307615,0.90039,-0.557619,-1.60349,-1.58043,0.831976,0,0,3.25369,3
1774536482672,0.0429679,0.891846,-0.5708,-1.28276,-1.90807,0.816809,0,0,3.29867,3
1774536482685,0.0405275,0.89624,-0.572266,-1.02316,-2.38121,0.267724,0,0,3.26454,3
1774536482699,0.0354007,0.89624,-0.568604,-1.06866,-2.70197,-0.0836185,0,0,3.61532,3
1774536482712,0.0273443,0.907714,-0.580077,-0.817045,-2.33624,0.510856,0,0,3.27541,3
1774536482726,0.0332027,0.905029,-0.569337,-0.687153,-2.70955,0.709725,0,0,3.25767,3
1774536482739,0.0258794,0.887452,-0.578369,-0.870046,-2.72518,1.36576,0,0,3.28847,3
1774536482752,0.0212406,0.887451,-0.570557,-1.76247,-2.35914,2.46455,0,0,3.34595,3
1774536482766,0.0229491,0.897948,-0.569824,-1.87012,-1.74108,3.02234,0,0,3.27038,3
1774536482779,0.0231933,0.889893,-0.575927,-2.26678,-1.38966,3.70924,0,0,3.33539,3
1774536482793,0.0170903,0.89624,-0.575195,-2.52646,-0.641968,4.27424,0,0,3.78017,3
1774536482807,0.0180663,0.889893,-0.572998,-2.64873,-0.183664,4.67136,0,0,3.26873,3
1774536482820,0.0288078,0.888916,-0.574951,-3.41145,0.602268,4.88528,0,0,3.26345,3
1774536482834,0.0190437,0.882081,-0.568848,-3.80114,1.03773,5.12953,0,0,3.27773,3
1774536482847,0.0185547,0.885254,-0.56543,-4.41923,1.56436,5.25941,0,0,3.273,3
1774536482860,0.0153811,0.885986,-0.5708,-4.95366,2.41899,5.80861,0,0,3.29452,3
1774536482874,-0.00561376,0.900634,-0.570313,-5.28974,4.12806,7.75378,0,0,3.25975,3
1774536482887,0.010741,0.905029,-0.565674,-5.10705,6.43281,9.94438,0,0,3.5985,3
1774536482901,0.0292956,0.908447,-0.551026,-4.81708,7.65527,10.8922,0,0,3.27747,3
1774536482914,0.0444325,0.929686,-0.537843,-3.8788,8.61736,10.0619,0,0,3.26091,5
1774536482928,0.00683857,0.927979,-0.544433,-2.2154,11.0052,9.38998,0,0,3.27804,5
1774536482941,-0.0178205,0.888431,-0.561522,1.645,14.7062,8.94701,0,0,3.27504,5
1774536482955,-0.078609,0.9436,-0.574462,3.46383,19.7431,8.74829,0,0,3.35106,5
1774536482968,-0.173089,1.10253,-0.548586,11.4653,27.9079,4.53093,0,0,3.27402,5
1774536482982,-0.54514,1.07056,-0.570067,17.513,42.0393,-23.0564,0,0,3.29999,5
1774536482995,-0.532227,0.906262,-0.5293,15.6965,64.4433,-42.2938,0,0,3.58784,5
1774536483009,-0.355969,0.892823,-0.511964,11.508,81.2504,-54.0417,0,0,3.27393,5
1774536483022,-0.230722,0.857668,-0.489259,7.63745,93.6746,-58.5604,0,0,3.27804,5
1774536483036,-0.229981,0.899411,-0.49414,6.51257,103.105,-60.5629,0,0,3.25099,5
1774536483049,-0.168705,0.905273,-0.471437,5.27604,112.189,-64.0042,0,0,3.28911,5
1774536483063,-0.127688,0.933348,-0.476074,4.72574,121.281,-68.5985,0,0,3.25691,5
1774536483076,-0.0761755,0.96533,-0.459718,4.98447,128.947,-70.1969,0,0,3.27328,5
1774536483089,0.0126891,0.97412,-0.420169,5.62531,131.966,-69.2605,0,0,3.26463,5
1774536483103,0.0344223,0.932864,-0.451902,5.98437,132.953,-64.1501,0,0,3.70089,5
1774536483117,0.0366209,0.852056,-0.472655,3.7732,132.237,-60.9726,0,0,3.2838,5
1774536483130,0.0776338,0.891599,-0.496092,2.52034,131.909,-55.1127,0,0,3.26213,5
1774536483143,0.176995,0.834965,-0.487549,0.86425,125.8,-51.9421,0,0,3.27986,5
1774536483157,0.374254,0.906977,-0.512694,-0.121153,117.07,-45.6704,0,0,3.25999,5
1774536483170,0.536366,0.858646,-0.492433,-2.50906,101.924,-36.1317,0,0,3.2995,5
1774536483184,0.605464,0.839357,-0.496093,-4.67722,84.8262,-29.6324,0,0,3.25684,5
1774536483197,0.742178,0.834473,-0.463137,-7.79841,63.3955,-17.2871,0,0,3.64245,5
1774536483211,0.896718,0.851073,-0.47705,-11.9729,37.6135,-5.82062,0,0,3.27747,5
1774536483224,1.23752,1.17893,-0.47461,1.17008,-0.610669,9.28262,0,0,3.25034,5
1774536483238,0.260566,1.16528,-0.549067,-3.41527,-10.3033,-12.3372,0,0,3.2803,5
1774536483251,0.206059,0.798366,-0.562011,-7.31671,-18.9761,-24.1485,0,0,3.25302,5
1774536483264,0.0922931,0.850094,-0.553223,-2.15783,-18.7102,-28.6139,0,0,3.29054,3
1774536483278,-0.0185469,0.847168,-0.514895,3.12449,-16.6433,-27.9167,0,0,3.25713,3
1774536483291,-0.0895946,0.94677,-0.579341,2.42055,-15.7642,-23.1117,0,0,3.29887,3
1774536483305,-0.048831,0.927492,-0.562989,-0.439891,-13.8416,-18.0966,0,0,3.2815,3
1774536483318,-0.0483399,0.851568,-0.579833,-2.40262,-8.35662,-10.9766,0,0,3.60561,3
1774536483332,-0.0371102,0.861572,-0.574219,-2.0004,-4.4314,-6.12698,0,0,3.27675,3
1774536483345,0.0336865,0.935053,-0.55713,-0.482432,-2.74215,-5.11551,0,0,3.25565,3
1774536483359,0.0673805,0.929688,-0.554444,0.983269,-2.98449,-6.60157,0,0,3.28121,3
1774536483372,0.0317408,0.896975,-0.57495,1.7092,-3.75496,-7.91472,0,0,3.25341,3
1774536483385,0.0163585,0.902343,-0.564698,1.05409,-3.87774,-7.13818,0,0,3.32395,3
1774536483399,0.0429669,0.890626,-0.572997,0.855161,-4.92262,-8.2813,0,0,3.61943,3
1774536483413,0.0175799,0.899902,-0.561768,-0.304185,-5.5795,-7.13092,0,0,3.83383,3
1774536483427,0.00439545,0.907226,-0.568359,-1.22808,-5.27511,-5.97825,0,0,3.26667,3
1774536483440,0.0019533,0.903321,-0.560792,-0.695189,-4.60372,-5.3899,0,0,3.25987,3
1774536483453,-0.0134267,0.910644,-0.569335,-1.04545,-4.08449,-3.48282,0,0,3.30658,3
1774536483467,0.00707864,0.926268,-0.564698,-0.534861,-1.9487,-2.1235,0,0,3.2665,3
1774536483480,0.00903307,0.918213,-0.558838,0.601918,-0.71116,-1.51206,0,0,3.31102,3
1774536483494,0.00927733,0.899415,-0.560791,0.816579,0.060298,-1.43519,0,0,3.25973,3
1774536483507,0.0109862,0.903564,-0.559326,1.15234,0.808413,-1.29785,0,0,3.30584,3
1774536483521,0.00463912,0.883058,-0.562744,1.25943,0.976931,-1.14519,0,0,3.26761,3
1774536483534,0.00585929,0.899657,-0.562744,1.11465,1.25163,-1.18317,0,0,3.59408,3
1774536483548,0.0180656,0.891114,-0.558838,0.64932,0.763846,-1.81616,0,0,3.27349,3
1774536483561,0.0122074,0.899658,-0.565185,0.892886,0.130404,-1.74816,0,0,3.25123,3
1774536483574,-0.000731516,0.89087,-0.562012,0.374564,0.411932,-1.58032,0,0,3.28511,3
1774536483588,0.0131826,0.897705,-0.561035,0.236779,0.427465,-1.68692,0,0,3.25487,3
1774536483602,-0.00463742,0.867922,-0.562744,-0.259047,1.18245,-1.05407,0,0,3.66334,3
1774536483615,-0.00122094,0.881591,-0.558838,-1.28905,2.16696,-1.30509,0,0,3.26688,3
1774536483629,0.0205063,0.891601,-0.567626,-1.2672,2.80852,-2.22046,0,0,3.71991,5
1774536483644,0.0136724,0.904052,-0.567871,-0.23767,2.05419,-1.97734,0,0,4.52063,5
1774536483657,0.0163572,0.892091,-0.560792,-0.175634,1.8094,-2.9761,0,0,3.26375,5
1774536483670,0.00463949,0.900146,-0.56372,-1.23558,1.62614,-2.34414,0,0,3.26945,5
1774536483684,0.00659166,0.899902,-0.55835,-1.29765,1.73272,-1.62667,0,0,3.25478,5
1774536483697,0.00830066,0.898438,-0.55957,-1.8239,1.53455,-1.63358,0,0,3.2721,5
1774536483710,-0.000243543,0.89087,-0.562988,-1.48126,0.672617,-1.45819,0,0,3.26778,5
1774536483724,0.0222152,0.885987,-0.561524,-1.69444,-0.0908404,-2.62479,0,0,3.27473,5
1774536483737,0.0112312,0.870851,-0.567138,-2.43438,-0.0839763,-1.8176,0,0,3.26387,5
1774536483750,0.0249014,0.891356,-0.570312,-3.08332,0.053298,-2.6709,0,0,3.24578,5
1774536483764,0.0117197,0.897461,-0.555421,-3.96096,0.236458,-4.2122,0,0,3.26167,5
1774536483777,0.0163571,0.901367,-0.558349,-2.90182,-0.335307,-5.48728,0,0,3.25202,5
1774536483790,-0.00121947,0.893555,-0.55957,-3.16005,-0.496023,-5.35891,0,0,3.2691,5
1774536483804,0.0019529,0.920408,-0.557129,-3.25182,-0.572443,-5.90022,0,0,3.48937,5
1774536483817,-0.0144032,0.898439,-0.545655,-3.20615,0.0680624,-5.12291,0,0,3.26489,5
1774536483831,-0.000245132,0.914306,-0.553466,-4.40338,0.678779,-4.01637,0,0,3.26126,5
1774536483844,-0.0102532,0.91626,-0.545167,-3.40558,0.931046,-2.58921,0,0,3.25656,5
1774536483858,-0.0166011,0.906495,-0.561522,-3.95365,1.58713,-1.04734,0,0,3.26449,5
1774536483871,-0.0163574,0.908203,-0.554688,-3.7483,2.0911,0.753926,0,0,3.2438,5
1774536483884,-0.0078131,0.921386,-0.553223,-3.21427,2.66355,2.86812,0,0,3.26563,5
1774536483898,0.0004877,0.917725,-0.561523,-2.41301,2.43534,4.34966,0,0,3.25063,5
1774536483911,-0.00488244,0.908204,-0.551026,-3.09093,3.14433,5.71619,0,0,3.33443,5
1774536483924,0.00122028,0.900147,-0.560058,-3.75506,3.48058,6.65555,0,0,3.25982,5
1774536483938,0.00317369,0.899658,-0.552491,-5.05214,3.58768,7.9529,0,0,3.28441,5
1774536483951,0.0070798,0.916991,-0.56079,-6.31934,3.74031,9.86069,0,0,3.26319,5
1774536483964,-0.00610259,0.890871,-0.559326,-8.15847,4.22089,12.3105,0,0,3.25215,5
1774536483978,-0.0173332,0.910887,-0.554444,-8.43484,5.25088,13.19,0,0,3.29612,5
1774536483992,0.0197728,0.916015,-0.556396,-8.39698,5.09176,12.7257,0,0,4.52926,5
1774536484008,-0.00414872,0.902833,-0.568847,-9.48746,6.60917,12.0312,0,0,4.98655,5
1774536484021,-0.0268539,0.901123,-0.534914,-11.3112,9.95086,9.04878,0,0,3.25739,5
1774536484034,-0.00879033,0.891602,-0.535644,-13.3034,13.5994,4.48547,0,0,3.25937,5
1774536484048,-0.0744583,0.92822,-0.529541,-11.2082,19.7572,2.39903,0,0,3.25478,5
1774536484061,-0.136714,0.911866,-0.504885,-11.8162,32.9792,-0.699195,0,0,3.25937,5
1774536484074,-0.312732,0.881594,-0.495606,-13.1437,61.2618,-12.7894,0,0,3.27237,5
1774536484088,-0.633034,0.904295,-0.518797,-12.779,115.274,-38.3409,0,0,3.25721,5
1774536484101,-0.834459,0.932859,-0.457524,-11.4212,188.492,-68.8703,0,0,3.27228,5
1774536484115,-0.51345,0.945312,-0.420169,-7.65262,250.068,-98.5734,0,0,3.27145,5
1774536484128,-0.128445,0.981443,-0.383547,-4.10278,250.13,-114.846,0,0,3.3141,5
1774536484141,0.120344,0.991699,-0.409422,-1.49116,250.13,-119.248,0,0,3.26184,5
1774536484155,0.2434,1.01318,-0.390382,0.799239,250.13,-116.926,0,0,3.30873,5
1774536484168,0.244385,1.03027,-0.36133,2.12082,250.13,-112.379,0,0,3.27986,5
1774536484182,0.137459,1.00757,-0.344484,2.80847,244.677,-107.676,0,0,3.25986,5
1774536484195,0.0649465,1.01172,-0.361571,4.41061,240.172,-106.009,0,0,3.2688,5
1774536484209,0.0100136,1.0332,-0.325686,8.19469,241.487,-107.304,0,0,3.5405,5
1774536484222,-0.0737246,1.04175,-0.339599,10.8599,249.633,-110.18,0,0,3.30062,5
1774536484235,-0.118649,1.03149,-0.363524,12.6547,250.129,-115.277,0,0,3.2523,5
1774536484249,-0.15698,1.02588,-0.356934,15.0968,250.13,-120.849,0,0,3.25839,5
1774536484262,-0.16748,1.00537,-0.258308,15.8237,250.13,-127.505,0,0,3.26717,5
1774536484275,-0.249994,1.07324,-0.236086,17.8148,250.13,-137.86,0,0,3.25778,5
1774536484289,-0.395009,1.06177,-0.09376,16.9551,250.13,-150.758,0,0,3.27886,5
1774536484302,-0.563465,1.17236,0.0624891,14.308,250.13,-166.023,0,0,3.25865,5
1774536484316,-0.153105,1.33422,-0.0832418,11.3846,250.13,-181.046,0,0,3.30291,5
1774536484329,0.0278194,1.27564,-0.0434598,26.8929,250.13,-195.581,0,0,3.25343,5
1774536484342,0.0629858,1.10597,0.041498,13.0139,250.13,-212.655,0,0,3.27687,5
1774536484356,0.16967,1.46531,-0.0329538,12.6187,250.13,-176.952,0,0,3.26845,5
1774536484369,0.164307,1.20803,-0.130364,21.1289,250.13,-139.8,0,0,3.25104,5
1774536484382,-0.213597,1.33129,-0.170163,26.7806,250.13,-134.875,0,0,3.26739,5
1774536484396,-0.440658,1.17848,-0.0463954,31.1254,250.13,-151.38,0,0,3.248,5
1774536484410,-0.352789,1.2727,0.0161089,32.0983,250.13,-159.175,0,0,3.69858,5
1774536484423,-0.184826,1.30835,0.0434551,38.5279,250.13,-147.927,0,0,3.26706,5
1774536484436,0.0341644,1.20289,0.0678694,45.5884,250.13,-134.067,0,0,3.26725,5
1774536484450,0.176015,1.12476,0.0673828,46.0148,250.13,-129.371,0,0,3.26336,5
1774536484463,0.200682,1.04249,0.0585944,42.9878,250.13,-129.039,0,0,3.25912,5
1774536484476,0.314933,1.01197,0.0559084,38.3176,250.13,-121.283,0,0,3.27097,5
1774536484490,0.453848,0.84425,0.0146513,26.9732,250.13,-116.219,0,0,3.24341,5
1774536484503,0.438478,0.892575,0.0429668,17.6048,250.13,-119.333,0,0,3.29258,5
1774536484517,0.495357,0.787849,0.00342074,3.06796,250.13,-100.355,0,0,3.34432,5
1774536484533,0.608879,0.952869,-0.157948,-3.48963,248.658,-104.706,0,0,4.93407,5
1774536484546,0.614746,0.897465,-0.240473,-6.14239,210,-114.082,0,0,3.26778,5
1774536484561,0.706048,0.926023,-0.348381,-7.73886,167.34,-117.264,0,0,4.07617,5
1774536484574,0.802483,0.81739,-0.390622,-10.9205,128.016,-107.399,0,0,3.26489,5
1774536484588,0.927726,0.767582,-0.421873,-21.9432,92.1961,-89.8115,0,0,3.2676,5
1774536484601,0.982174,0.833491,-0.516839,-24.2038,57.9731,-65.3527,0,0,3.26956,5
1774536484614,0.982422,0.829834,-0.589595,-23.0241,27.6181,-31.5147,0,0,3.33141,3
1774536484628,0.915532,0.94506,-0.746571,-14.8784,1.9188,1.34122,0,0,3.30293,3
1774536484641,0.779551,1.43527,-1.47285,6.44435,-24.6605,-9.25659,0,0,3.29134,3
1774536484655,0.566421,0.439035,-1.68529,-18.0061,-19.936,14.5792,0,0,3.30691,3
1774536484668,-0.345883,0.277355,-0.296728,9.17895,-2.53647,-21.5441,0,0,3.28732,3
1774536484682,0.589534,0.73654,-0.46947,-27.6807,-17.4355,-22.9909,0,0,3.29967,3
1774536484695,0.115756,1.06101,-0.471435,-16.3625,-30.2315,-21.8103,0,0,3.30847,3
1774536484708,-0.00658323,0.884534,-0.520993,-17.7238,-27.1024,-26.0873,0,0,3.278,3
1774536484722,-0.0202627,1.00878,-0.588862,-26.0527,-29.8293,-19.4418,0,0,3.30547,3
1774536484735,-0.146476,1.06323,-0.546146,-4.899,-13.2227,-19.0614,0,0,3.27373,3
1774536484748,-0.148437,0.865248,-0.548584,-7.28006,-8.44752,-10.2302,0,0,3.29034,3
1774536484762,-0.116701,0.901121,-0.583494,-8.63986,0.136463,1.29383,0,0,3.28278,3
1774536484775,-0.0551801,0.971919,-0.550784,-8.40481,6.01703,9.05332,0,0,3.28976,3
1774536484789,0.0336852,0.918461,-0.543702,-7.80213,8.79875,12.874,0,0,3.28661,3
1774536484802,0.0805631,0.889895,-0.523195,-6.99317,9.39635,12.0466,0,0,3.27271,3
1774536484815,0.104246,0.922849,-0.528076,-5.77221,7.0329,8.96491,0,0,3.29019,3
1774536484829,0.144284,0.943602,-0.523194,-5.4507,3.759,3.89057,0,0,3.28867,3
1774536484842,0.131104,0.886967,-0.522949,-5.86981,0.133393,-0.850226,0,0,3.3381,3
1774536484856,0.0971703,0.902831,-0.512696,-6.20577,-2.99687,-4.82046,0,0,3.28762,3
1774536484869,0.0427284,0.912841,-0.520751,-6.31287,-4.73872,-5.88443,0,0,3.29276,3
1774536484882,0.00757082,0.911621,-0.518067,-7.51788,-3.55081,-2.72072,0,0,3.28513,3
1774536484896,0.0302718,0.938231,-0.528808,-7.48858,-2.54299,0.27182,0,0,3.26002,3
1774536484909,0.0207526,0.931153,-0.520264,-6.68782,-1.23032,1.7695,0,0,3.28832,3
1774536484923,0.0334464,0.925049,-0.512208,-6.15321,0.044528,3.46396,0,0,3.28987,3
1774536484936,0.0424798,0.925781,-0.517822,-5.38245,1.13631,4.274,0,0,3.29834,5
1774536484949,0.0622545,0.940673,-0.520019,-4.26829,1.32805,3.87063,0,0,3.27838,5
1774536484963,0.0698237,0.942383,-0.51709,-3.54271,1.03083,3.34404,0,0,3.27936,5
1774536484976,0.0544444,0.919679,-0.51709,-3.10731,0.0391586,2.09285,0,0,3.2821,5
1774536484990,0.0644524,0.92334,-0.51709,-3.39666,-1.62429,0.543533,0,0,3.27286,5
1774536485003,0.072021,0.927002,-0.516602,-3.40457,-2.66308,-0.304496,0,0,3.28837,5
1774536485016,0.0629889,0.921387,-0.51831,-3.54185,-3.26657,-1.01456,0,0,3.29126,3
1774536485030,0.0517586,0.933349,-0.506348,-3.22932,-3.43495,-1.7016,0,0,3.31137,3
1774536485043,0.0607904,0.939453,-0.505371,-2.25288,-3.15295,-2.5869,0,0,3.28084,3
1774536485057,0.0314962,0.924317,-0.512451,-1.96975,-2.45108,-1.83281,0,0,3.26875,3
1774536485070,0.0295412,0.937987,-0.512939,-1.41277,-1.49714,-1.14572,0,0,3.26971,3
1774536485084,0.0456532,0.93042,-0.524413,-0.733503,-0.870855,-0.260426,0,0,3.69304,3
1774536485097,0.0361335,0.926514,-0.509034,-1.03024,-0.481305,0.62507,0,0,3.26773,3
1774536485111,0.0402829,0.921143,-0.508789,-1.30507,-0.320771,1.51057,0,0,3.24469,3
1774536485124,0.0603013,0.918213,-0.506836,-1.74002,-0.503634,1.40469,0,0,3.27978,3
1774536485137,0.0446788,0.908936,-0.518066,-1.92348,-0.702092,1.86976,0,0,3.27519,3
1774536485151,0.0825169,0.926024,-0.498537,-2.89979,-1.08359,1.91598,0,0,3.33828,3
1774536485164,0.0568866,0.918702,-0.515136,-2.43558,-1.01534,1.23732,0,0,3.26247,3
1774536485178,0.0588378,0.92749,-0.506348,-1.93943,-1.38131,0.336778,0,0,3.78439,3
1774536485192,0.0520024,0.932129,-0.508057,-1.65677,-1.7096,-0.304703,0,0,3.28187,3
1774536485205,0.0690906,0.927002,-0.501221,-1.44296,-1.99971,-1.27384,0,0,3.28187,3
1774536485219,0.0554209,0.909669,-0.506591,-1.51901,-2.25166,-1.34344,0,0,3.28097,3
1774536485232,0.0505375,0.916015,-0.491456,-1.77837,-2.48069,-1.46553,0,0,3.27163,3
1774536485245,0.0383309,0.899415,-0.512206,-2.5336,-2.19875,-0.337005,0,0,3.36628,3
1774536485259,0.0561511,0.921629,-0.498536,-2.73263,-2.64841,0.0530455,0,0,3.25897,3
1774536485272,0.0234398,0.93994,-0.500488,-4.05974,-1.82525,1.61676,0,0,3.30493,3
1774536485286,0.0632296,0.951659,-0.516112,-2.80278,-2.45738,0.0549953,0,0,3.27156,3
1774536485300,0.0422378,0.938477,-0.508057,-2.72527,-2.65629,-0.617649,0,0,3.58919,3
1774536485313,0.0571279,0.939941,-0.506836,-2.84721,-2.30569,-1.06825,0,0,3.27971,3
1774536485326,0.0444345,0.927735,-0.518798,-3.08373,-2.50362,-1.25935,0,0,3.24965,3
1774536485340,0.0397952,0.921143,-0.512696,-3.20598,-2.2064,-0.489319,0,0,3.29065,3
1774536485353,0.0427244,0.920654,-0.505372,-3.95345,-1.90869,0.388436,0,0,3.27147,3
1774536485366,0.0451658,0.924804,-0.493897,-4.1906,-1.78638,1.18241,0,0,3.27565,3
1774536485380,0.0324716,0.922852,-0.477052,-3.80954,-1.76338,2.19746,0,0,3.26371,3
1774536485394,0.0368649,0.935058,-0.482177,-3.06182,-1.56508,1.51214,0,0,3.71228,3
1774536485407,0.0461419,0.909426,-0.491943,-3.4805,-2.05295,1.38181,0,0,3.26752,3
1774536485420,0.06079,0.918701,-0.49707,-3.34365,-2.05343,1.3283,0,0,3.24415,3
1774536485434,0.0510261,0.93579,-0.481935,-2.51228,-2.20595,-0.456233,0,0,3.27637,3
1774536485447,0.0520019,0.936768,-0.480469,-1.44382,-2.22136,-1.93745,0,0,3.25123,3
1774536485461,0.0541991,0.933594,-0.493651,-0.748786,-2.61792,-2.56426,0,0,3.29519,3
1774536485474,0.0507815,0.932861,-0.487549,-0.382046,-2.34379,-2.52676,0,0,3.25797,3
1774536485488,0.044434,0.942138,-0.488037,0.304657,-1.8707,-2.1988,0,0,3.93352,3
1774536485501,0.0305186,0.944092,-0.497314,1.1137,-1.81685,-1.30624,0,0,3.27295,3
1774536485515,0.0297852,0.937745,-0.490235,1.54156,-1.33636,-0.44361,0,0,3.24586,3
1774536485528,0.0322264,0.935059,-0.499511,1.67925,-0.95458,0.472367,0,0,3.27384,3
1774536485542,0.0444327,0.921144,-0.497803,1.1837,-1.32025,0.953718,0,0,3.27652,3
1774536485556,0.0498043,0.919922,-0.494873,0.557877,-1.35111,1.3965,0,0,3.31162,3
1774536485569,0.0590814,0.921875,-0.496826,0.313222,-1.7477,0.756365,0,0,3.27665,3
1774536485584,0.0512701,0.917725,-0.493653,0.0384424,-1.96924,0.176152,0,0,4.79055,3
1774536485597,0.0439458,0.918213,-0.495361,-0.0304655,-1.93134,-0.548894,0,0,3.25769,3
1774536485611,0.0500484,0.927001,-0.490723,0.327886,-1.94655,-1.27408,0,0,3.74306,3
1774536485625,0.0432134,0.926025,-0.49414,0.351122,-1.62627,-1.22905,0,0,3.27473,3
1774536485638,0.0297861,0.932373,-0.503417,0.450283,-1.16077,-0.466411,0,0,3.26949,3
1774536485651,0.0349118,0.932129,-0.493165,0.709665,-0.763755,-0.168237,0,0,3.27691,3
1774536485665,0.0395505,0.919434,-0.500488,0.359129,-0.549832,0.564154,0,0,3.24882,3
1774536485680,0.0358889,0.920166,-0.504638,0.13,-0.366595,1.20547,0,0,3.29062,5
1774536485693,0.036621,0.927734,-0.497315,0.0992673,-0.450298,1.49589,0,0,3.25521,5
1774536485708,0.0424801,0.932617,-0.499512,0.0839847,-0.679161,1.80885,0,0,4.72931,5
1774536485721,0.0380862,0.930664,-0.492432,0.213611,-0.496366,1.68714,0,0,3.28628,5
1774536485736,0.0537098,0.933838,-0.491943,0.564535,-1.09101,1.36673,0,0,4.39515,5
1774536485749,0.0456549,0.932861,-0.501708,0.656397,-1.18311,1.01562,0,0,3.2761,5
1774536485762,0.0437013,0.927979,-0.489259,0.633611,-1.03069,0.565335,0,0,3.25132,5
1774536485776,0.0439453,0.926758,-0.497558,0.770855,-1.48809,0.320855,0,0,3.27749,5
1774536485789,0.0397952,0.927734,-0.493408,0.999771,-1.10725,0.190969,0,0,3.25769,5
1774536485804,0.0373537,0.929687,-0.497558,1.39655,-1.51867,0.0459464,0,0,3.2841,5
1774536485817,0.0463861,0.93042,-0.494629,1.55709,-1.35131,0.221199,0,0,3.25565,5
1774536485832,0.0339364,0.926026,-0.489746,1.72502,-1.15287,0.66368,0,0,4.73609,5
1774536485845,0.0354003,0.930175,-0.495849,1.51929,-0.66461,0.915779,0,0,3.27228,5
1774536485859,0.0373534,0.931396,-0.506835,1.90801,-0.572611,0.961786,0,0,3.88806,5
1774536485873,0.0356447,0.932129,-0.496827,1.80926,-0.671657,1.3355,0,0,3.2753,5
1774536485886,0.0427241,0.934326,-0.506591,2.25147,-0.374343,1.58753,0,0,3.26382,5
1774536485900,0.0437011,0.931153,-0.504883,2.30529,-0.488436,1.80131,0,0,3.27491,5
1774536485913,0.0368657,0.937011,-0.492921,2.75528,-0.45042,1.77102,0,0,3.2576,5
1774536485928,0.0463861,0.938476,-0.496582,3.46494,-0.801176,1.58034,0,0,4.63922,5
1774536485941,0.0378424,0.928712,-0.500976,3.99947,-0.954046,1.36663,0,0,3.52004,5
1774536485956,0.0466302,0.922852,-0.502197,3.86273,-0.824557,1.49605,0,0,4.68974,5
1774536485970,0.0454102,0.927002,-0.502441,4.06087,-0.976947,1.24453,0,0,3.25643,5
1774536485984,0.0417483,0.917237,-0.510742,3.77128,-1.04573,1.50356,0,0,3.96107,5
1774536485997,0.0549307,0.938475,-0.496827,3.96164,-1.16782,1.63346,0,0,3.27221,5
1774536486010,0.0434578,0.926026,-0.515624,3.97708,-1.07643,1.86999,0,0,3.24645,5
1774536486024,0.0441894,0.923584,-0.50879,3.54242,-0.824679,2.36592,0,0,3.28584,5
1774536486037,0.0415041,0.922607,-0.511474,3.57249,-0.534641,2.88498,0,0,3.2498,5
1774536486052,0.0307625,0.93579,-0.511963,4.09108,-0.275068,3.58708,0,0,3.28636,5
1774536486065,0.0219733,0.932129,-0.513184,4.14498,0.556421,4.69355,0,0,3.26976,5
1774536486079,0.0488262,0.935547,-0.514648,4.53396,0.976679,5.95294,0,0,3.69471,5
1774536486093,0.0302747,0.943359,-0.516357,5.5181,1.61768,6.59478,0,0,3.30984,5
1774536486106,0.0349118,0.933594,-0.509278,6.24355,2.03012,6.95384,0,0,3.2886,5
1774536486120,0.0556626,0.916993,-0.503418,6.52643,2.43471,7.00758,0,0,3.29462,5
1774536486133,0.0246604,0.939207,-0.530272,11.4455,3.65527,8.31167,0,0,3.24075,5
1774536486147,0.0483382,0.971433,-0.510988,11.0691,2.72612,7.71815,0,0,3.27599,5
1774536486160,0.157707,0.954835,-0.63256,13.4938,-0.645487,12.2626,0,0,3.25408,5
1774536486174,-0.0944648,1.34226,-0.551519,32.9195,1.04411,9.29304,0,0,3.29013,5
1774536486187,0.198954,1.02248,-0.544922,33.8159,-1.59279,13.8047,0,0,3.25265,5
1774536486200,0.087166,1.20726,-0.558593,43.2654,-1.91571,18.705,0,0,3.26789,5
1774536486214,0.207511,1.2085,-0.571532,50.855,-2.02279,31.064,0,0,3.48973,5
1774536486227,0.159915,1.60617,-0.607419,67.716,-11.0673,13.6739,0,0,3.24673,5
1774536486241,0.152344,1.37965,-0.586183,81.5129,-13.4328,8.09717,0,0,3.34363,5
1774536486254,0.258049,1.32788,-0.601073,93.1792,-19.2919,7.42052,0,0,3.27849,5
1774536486267,0.251954,1.37378,-0.619628,106.544,-24.3003,11.2252,0,0,3.29017,5
1774536486281,0.284666,1.33936,-0.614502,118.05,-29.5139,13.6769,0,0,3.27056,5
1774536486294,0.374994,1.2566,-0.598634,128.463,-37.0383,21.4045,0,0,3.28302,5
1774536486308,0.328128,1.04787,-0.454356,128.755,-45.5716,28.3823,0,0,3.26491,5
1774536486321,-0.0993353,0.204161,-0.485594,95.8725,-48.9051,10.0565,0,0,3.2486,5
1774536486334,-0.23583,0.340567,-0.225604,6.40998,-32.9015,-6.15175,0,0,3.28123,5
1774536486348,0.000471741,1.03193,-0.411852,-21.8496,-25.4731,-9.1573,0,0,3.36384,5
1774536486361,0.103264,1.31932,-0.5039,-0.555624,-24.3218,0.684824,0,0,3.28036,5
1774536486375,-0.0285552,0.839877,-0.342541,3.57603,-23.4513,4.95756,0,0,3.25278,5
1774536486388,-0.0974073,0.761968,-0.274419,-11.0312,-17.2505,-2.1532,0,0,3.26149,5
1774536486402,-0.0205132,0.789305,-0.218754,-21.9433,-11.3952,-13.1798,0,0,3.60163,3
1774536486415,0.100577,0.751467,-0.146734,-30.5487,-11.2978,-13.9382,0,0,3.265,3
1774536486428,0.158687,0.665777,-0.0610412,-42.5224,-12.6704,-3.87265,0,0,3.26947,3
1774536486442,0.145509,0.631106,-0.000980766,-57.1381,-12.3438,7.11879,0,0,3.25339,3
1774536486455,0.0835004,0.617921,0.0329566,-71.8632,-10.1854,14.5575,0,0,3.28728,3
1774536486468,0.0419951,0.68066,0.017091,-83.904,-8.38348,16.845,0,0,3.24967,3
1774536486482,0.0129415,0.681152,0.031249,-93.7306,-4.91187,17.4498,0,0,3.30306,3
1774536486495,-0.00659043,0.688476,0.0324706,-103.296,0.0484797,21.1566,0,0,3.26771,3
1774536486509,-0.0378396,0.68335,0.052733,-117.139,6.19234,26.6891,0,0,3.28573,3
1774536486522,-0.0832488,0.724851,0.0502931,-130.536,13.6338,29.5086,0,0,3.26684,3
1774536486535,-0.102294,0.777828,0.0310072,-143.46,20.1309,25.5764,0,0,3.24647,3
1774536486549,-0.0751972,0.896476,-0.0134246,-150.649,24.8884,20.0818,0,0,3.38867,3
1774536486562,-0.0415063,0.957515,-0.0522434,-154.126,28.0503,18.269,0,0,3.24923,3
1774536486576,-0.053466,0.938966,-0.0627434,-161.695,31.5461,18.8696,0,0,3.54102,3
1774536486590,-0.0285662,0.994869,-0.0725091,-173.088,35.8125,15.6139,0,0,3.28669,3
1774536486604,0.023678,1.16405,-0.138911,-176.92,37.6241,10.4403,0,0,3.33758,3
1774536486618,0.0644503,1.19702,-0.167723,-176.969,38.3199,7.59063,0,0,3.31436,5
1774536486632,0.0742181,1.23388,-0.178954,-180.782,39.0451,5.55928,0,0,3.28389,5
1774536486648,0.0732423,1.32446,-0.207273,-180.054,41.814,2.80428,0,0,3.3096,5
1774536486661,0.0842277,1.38696,-0.204102,-173.327,43.7385,0.0104247,0,0,3.28186,5
1774536486675,0.0822755,1.3313,-0.126226,-168.57,46.9281,-2.98937,0,0,3.31637,5
1774536486689,0.0791018,1.37109,-0.0712929,-167.383,52.4754,-4.07525,0,0,3.32454,5
1774536486703,0.107176,1.38916,-0.0493179,-166.436,58.2156,-5.7388,0,0,3.26367,5
1774536486716,0.156491,1.42993,-0.106685,-166.961,63.1706,3.1743,0,0,3.28321,5
1774536486732,0.191892,1.47607,-0.219963,-161.059,62.7409,8.31547,0,0,3.27899,5
1774536486745,0.293206,1.49536,-0.351553,-148.585,53.5207,1.3886,0,0,3.26119,5
1774536486759,0.361079,1.32936,-0.449456,-136.646,40.9591,7.6121,0,0,3.68541,5
1774536486773,0.368164,1.26148,-0.519282,-124.729,27.0444,16.3348,0,0,3.28736,5
1774536486787,0.333987,1.16871,-0.582271,-111.67,13.1284,21.2241,0,0,3.32141,5
1774536486800,0.312502,1.15601,-0.632321,-93.0873,-2.1298,15.9747,0,0,3.27862,5
1774536486815,0.212409,1.01759,-0.630127,-74.8045,-15.3837,17.4794,0,0,3.30097,5
1774536486830,0.114753,1.01685,-0.571049,-59.2751,-23.1983,13.7747,0,0,4.37093,5
1774536486843,0.0290587,0.938238,-0.48609,-42.3528,-26.348,7.899,0,0,3.24195,5
1774536486857,0.0576152,0.900882,-0.381843,-31.7129,-28.2119,4.36994,0,0,3.28928,5
1774536486871,0.0974093,0.936765,-0.28614,-19.5923,-29.7694,2.2464,0,0,3.24849,5
1774536486886,0.0998533,0.82203,-0.194586,-12.9303,-30.8844,0.139509,0,0,4.62998,5
1774536486899,0.133054,0.900873,-0.156253,-4.81727,-31.6557,-3.21802,0,0,3.25489,5
1774536486913,0.151122,0.888184,-0.0974162,3.23623,-31.5574,-4.228,0,0,3.99691,3
1774536486926,0.144043,0.877198,-0.059573,8.46806,-29.422,-3.84771,0,0,3.27267,3
1774536486940,0.119142,0.893554,-0.0375992,13.4607,-27.0558,-7.7442,0,0,3.25969,3
1774536486953,0.107423,0.92407,-0.0090352,18.7199,-23.5379,-8.99875,0,0,3.3148,3
1774536486967,0.129637,0.91919,0.0300266,22.9423,-20.8576,-11.181,0,0,3.24621,3
1774536486980,0.139892,0.90381,0.0422355,26.4926,-16.6683,-9.81053,0,0,3.29175,3
1774536486994,0.11548,0.946774,0.0346685,30.7362,-10.815,-6.09531,0,0,3.25602,3
1774536487009,0.0969251,0.949463,0.0458977,34.6602,-4.95242,-6.69406,0,0,4.91679,3
1774536487022,0.133542,1.02246,0.0507809,42.0766,-0.0735763,-8.54014,0,0,3.2548,3
1774536487036,0.175046,1.00073,0.0957,47.7653,1.50987,-8.06155,0,0,3.89924,3
1774536487050,0.17749,1.05688,0.116698,55.4351,1.1149,-8.08395,0,0,3.27317,3
1774536487063,0.17334,0.98438,0.147947,58.333,-1.54696,-11.8359,0,0,3.27013,3
1774536487077,0.198973,1.05395,0.166991,61.3405,-7.51312,-15.8204,0,0,3.27776,3
1774536487090,0.232908,1.00635,0.177734,63.1661,-16.0983,-17.8529,0,0,3.2486,3
1774536487107,-0.731622,3.99967,0.693079,223.359,-32.9603,-88.6087,0,0,6.22477,3
1774536487121,0.0126432,1.39081,0.22391,140.228,-86.397,-97.0603,0,0,3.41223,3
1774536487134,-0.479702,0.344067,0.0493286,167.118,-62.7031,-61.9664,0,0,3.32482,3
1774536487147,-0.133325,0.928914,0.0678698,176.99,-42.7985,-42.0123,0,0,3.28013,3
1774536487161,-0.0844761,1.12792,-0.0202575,179.905,-31.2558,-35.4646,0,0,3.32684,3
1774536487174,-0.166986,1.05811,-0.113763,173.815,-19.7977,-24.8884,0,0,3.27443,3
1774536487188,-0.0222269,0.954109,-0.149656,164.056,-13.0678,-19.5244,0,0,3.60639,3
1774536487201,-0.0634737,0.889409,-0.225581,150.929,-7.50174,-11.6796,0,0,3.27471,5
1774536487215,-0.0424819,0.932858,-0.252195,138.562,-4.31616,1.36102,0,0,3.24617,5
1774536487228,-0.029786,0.917482,-0.290769,126.676,-4.95356,15.2075,0,0,3.2958,5
1774536487242,-0.000978579,0.945555,-0.315184,115.912,-6.79968,24.6623,0,0,3.25204,5
1774536487255,0.015868,0.976072,-0.313233,108.832,-7.11419,30.2311,0,0,3.27871,2
1774536487268,0.121086,1.00122,-0.305665,105.027,-7.95336,24.0443,0,0,3.2735,2
1774536487282,0.0210031,0.930669,-0.3457,99.3949,-3.45488,20.5455,0,0,3.79346,2
1774536487296,0.183338,0.914796,-0.369139,93.319,-2.83268,9.73599,0,0,3.28278,2
1774536487309,0.0915592,0.918213,-0.385009,88.6535,-2.25249,2.12211,0,0,3.25663,2
1774536487322,0.119383,0.884768,-0.430173,79.8409,-3.05264,-5.17592,0,0,3.27669,2
1774536487336,0.111817,0.873536,-0.434814,71.6189,-3.5415,-11.6958,0,0,3.25176,2
1774536487349,0.106934,0.838381,-0.478513,63.0315,-1.92528,-12.5869,0,0,3.30456,3
1774536487363,0.0876478,0.851806,-0.505369,54.0014,-4.94355,-11.7184,0,0,3.2843,3
1774536487376,-0.077381,0.886472,-0.457523,41.6612,1.22285,0.407733,0,0,3.64678,3
1774536487390,-0.00122603,0.866212,-0.520992,34.0992,3.66169,9.24308,0,0,3.26763,3
1774536487403,-0.0285625,0.854737,-0.524902,22.7823,7.4466,16.8626,0,0,3.2483,3
1774536487416,0.0778734,0.904293,-0.552977,16.9981,6.90131,19.8291,0,0,3.2803,5
1774536487430,0.0793456,0.77125,-0.555664,5.66781,6.54997,16.3089,0,0,3.25317,5
1774536487443,0.102537,0.727054,-0.503178,-10.114,6.51911,8.87003,0,0,3.51045,5
1774536487457,0.111816,0.723877,-0.496827,-30.4377,7.34269,3.73033,0,0,3.259,5
1774536487470,0.139402,0.751463,-0.479249,-47.319,6.06235,2.48216,0,0,3.42741,5
1774536487484,0.143799,1.15451,-0.473145,-50.6074,2.14132,-0.531341,0,0,3.26932,5
1774536487497,0.0791061,1.5925,-0.471436,-8.2713,-1.36291,1.2425,0,0,3.6085,5
1774536487511,0.0671395,0.996868,-0.471436,27.2165,-2.04512,1.06125,0,0,3.2761,5
1774536487524,0.059815,0.915533,-0.455568,7.30996,-0.833272,3.79879,0,0,3.25601,5
1774536487538,0.0637204,1.02709,-0.466064,20.2085,1.12781,5.07506,0,0,3.29087,5
1774536487551,0.0913067,0.882578,-0.458008,12.3971,1.38905,3.61215,0,0,3.25423,5
1774536487564,0.135007,0.999504,-0.453125,18.124,0.352181,-1.49871,0,0,3.46393,5
1774536487578,0.113283,0.862558,-0.464843,13.6228,-1.49434,-5.21766,0,0,3.27686,5
1774536487592,0.127685,0.939204,-0.467041,14.1903,-1.90036,-9.01148,0,0,3.72421,5
1774536487605,0.0874052,0.892581,-0.465332,10.9574,-2.83876,-9.77786,0,0,3.27004,5
1774536487618,0.0822757,0.948482,-0.467773,12.3726,-3.68618,-11.1437,0,0,3.2515,5
1774536487632,0.0983875,0.921877,-0.481933,10.765,-4.71653,-12.2127,0,0,3.3435,5
1774536487645,0.085206,0.92749,-0.481689,11.1752,-5.28188,-14.6312,0,0,3.33823,5
1774536487659,0.112303,0.938964,-0.467774,10.6799,-6.37296,-17.9814,0,0,3.31375,5
1774536487672,0.0947278,0.930176,-0.491453,14.0272,-6.40455,-20.0209,0,0,3.27171,5
1774536487686,0.0529814,0.945556,-0.492187,13.5043,-5.99278,-18.4672,0,0,4.02198,5
1774536487700,0.0651847,0.974851,-0.484376,16.7754,-5.30603,-16.3304,0,0,3.26534,5
1774536487713,-0.00243667,0.928958,-0.496093,16.8778,-3.43698,-11.9967,0,0,3.26167,5
1774536487726,-0.0183094,0.931396,-0.51245,14.7807,-2.80216,-6.88297,0,0,3.26937,5
1774536487740,0.00854304,0.893069,-0.495851,13.7567,-2.87016,-3.60633,0,0,3.25841,5
1774536487753,0.0571255,0.920408,-0.502929,10.9036,-4.01412,-1.24663,0,0,3.28593,5
1774536487767,0.0874002,0.951658,-0.526121,11.0304,-5.86075,0.0216338,0,0,3.27997,5
1774536487780,0.0639665,0.935548,-0.487307,13.5852,-5.54993,0.907512,0,0,3.30228,5
1774536487793,0.0473644,0.897952,-0.518797,11.5516,-5.7784,5.45347,0,0,3.26712,3
1774536487807,0.0373542,0.967524,-0.518311,11.6793,-5.47359,6.40363,0,0,3.63689,3
1774536487821,0.0878871,0.948244,-0.538329,11.7556,-6.52567,12.6655,0,0,3.38086,3
1774536487834,0.0366247,1.1101,-0.560789,23.5226,-3.6746,13.8919,0,0,3.26143,3
1774536487847,-0.0517516,1.10376,-0.572753,22.3599,0.0954703,19.3838,0,0,3.30454,3
1774536487861,0.0786042,1.38157,-0.595457,44.108,5.21626,31.3087,0,0,3.26278,3
1774536487874,0.0261267,0.941437,-0.555179,36.1072,4.64942,35.7513,0,0,3.28991,3
1774536487888,0.0656711,1.18016,-0.587644,44.6251,5.09879,38.4477,0,0,3.27734,3
1774536487901,0.0927715,1.19897,-0.578858,52.9306,2.4454,30.466,0,0,3.72993,3
1774536487915,0.125974,1.46043,-0.584716,76.9073,0.238846,23.8692,0,0,3.26613,5
1774536487928,0.127197,1.42261,-0.593261,95.8818,-2.34093,22.1086,0,0,3.2456,5
1774536487942,0.163083,1.31324,-0.568605,113.013,-5.3939,16.5628,0,0,3.28378,5
1774536487955,0.0961961,1.25855,-0.568848,127.985,-7.65423,13.1866,0,0,3.2598,5
1774536487969,0.043949,1.41332,-0.593992,144.93,-7.38195,12.5884,0,0,3.63809,5
1774536487982,0.0556632,1.49682,-0.592041,165.941,-6.25304,15.7297,0,0,3.27765,5
1774536487996,0.202138,1.49976,-0.554446,189.793,-9.18028,9.12873,0,0,3.78967,5
1774536488010,0.217284,1.62035,-0.641107,215.882,-13.2021,7.4368,0,0,3.28445,5
1774536488023,0.222412,1.71557,-0.600345,242.897,-18.1935,4.33135,0,0,3.25352,5
1774536488036,0.331291,1.60572,-0.61743,250.123,-25.0466,-2.13095,0,0,3.27504,5
1774536488050,0.509509,1.82884,-0.625488,250.13,-38.4523,-8.77199,0,0,3.26376,5
1774536488063,0.616203,1.78711,-0.577152,250.13,-52.4669,-13.3084,0,0,3.29015,5
1774536488076,0.490976,1.71753,-0.681145,250.13,-56.4312,6.34678,0,0,3.26787,5
1774536488090,0.360849,1.45192,-0.832509,250.13,-65.5329,28.3444,0,0,3.31269,5
1774536488103,0.20216,1.81711,-0.903071,250.13,-49.3444,59.6405,0,0,3.27462,5
1774536488117,0.536109,1.54665,-0.623066,250.13,-48.1996,134.414,0,0,3.61098,5
1774536488130,0.438728,1.59863,-0.354267,250.13,-57.4869,197.372,0,0,3.27982,3
1774536488144,0.328377,1.73022,0.178674,250.13,-83.9507,204.298,0,0,3.28497,3
1774536488157,0.126479,1.84203,0.186523,250.13,-122.092,146.165,0,0,3.32171,3
1774536488171,-0.391565,-0.633372,-0.338342,250.13,-124.097,42.7903,0,0,3.40526,3
1774536488184,-0.573718,0.331231,-0.0549515,250.13,-109.747,-26.061,0,0,3.2693,3
1774536488198,-0.829328,-0.696461,-0.144525,206.883,-62.1544,-53.4459,0,0,3.28354,3
1774536488211,-0.681651,-0.655765,-0.134766,116.571,-17.7924,-81.2242,0,0,3.75124,3
1774536488225,-0.441667,-0.699948,0.00316417,27.5241,15.9053,-104.992,0,0,3.27958,3
1774536488238,-0.157246,-0.799798,0.0563928,-60.7668,30.9849,-106.464,0,0,3.25023,1
1774536488252,0.0986149,-0.119921,-0.136461,-118.66,33.3259,-87.3778,0,0,3.27949,1
1774536488265,0.318588,0.0395396,-0.214106,-156.054,21.7444,-60.9882,0,0,3.27417,1
1774536488278,0.385737,-0.116444,-0.148198,-194.519,-2.30422,-47.8376,0,0,3.30302,1
1774536488292,0.402098,-0.301012,-0.0649472,-241.777,-36.2485,-52.4458,0,0,3.26858,1
1774536488305,0.323004,-0.578106,0.118884,-250.129,-68.9978,-57.5216,0,0,3.29823,1
1774536488318,0.229743,-0.419933,0.234123,-250.137,-93.975,-44.7837,0,0,3.27475,1
1774536488332,0.110604,0.184772,0.150396,-250.137,-102.968,-5.46676,0,0,3.31295,1
1774536488345,0.0251525,0.601777,0.0454175,-250.137,-94.1081,49.4108,0,0,3.27287,1
1774536488359,-0.195297,0.825668,-0.0749427,-250.137,-69.8639,101.688,0,0,3.25908,1
1774536488372,-0.480205,1.01805,-0.163812,-250.137,-29.9101,126.624,0,0,3.4668,1
1774536488386,-0.702133,1.10253,-0.331775,-250.137,13.5062,107.317,0,0,3.26243,1
1774536488399,-0.801507,0.902114,-0.359617,-250.137,54.6536,52.1467,0,0,3.29782,1
1774536488412,-0.547869,1.15379,-0.376464,-250.137,84.3596,-1.87733,0,0,3.26919,2
1774536488426,-0.207055,1.40379,-0.543445,-250.137,105.406,-11.1587,0,0,3.25102,2
1774536488439,0.122047,1.44458,-0.590817,-250.137,117.705,10.2229,0,0,3.27723,2
1774536488453,0.234611,1.30592,-0.566896,-250.137,124.276,32.9163,0,0,3.25515,2
1774536488466,0.211672,1.16114,-0.506352,-250.137,127.935,39.3371,0,0,3.26669,1
1774536488479,0.169925,1.38646,-0.522216,-250.137,127.451,28.4536,0,0,3.26993,5
1774536488493,0.135012,1.51708,-0.542723,-250.137,124.377,10.6132,0,0,3.28758,5
1774536488506,0.14331,1.35157,-0.464605,-250.137,121.377,0.54441,0,0,3.25834,5
1774536488520,0.317371,1.65745,-0.483885,-250.137,116.417,8.70177,0,0,3.93437,5
1774536488533,0.400873,2.02781,-0.747296,-250.137,107.375,29.9711,0,0,3.25099,5
1774536488547,0.399414,2.07251,-0.898427,-250.137,89.0565,33.6757,0,0,3.27604,5
1774536488560,0.37256,1.98585,-1.0017,-250.137,65.5655,11.9759,0,0,3.26852,5
1774536488574,0.591293,1.95288,-1.07592,-247.529,36.1363,-14.9044,0,0,3.35247,5
1774536488587,0.87376,1.76271,-1.16699,-221.537,4.97769,-5.29967,0,0,3.26374,5
1774536488601,0.958734,1.78369,-1.36449,-185.738,-25.9538,32.3441,0,0,3.27162,5
1774536488615,0.608667,1.64259,-1.44824,-139.519,-44.6683,72.7306,0,0,3.9448,5
1774536488628,-0.0805182,1.54615,-1.54736,-93.1684,-44.4277,77.3237,0,0,3.27662,5
1774536488641,-0.461887,1.33034,-1.54395,-45.437,-32.4166,32.846,0,0,3.25289,5
1774536488655,-0.353523,1.11281,-1.44263,-5.11662,-18.7617,-21.4725,0,0,3.27912,5
1774536488668,0.0981129,1.04322,-1.29493,22.9796,-8.53693,-29.2441,0,0,3.35224,5
1774536488682,0.362042,1.25072,-0.987814,35.621,-10.8221,-38.7539,0,0,3.4373,5
1774536488698,0.57518,1.12452,1.71148,249.916,-25.7713,-138.45,0,0,5.94851,3
1774536488712,-1.1305,3.36264,0.300392,214.783,-30.9872,-63.4642,0,0,3.43426,3
1774536488725,-0.386038,-0.465308,0.260745,250.094,11.9266,-42.3798,0,0,3.42734,3
1774536488739,-0.0781466,1.51744,-0.00706133,250.13,9.29271,-41.5733,0,0,3.49,3
1774536488753,0.0290452,0.978553,-0.233627,234.855,4.85939,-18.0312,0,0,3.44221,2
1774536488766,0.130852,0.822521,-0.275144,205.64,-16.7418,-4.18177,0,0,3.40376,2
1774536488783,-0.191384,0.858884,-0.384514,172.598,-20.706,19.8157,0,0,3.56347,2
1774536488796,-0.0261346,0.843751,-0.433834,149.504,-12.1155,24.034,0,0,3.42674,2
1774536488810,-0.0209965,0.920893,-0.447509,119.93,-1.33138,23.5348,0,0,3.42874,2
1774536488823,0.0302698,0.845953,-0.472654,98.1744,5.61901,19.4697,0,0,3.35597,2
1774536488840,0.0620095,0.856933,-0.427005,76.2509,5.19127,17.46,0,0,3.58445,2
1774536488855,0.144281,0.874266,-0.445555,62.548,0.0814406,7.53663,0,0,3.76169,2
1774536488868,0.0405346,0.818363,-0.510249,50.5463,-0.404095,-2.62344,0,0,3.32304,2
1774536488882,0.0458981,0.88769,-0.474368,37.9896,1.86796,-5.31792,0,0,3.25026,2
1774536488895,0.0344246,0.913572,-0.432864,31.5789,1.29065,0.375991,0,0,3.28582,2
1774536488908,0.0400387,0.985347,-0.420899,29.1703,1.25957,6.23079,0,0,3.25643,2
1774536488922,0.0686015,0.935062,-0.445067,27.5589,-0.0292468,9.14213,0,0,3.27184,5
1774536488935,0.087401,0.960203,-0.44751,23.0351,-1.07529,8.71798,0,0,3.25834,5
1774536488949,0.0708019,0.953614,-0.441895,22.4738,-0.885686,6.58991,0,0,3.26695,5
1774536488962,0.0893542,0.900394,-0.478269,18.4468,-0.420312,4.65079,0,0,3.27367,5
1774536488975,0.0773934,0.951168,-0.458009,16.155,0.220734,2.97877,0,0,3.27371,5
1774536488989,0.0895988,0.941163,-0.443116,14.8639,0.068854,1.42903,0,0,3.28974,5
1774536489002,0.0874025,0.918703,-0.453368,14.4584,-0.26684,-1.27211,0,0,3.2708,5
1774536489016,0.0593281,0.941405,-0.44751,12.1702,0.205635,-1.09941,0,0,3.25465,5
1774536489029,0.0681146,0.926026,-0.455078,11.8019,0.961077,0.441209,0,0,3.2878,5
1774536489042,0.081542,0.954588,-0.433351,12.0989,1.52615,-0.0300635,0,0,3.26662,5
1774536489056,0.0783694,0.926516,-0.446044,10.8638,1.31319,-0.251687,0,0,3.267,5
1774536489069,0.0869135,0.946044,-0.456298,10.1305,1.00031,-1.90674,0,0,3.27497,5
1774536489083,0.0913083,0.931398,-0.468505,9.77135,-0.121017,-2.65574,0,0,3.27713,5
1774536489096,0.0800789,0.917481,-0.470947,8.31443,-0.762718,-3.38858,0,0,3.27623,5
1774536489109,0.0708014,0.953123,-0.463379,7.30635,-1.73948,-2.76398,0,0,3.24771,5
1774536489123,0.049562,0.940675,-0.459961,7.32822,-1.85485,-1.81774,0,0,3.27912,5
1774536489136,0.0893527,0.955809,-0.464843,7.30537,-2.61756,-2.42687,0,0,3.25412,5
1774536489149,0.0878907,0.927736,-0.466797,7.62563,-2.16076,-3.10619,0,0,3.30499,5
1774536489163,0.0871583,0.9458,-0.455811,8.20553,-1.96966,-3.68644,0,0,3.25706,5
1774536489176,0.0822757,0.921388,-0.478758,6.91732,-1.67205,-3.90055,0,0,3.2746,5
1774536489190,0.0683603,0.943602,-0.476807,6.94654,-1.5955,-3.86263,0,0,3.43713,5
1774536489203,0.0773919,0.943604,-0.467286,6.65678,-2.12161,-3.81684,0,0,3.27999,5
1774536489217,0.0715336,0.954833,-0.472412,7.38096,-3.68546,-4.21334,0,0,3.28993,5
1774536489230,0.0749509,0.95044,-0.467774,7.48844,-4.12933,-4.29,0,0,3.26919,5
1774536489243,0.0795895,0.958496,-0.480224,9.09763,-5.08302,-4.92303,0,0,3.29723,5
1774536489257,0.0639659,0.926516,-0.472413,8.05448,-5.02296,-4.11531,0,0,3.26295,5
1774536489270,0.0383319,0.888919,-0.470703,5.88766,-3.91714,-0.926849,0,0,3.30673,5
1774536489284,0.0402831,0.970697,-0.498533,6.87687,-3.86265,1.93607,0,0,3.24941,5
1774536489297,0.0539541,0.932864,-0.479982,8.42593,-2.65007,5.10371,0,0,3.26582,5
1774536489310,0.0642083,0.969968,-0.49121,9.9298,-1.78712,7.41754,0,0,3.25773,5
1774536489324,0.040529,0.992918,-0.486573,10.9608,-0.855892,8.8154,0,0,3.24374,5
1774536489337,0.069578,0.899909,-0.486572,11.3736,0.0220237,10.769,0,0,3.26423,5
1774536489350,0.0146523,0.952633,-0.495361,12.5561,1.06766,14.1417,0,0,3.24882,5
1774536489364,0.083003,1.02124,-0.510741,15.9432,1.83892,15.4491,0,0,3.24373,5
1774536489377,0.126462,1.021,-0.520263,16.9151,0.657669,16.091,0,0,3.34713,5
1774536489391,0.117432,1.15917,-0.516846,27.9661,1.19793,22.5584,0,0,3.31008,5
1774536489405,0.270497,1.15796,-0.416511,35.3361,-0.0216824,25.1425,0,0,3.29689,5
1774536489418,0.0796032,1.3059,-0.555654,50.9234,2.88259,22.5903,0,0,3.24332,5
1774536489431,0.0971667,1.16017,-0.538575,53.7376,2.03138,31.3271,0,0,3.25604,5
1774536489445,0.0900884,1.24877,-0.572019,63.5017,0.787502,30.3292,0,0,3.2561,5
1774536489458,0.128415,1.60349,-0.583007,87.0071,-0.0678478,22.1075,0,0,3.30787,5
1774536489472,0.0959495,1.46974,-0.547854,114.553,-0.724535,22.9305,0,0,3.25867,5
1774536489485,0.0917972,1.37891,-0.55249,129.321,-0.892962,25.1962,0,0,3.26208,5
1774536489498,0.0185598,1.47509,-0.58447,144.229,1.06674,25.0688,0,0,3.28419,5
1774536489512,0.109613,1.59618,-0.581299,170.63,0.992441,31.078,0,0,3.24554,5
1774536489525,0.175532,1.65283,-0.553957,201.275,-1.37931,32.1211,0,0,3.2775,5
1774536489538,0.221921,1.70922,-0.534425,226.441,-5.72085,32.9305,0,0,3.2771,5
1774536489552,0.231445,1.93651,-0.518068,250.106,-12.7792,30.7808,0,0,3.28002,5
1774536489565,0.148199,2.21775,-0.558347,250.13,-17.5982,35.0034,0,0,3.2541,5
1774536489579,0.106692,1.97511,-0.515384,250.13,-18.6402,25.7039,0,0,3.29684,5
1774536489592,0.0854507,1.89795,-0.594477,250.13,-20.4943,24.1237,0,0,3.48699,5
1774536489606,-0.0195239,2.02489,-0.826644,250.13,-21.0071,10.2505,0,0,3.24895,5
1774536489619,0.190415,1.64041,-0.668712,250.13,-10.6363,21.0884,0,0,3.27687,5
1774536489632,0.528785,1.25637,-0.788078,250.13,-19.8305,23.7988,0,0,3.24423,5
1774536489646,0.261005,1.78292,-0.699469,250.13,-13.7847,36.0412,0,0,3.2788,5
1774536489659,0.42992,1.35403,-0.456804,250.13,-11.1172,71.9489,0,0,3.2511,5
1774536489672,0.466306,1.35376,-0.151389,250.13,-14.8207,119.533,0,0,3.26378,5
1774536489686,0.591056,1.02956,0.462359,250.13,-32.1735,149.276,0,0,3.27049,5
1774536489699,0.778795,-0.317533,-0.442808,250.13,-80.181,138.926,0,0,3.28037,5
1774536489713,-0.14764,-1.20013,-0.107689,100.539,-90.4478,81.3628,0,0,3.35267,5
1774536489726,-0.410626,-1.57566,-0.346419,24.4424,-68.8155,21.6551,0,0,3.34691,5
1774536489740,-0.451901,-0.377769,-0.403316,-47.7828,-41.4319,-35.3248,0,0,3.37013,1
1774536489753,-0.244643,-0.125506,-0.390626,-102.083,-26.4806,-82.7618,0,0,3.25517,1
1774536489766,-0.183598,0.00731492,-0.326665,-140.16,-22.401,-102.11,0,0,3.30797,1
1774536489780,-0.144534,-0.0253883,-0.268315,-170.39,-17.6917,-99.9106,0,0,3.2746,1
1774536489793,0.00145463,-0.166982,-0.142343,-204.866,-18.5411,-93.861,0,0,3.31015,1
1774536489807,0.126212,-0.203122,-0.094974,-240.064,-24.292,-90.408,0,0,3.27515,1
1774536489820,0.264639,0.0156097,-0.0781262,-250.127,-35.18,-71.9269,0,0,3.25,1
1774536489833,0.321041,0.165517,-0.0744631,-250.137,-43.7624,-33.0999,0,0,3.27219,1
1774536489847,0.32788,0.181639,-0.058839,-250.137,-51.5647,3.88671,0,0,3.26134,1
1774536489860,0.194345,0.16089,-0.00268948,-250.137,-55.4618,23.8122,0,0,3.28608,1
1774536489873,0.0122198,0.263421,-0.0117181,-250.137,-54.9089,30.7717,0,0,3.25836,1
1774536489887,-0.173083,0.372063,-0.0236808,-250.137,-47.8467,15.2979,0,0,3.26026,2
1774536489902,-0.253656,0.466546,-0.0524882,-250.137,-35.1272,-15.0842,0,0,3.3338,3
1774536489916,-0.140633,0.597403,-0.0607904,-250.137,-21.6318,-24.9215,0,0,3.27965,3
1774536489929,-0.0297929,0.803696,-0.144525,-250.137,-6.77057,-0.665453,0,0,3.27204,3
1774536489942,0.136951,0.95287,-0.248772,-250.137,4.81286,29.611,0,0,3.25721,3
1774536489956,0.0896029,0.945313,-0.314693,-250.137,14.3645,50.788,0,0,3.28528,3
1774536489969,0.0300335,0.970701,-0.367916,-250.137,21.9542,52.9139,0,0,3.25423,3
1774536489983,-0.061517,1.04931,-0.448969,-250.137,32.5924,41.7516,0,0,3.30837,3
1774536489996,-0.0729972,1.17821,-0.484617,-250.137,43.8819,29.8287,0,0,3.26523,3
1774536490009,-0.0476092,1.28686,-0.507323,-250.137,56.1175,22.6331,0,0,3.3175,3
1774536490023,-0.00610642,1.4331,-0.531492,-250.137,67.5992,25.0129,0,0,3.30015,3
1774536490036,-0.0190421,1.53979,-0.574704,-250.137,80.8265,35.0282,0,0,3.27841,3
1774536490050,-0.0383287,1.65063,-0.582763,-250.137,93.7047,40.9788,0,0,3.30176,3
1774536490063,-0.03418,1.8596,-0.705802,-250.137,105.073,39.2155,0,0,3.30686,5
1774536490077,0.0153774,2.12425,-0.898668,-250.137,108.729,34.8593,0,0,3.33597,5
1774536490090,0.0319813,2.2019,-1.05785,-250.137,103.44,21.5858,0,0,3.29171,5
1774536490103,0.136223,2.12305,-1.17821,-250.137,91.4242,-11.0209,0,0,3.34193,5
1774536490117,0.489477,2.14892,-1.35082,-219.771,69.4571,-46.5523,0,0,3.2908,5
1774536490130,0.988979,1.96046,-1.54027,-174.076,37.1315,-41.0742,0,0,3.28219,5
1774536490144,1.03637,1.74562,-1.75487,-123.669,8.44088,11.6496,0,0,3.30823,5
1774536490157,0.586457,1.33548,-1.82104,-82.522,-9.72231,56.0549,0,0,3.2853,5
1774536490171,-0.10835,1.29297,-1.91991,-40.0577,-14.5906,58.3031,0,0,3.32104,5
1774536490184,-0.576139,1.20215,-1.95361,8.73751,-4.64352,22.3718,0,0,3.2845,5
1774536490197,-0.57959,1.00001,-1.82911,47.8617,6.78248,-29.4825,0,0,3.29919,5
1774536490211,-1.70891,3.27621,1.31521,249.928,-31.3893,4.35551,0,0,3.34226,5
1774536490224,0.574791,1.56311,-0.146138,148.819,-100.931,1.97185,0,0,3.27095,5
1774536490238,0.134064,0.482742,0.304168,250.029,-48.6171,-45.4488,0,0,3.46695,5
1774536490251,-0.167948,1.62468,-0.0422121,250.13,-30.133,-36.0476,0,0,3.38519,5
1774536490268,0.062728,1.08964,-0.196034,233.871,-0.693532,-27.6725,0,0,3.38241,5
1774536490282,0.0341817,0.938731,-0.290765,203.588,-9.35013,-17.941,0,0,3.28926,5
1774536490295,0.0063496,0.826424,-0.29663,177.713,-15.3985,-0.338196,0,0,3.30761,5
1774536490308,-0.168445,0.838866,-0.395501,153.368,-14.6267,18.4621,0,0,3.28743,5
1774536490322,-0.0878963,0.919184,-0.377443,136.894,-7.69395,31.6662,0,0,3.29484,5
1774536490335,-0.0285686,0.996577,-0.378418,120.147,0.228726,39.2825,0,0,3.29275,2
1774536490349,-0.0168465,0.951175,-0.465082,106.418,6.70346,45.368,0,0,3.27137,2
1774536490362,0.122061,0.7859,-0.466064,91.0306,10.5534,42.3542,0,0,3.29441,2
1774536490375,0.349105,0.846675,-0.375006,74.8864,1.18493,25.4215,0,0,3.27565,2
1774536490389,0.138442,0.763434,-0.552478,57.7042,9.01508,25.7173,0,0,3.30615,2
1774536490402,0.151366,0.849115,-0.488774,45.7982,7.58158,21.5538,0,0,3.27786,5
1774536490416,0.160644,0.885984,-0.500243,40.0515,8.10635,17.5612,0,0,3.29493,5
1774536490429,0.146974,0.790534,-0.528807,29.0568,7.12312,9.69488,0,0,3.38411,5
1774536490444,0.204586,0.866206,-0.504884,21.4046,3.21002,2.00005,0,0,3.33837,5
1774536490457,0.143559,0.853028,-0.508056,9.43943,0.986954,0.215523,0,0,3.30749,5
1774536490471,0.170897,1.00341,-0.459232,12.7829,0.603437,-0.381083,0,0,3.27267,5
1774536490484,0.0939995,0.908454,-0.463623,7.34131,-0.228177,3.49231,0,0,3.30489,5
1774536490497,0.109374,0.940427,-0.46582,8.85345,-0.0383576,7.9955,0,0,3.28287,5
1774536490511,0.0834979,0.957518,-0.46997,6.71969,1.70055,14.0169,0,0,3.29834,5
1774536490524,0.112547,0.946534,-0.470459,8.96722,2.40388,16.2573,0,0,3.30821,5
1774536490539,0.125976,0.935304,-0.473144,7.6883,2.48847,17.678,0,0,4.00743,5
1774536490552,0.18481,0.929444,-0.436526,8.96819,1.77933,13.7063,0,0,3.29395,5
1774536490566,0.198729,0.903078,-0.448485,7.71881,-0.104988,7.54814,0,0,3.28399,5
1774536490579,0.208251,0.885255,-0.476072,6.84057,-2.2879,0.670992,0,0,3.29295,5
1774536490592,0.176516,0.903319,-0.468262,4.89507,-4.21944,-3.36238,0,0,3.30086,5
1774536490607,0.143313,0.919432,-0.468018,4.52709,-4.32814,-4.72383,0,0,3.34052,5
1774536490621,0.136963,0.93701,-0.474121,3.91664,-4.60278,-5.13699,0,0,3.29547,5
1774536490636,0.126954,0.931153,-0.462891,4.19819,-4.35902,-4.14603,0,0,4.91998,5
1774536490649,0.150389,0.944091,-0.480712,5.67029,-3.84784,-4.68648,0,0,3.27578,5
1774536490664,0.157714,0.944092,-0.482422,5.25233,-3.64143,-5.92243,0,0,3.96661,5
1774536490677,0.158447,0.930909,-0.467042,5.33579,-3.70223,-8.31822,0,0,3.30426,5
1774536490690,0.151124,0.936035,-0.491209,5.6943,-3.54214,-9.24335,0,0,3.2726,5
1774536490704,0.121584,0.950194,-0.481446,6.35812,-3.00054,-9.57982,0,0,3.28789,5
1774536490717,0.0905783,0.926271,-0.495849,6.3664,-2.45856,-7.84143,0,0,3.29458,5
1774536490732,0.0812995,0.954588,-0.486817,6.41979,-0.566775,-3.91232,0,0,3.29919,5
1774536490745,0.11572,0.928957,-0.498778,7.03755,-0.221719,-2.41371,0,0,3.27337,5
1774536490759,0.118164,0.925049,-0.487305,6.42046,-0.229,-1.05479,0,0,3.32373,3
1774536490772,0.136473,0.944579,-0.491455,7.09093,-0.343397,-2.26597,0,0,3.32495,3
1774536490786,0.15039,0.910159,-0.486573,5.90195,-1.20525,-4.6236,0,0,3.83696,3
1774536490800,0.135743,0.940916,-0.493652,6.60998,-1.80093,-7.66871,0,0,3.29791,3
1774536490813,0.144775,0.902346,-0.494873,5.77946,-2.50312,-9.66976,0,0,3.29917,3
1774536490826,0.134278,0.908691,-0.495605,5.33632,-2.25979,-10.8919,0,0,3.29967,3
1774536490840,0.144286,0.936521,-0.484376,6.11373,-2.5417,-12.5251,0,0,3.27469,3
1774536490853,0.147217,0.947265,-0.474122,6.10688,-4.03667,-14.3493,0,0,3.32176,3
1774536490867,0.104007,0.896732,-0.506834,7.86847,-4.46522,-15.2663,0,0,3.26682,3
1774536490880,0.122801,0.958492,-0.495362,6.18489,-4.83932,-14.2911,0,0,3.30863,3
1774536490894,0.105714,0.945313,-0.496826,8.28798,-3.86357,-13.2987,0,0,3.27806,3
1774536490907,0.0715356,0.992428,-0.502929,10.2118,-2.56618,-11.0709,0,0,3.27452,5
1774536490920,0.065186,0.91065,-0.512451,8.66567,-1.68027,-8.11745,0,0,3.29349,5
1774536490934,0.0698239,1.06371,-0.509033,13.7125,-2.96818,-5.7352,0,0,3.27158,5
1774536490947,0.0932601,0.860122,-0.513427,12.8863,-2.18399,-1.39365,0,0,3.39004,5
1774536490961,0.0593285,1.03319,-0.545164,16.8891,-0.978304,0.860344,0,0,3.62122,5
1774536490975,0.142816,0.962896,-0.501468,17.8387,-1.28214,10.7992,0,0,3.29421,5
1774536490988,0.0730029,1.34421,-0.524412,39.0323,2.71357,23.7657,0,0,3.28165,3
1774536491001,0.241932,1.31861,-0.573727,49.8747,1.83294,29.6277,0,0,3.29747,3
1774536491015,0.0127114,1.60496,-0.609373,70.895,5.25612,35.6581,0,0,3.29582,3
1774536491028,0.156484,1.42824,-0.558597,82.5075,5.16803,55.3696,0,0,3.25493,3
1774536491042,0.0456621,1.58519,-0.617916,98.5717,4.94679,47.5727,0,0,3.26821,3
1774536491055,0.0532221,2.06979,-0.570316,135.261,5.80067,45.6584,0,0,3.25934,3
1774536491068,0.122798,1.803,-0.519535,169.47,5.39735,48.6306,0,0,3.32013,3
1774536491082,0.169674,1.7815,-0.51709,198.055,0.760358,60.5987,0,0,3.43749,5
1774536491095,0.110356,1.87548,-0.558103,227.566,0.237164,74.5204,0,0,3.29047,5
1774536491109,-0.0432021,2.05541,-0.538087,250.107,2.54731,96.0472,0,0,3.34291,5
1774536491123,-0.0417481,2.42698,-0.52588,250.13,3.73164,113.525,0,0,3.28395,5
1774536491136,-0.0659163,2.30714,-0.513917,250.13,10.7106,124.767,0,0,3.27363,5
1774536491150,0.124498,1.88553,-0.474368,250.13,10.9921,126.052,0,0,3.25882,5
1774536491163,0.173581,2.03881,-0.701156,250.13,12.8607,116.963,0,0,3.28258,5
1774536491176,-0.0414889,1.39629,-0.666262,250.13,40.6364,155.008,0,0,3.25717,5
1774536491190,0.305396,1.79685,-0.423113,250.13,17.5727,216.183,0,0,3.28087,5
1774536491203,0.172617,1.37332,-0.344976,250.13,14.9034,250.096,0,0,3.26593,5
1774536491217,0.167725,1.66477,0.353467,250.13,-16.9987,250.13,0,0,3.29026,5
1774536491230,0.268792,1.15311,0.542467,250.13,-55.7781,240.559,0,0,3.28515,5
1774536491243,0.253663,-3.82973,0.161404,241.634,-136.972,89.3724,0,0,3.25863,5
1774536491257,-0.0126767,-0.226571,0.179442,113.388,-164.225,-24.4741,0,0,3.28086,5
1774536491271,0.0183084,0.267055,-0.403768,28.1691,-171.962,-91.8792,0,0,3.26187,5
1774536491285,0.0595674,0.252198,-0.383302,-7.3767,-171.291,-120.14,0,0,4.12494,5
1774536491298,0.0661616,0.142586,-0.364503,-34.1336,-168.888,-128.518,0,0,3.29975,5
1774536491312,0.0322289,0.163329,-0.392088,-57.2136,-164.028,-127.551,0,0,3.33343,5
1774536491325,-0.0283161,0.127688,-0.380616,-78.7037,-152.668,-122.867,0,0,3.33688,5
1774536491339,0.0412549,0.0769079,-0.31812,-102.122,-140.813,-122.771,0,0,3.24136,5
1774536491352,-0.00585608,-0.0466222,-0.273929,-130.27,-127.7,-114.642,0,0,3.28313,1
1774536491365,0.0336886,-0.0917937,-0.199712,-163.852,-115.036,-113.131,0,0,3.2405,1
1774536491379,0.0615215,-0.111083,-0.175539,-201.054,-100.229,-108.31,0,0,3.2635,1
1774536491392,0.0793445,-0.194818,-0.0822819,-243.66,-83.1773,-99.993,0,0,3.23854,1
1774536491405,0.179436,-0.0332144,-0.0563983,-250.131,-66.1849,-92.0614,0,0,3.25241,1
1774536491419,0.222409,0.344212,-0.163078,-250.137,-49.917,-79.0893,0,0,3.34115,3
1774536491432,0.310297,0.567367,-0.245356,-250.137,-37.4476,-67.218,0,0,3.23352,3
1774536491445,0.312988,0.496099,-0.313716,-250.137,-21.0317,-55.7443,0,0,3.25819,3
1774536491459,0.347654,0.521483,-0.330321,-250.137,-8.34855,-44.7286,0,0,3.29815,3
1774536491472,0.440179,0.594721,-0.343993,-250.137,2.28708,-30.9984,0,0,3.37139,3
1774536491486,0.520502,0.845197,-0.440179,-250.137,10.305,-13.8568,0,0,3.26369,3
1774536491499,0.538573,1.05394,-0.556877,-250.137,16.3299,5.31672,0,0,3.33089,3
1774536491513,0.520265,1.05615,-0.624995,-250.137,22.9095,21.808,0,0,3.26749,3
1774536491526,0.504396,1.14745,-0.67651,-250.137,30.6106,32.089,0,0,3.65043,3
1774536491540,0.456546,1.27074,-0.796622,-250.137,40.9973,36.2554,0,0,3.27771,3
1774536491553,0.411624,1.29492,-0.802246,-250.137,53.4074,39.226,0,0,3.24997,3
1774536491567,0.3855,1.19825,-0.814941,-250.137,67.0474,49.6613,0,0,3.28904,3
1774536491580,0.371095,1.22876,-0.825927,-250.137,81.7639,59.3415,0,0,3.28769,3
1774536491593,0.428463,1.30395,-0.847411,-250.137,93.7056,70.9426,0,0,3.28317,3
1774536491607,0.49438,1.44481,-0.900143,-250.137,100.993,92.734,0,0,3.27336,3
