timestamp,ax,ay,az,gx,gy,gz,roll_k,pitch_k,delay_ms,classe_prevista
1771444827051,0.0304738,0.93771,0.0851406,3.48069,1.2276,1.93871,0,0,3.64929,-1
1771444827065,0.0435709,0.963745,0.0839985,3.76331,2.42218,0.754216,0,0,3.30103,-1
1771444827078,0.05449,0.971246,0.0783019,3.65552,3.20361,0.160031,0,0,3.26894,-1
1771444827092,0.0499702,0.975539,0.0801097,3.64829,3.84183,-0.164101,0,0,3.41313,-1
1771444827105,0.056121,0.980598,0.0817186,3.6103,4.05128,-1.2837,0,0,3.27187,-1
1771444827119,0.0540081,0.97586,0.0797076,2.84277,4.03708,-3.33415,0,0,3.33146,-1
1771444827132,0.0495063,0.982617,0.0742157,2.38695,3.80858,-3.00671,0,0,3.28113,-1
1771444827146,0.03673,0.9843,0.0714999,1.84612,2.93478,-1.99949,0,0,3.26802,-1
1771444827159,0.0435189,0.989054,0.0737003,0.995572,2.25364,-1.62951,0,0,3.25205,-1
1771444827172,0.0378971,0.991402,0.0850855,1.24588,2.20316,-2.29949,0,0,3.3315,5
1771444827186,0.0288671,0.99317,0.082679,1.80996,2.92982,-3.16501,0,0,3.40733,5
1771444827199,0.030683,0.991681,0.0848961,2.05384,3.36568,-3.17029,0,0,3.31683,5
1771444827213,0.0324605,0.995361,0.0881556,2.92386,2.76299,-3.34087,0,0,3.37439,5
1771444827226,0.0327266,0.995624,0.0896351,3.60697,2.72501,-4.51776,0,0,3.29613,5
1771444827240,0.028524,0.992643,0.0869984,4.07829,3.32434,-6.28178,0,0,3.29183,5
1771444827253,0.0266143,0.991518,0.0910791,4.50098,3.76522,-7.22868,0,0,3.30961,5
1771444827267,0.0343976,0.999192,0.0920359,5.88789,5.00475,-6.81281,0,0,3.30792,5
1771444827281,0.0345819,0.998957,0.0794428,7.50883,7.28863,-7.73083,0,0,3.81792,5
1771444827295,0.0313765,0.988922,0.0704865,7.21625,9.60997,-10.4303,0,0,3.71901,5
1771444827309,0.0172493,0.986156,0.0640392,6.61957,10.0607,-12.3487,0,0,3.37818,5
1771444827322,-0.0019627,0.988142,0.0622633,5.57696,9.27845,-11.5446,0,0,3.28916,5
1771444827336,-0.0103559,0.981894,0.0590244,4.31902,8.87968,-12.0395,0,0,3.29557,5
1771444827350,-0.00891994,0.981209,0.0538846,2.49539,7.2948,-12.0503,0,0,4.62812,5
1771444827364,0.00380941,0.981031,0.0530352,0.579754,4.32297,-11.4564,0,0,3.27322,5
1771444827377,0.0160018,0.981092,0.0503035,-1.07654,1.06988,-12.3733,0,0,3.30146,5
1771444827390,0.0147297,0.979907,0.0504746,-3.69857,-1.93834,-14.6408,0,0,3.26259,5
1771444827404,0.00595409,0.983344,0.0513717,-5.7157,-4.13329,-16.038,0,0,3.29653,1
1771444827417,-0.00422581,0.988786,0.0482738,-7.22808,-5.71168,-15.9617,0,0,3.25733,5
1771444827430,0.00192378,0.979771,0.058356,-8.49572,-6.13828,-15.4351,0,0,3.27489,5
1771444827444,0.000272451,0.987019,0.066313,-8.99213,-7.4241,-15.2557,0,0,3.27411,5
1771444827457,-0.00577279,0.999541,0.0742183,-8.57622,-7.52503,-17.4027,0,0,3.26002,5
1771444827471,-0.0142005,1.0067,0.0810407,-7.80719,-6.4648,-20.7357,0,0,3.3712,5
1771444827484,-0.0169849,1.01873,0.0960023,-6.17077,-5.6866,-22.5091,0,0,3.26907,3
1771444827497,-0.0192091,1.02549,0.100531,-3.36401,-5.57231,-24.2736,0,0,3.28009,3
1771444827511,-0.0178376,1.0063,0.112883,-0.945365,-5.80905,-28.4307,0,0,3.26478,3
1771444827524,-0.00584939,1.01655,0.118624,2.85938,-6.55338,-33.3947,0,0,3.26555,3
1771444827538,-0.00891425,1.03048,0.134553,7.13198,-7.29578,-38.5752,0,0,3.33779,3
1771444827551,-0.00589558,1.04484,0.13253,12.5889,-7.83109,-45.2456,0,0,3.29166,3
1771444827565,-0.00798178,1.06323,0.142165,18.0616,-9.37738,-52.3976,0,0,3.50403,3
1771444827578,-0.00276068,1.10513,0.158406,25.7865,-12.1162,-57.8019,0,0,3.28924,3
1771444827595,0.00478824,1.15493,0.174952,35.8169,-13.3367,-62.6528,0,0,6.42622,3
1771444827608,0.0237146,1.1875,0.195016,44.3932,-13.5615,-68.1928,0,0,3.29259,3
1771444827621,0.0788934,1.2524,0.215327,53.8798,-17.3571,-72.8598,0,0,3.28959,3
1771444827635,-0.268094,1.39262,0.0568417,75.3521,-12.9075,-84.0139,0,0,3.29603,2
1771444827648,-0.436542,1.36969,0.360536,77.8936,17.9241,-94.797,0,0,3.27926,2
1771444827662,-0.304988,1.48993,0.296446,86.9773,47.13,-90.6161,0,0,3.31652,2
1771444827675,-0.328058,1.43406,0.338408,111.237,61.0574,-82.9722,0,0,3.25531,2
1771444827688,-0.317761,1.39375,0.368486,110.107,84.6966,-75.3296,0,0,3.27092,2
1771444827702,-0.321824,1.44012,0.365571,119.053,121.97,-71.1075,0,0,3.25922,2
1771444827715,-0.231718,1.41732,0.393615,124.389,159.661,-71.6072,0,0,3.35626,2
1771444827729,-0.0922883,1.36262,0.397267,121.897,183.586,-76.1128,0,0,3.35213,2
1771444827742,0.0477446,1.27566,0.225817,128.559,194.759,-82.5411,0,0,3.54338,2
1771444827756,0.179506,1.20157,0.101708,119.867,194.105,-90.8087,0,0,3.2967,2
1771444827770,0.16234,1.31224,-0.0550815,110.422,186.503,-96.3089,0,0,3.28863,5
1771444827783,0.0402435,1.25609,-0.0146189,104.081,207.95,-87.0514,0,0,3.34672,5
1771444827797,0.0200532,1.11808,0.0573544,86.0407,229.04,-61.4494,0,0,3.29039,5
1771444827810,0.281125,1.00344,0.10433,71.986,239.585,-36.8926,0,0,3.325,5
1771444827824,0.555023,0.896113,0.122231,57.6342,232.8,-25.7364,0,0,3.29383,3
1771444827837,0.645779,0.785428,0.123398,37.7866,201.973,-24.7651,0,0,3.36289,3
1771444827851,0.60055,0.681684,0.133506,20.6299,172.536,-17.9055,0,0,3.2912,3
1771444827867,0.55062,0.573212,0.138155,0.181376,146.054,-1.59014,0,0,5.86113,3
1771444827880,0.515604,0.469926,0.157495,-26.5238,122.355,10.2507,0,0,3.30081,3
1771444827894,0.447301,0.39927,0.197808,-60.4413,102.632,17.7666,0,0,3.28085,3
1771444827907,0.346004,0.365035,0.235049,-88.2626,89.8541,25.5703,0,0,3.32852,3
1771444827921,0.257819,0.314727,0.276091,-117.234,85.6255,35.4569,0,0,3.296,3
1771444827934,0.236125,0.263636,0.320185,-149.839,85.4998,45.5949,0,0,3.31413,3
1771444827947,0.254653,0.292863,0.376383,-175.759,82.4598,57.0226,0,0,3.29807,3
1771444827961,0.282462,0.368208,0.379386,-199.292,74.7452,69.4006,0,0,3.36257,3
1771444827974,0.312116,0.427144,0.378952,-222.1,65.6627,77.3148,0,0,3.293,3
1771444827988,0.337881,0.517707,0.406662,-236.119,56.1176,80.207,0,0,3.29576,5
1771444828001,0.331499,0.691717,0.416398,-243.128,47.5283,82.0386,0,0,3.39357,5
1771444828015,0.29338,0.851754,0.415037,-246.633,42.2641,83.2598,0,0,3.28204,4
1771444828028,0.21294,1.00318,0.413376,-248.385,42.0634,85.7368,0,0,3.321,5
1771444828042,0.111812,1.18055,0.420094,-249.261,47.6958,91.3913,0,0,3.29139,5
1771444828055,-0.0210459,1.35211,0.412685,-249.699,62.0578,99.6346,0,0,3.36074,5
1771444828069,-0.145404,1.50533,0.395511,-249.918,85.2999,105.764,0,0,3.29807,5
1771444828082,-0.179028,1.66173,0.350553,-250.028,107.497,106.569,0,0,3.2914,5
1771444828096,-0.138155,1.81826,0.268872,-250.083,123.405,103.38,0,0,3.33796,5
1771444828109,-0.0781643,1.93532,0.14001,-248.957,136.225,96.9571,0,0,3.25998,5
1771444828122,0.0573334,1.97537,-0.0134464,-232.883,143.693,85.8183,0,0,3.28255,5
1771444828136,0.294728,1.9542,-0.177437,-208.514,130.572,73.8366,0,0,3.28874,5
1771444828149,0.486784,1.89783,-0.337343,-178.715,92.5301,64.1664,0,0,3.39328,5
1771444828163,0.505163,1.84452,-0.495064,-144.136,47.0475,58.2588,0,0,3.3259,5
1771444828177,0.383136,1.76981,-0.621645,-109.225,11.1879,53.1332,0,0,4.03709,5
1771444828190,0.196807,1.69143,-0.712674,-73.5779,-9.97859,42.3719,0,0,3.29033,5
1771444828204,0.05519,1.61953,-0.777301,-35.9416,-20.0236,25.4722,0,0,3.27826,5
1771444828217,0.0254467,1.54784,-0.764284,-2.86395,-24.7866,9.71322,0,0,3.33852,5
1771444828231,0.0499169,1.50289,-0.704938,28.5947,-32.2292,0.890959,0,0,3.27385,5
1771444828244,0.0870494,1.42436,-0.599418,55.1562,-42.897,-2.0278,0,0,3.32383,5
1771444828258,0.0945229,1.34589,-0.472312,74.6391,-54.0058,-5.85741,0,0,3.56155,1
1771444828272,0.0902226,1.30366,-0.27214,89.9722,-61.522,-13.1348,0,0,3.86672,5
1771444828285,-0.143795,1.17213,0.66511,100.238,-60.364,-27.9834,0,0,3.27404,1
1771444828299,-0.281817,1.93159,0.474235,140.936,-36.4988,-28.4383,0,0,3.2745,2
1771444828312,-0.208493,1.69055,0.206114,195.533,-1.09292,-15.7917,0,0,3.29739,3
1771444828326,-0.259836,1.10615,0.0604628,143.751,4.25888,-1.8882,0,0,3.29102,1
1771444828339,-0.0516435,1.06384,0.154081,120.337,17.0378,16.2735,0,0,3.46161,2
1771444828353,-0.127167,1.05251,0.135616,140.669,25.2021,24.4001,0,0,3.52577,2
1771444828366,-0.112834,0.911511,0.0420731,121.285,50.4713,22.5245,0,0,3.29417,2
1771444828380,0.186924,0.902454,-0.031864,99.3905,68.1669,28.7126,0,0,3.28309,2
1771444828393,0.238123,0.970637,0.0182112,79.4739,51.1102,33.57,0,0,3.31148,2
1771444828407,0.176779,1.02401,0.0328535,65.9698,33.8757,29.8728,0,0,3.31048,5
1771444828420,0.165838,0.996781,0.0837086,54.4276,27.5753,21.8524,0,0,3.30357,5
1771444828434,0.25774,0.934697,0.069638,43.5459,13.4861,8.20866,0,0,3.61451,5
1771444828447,0.243509,0.894855,0.102942,37.021,-5.43634,0.0318113,0,0,3.27316,5
1771444828461,0.214435,0.933136,0.134197,31.1479,-16.4663,7.51591,0,0,3.30757,5
1771444828474,0.158166,0.968024,0.127141,26.574,-26.0041,23.4602,0,0,3.29107,5
1771444828488,0.134389,0.981579,0.127074,23.2641,-29.5326,29.8561,0,0,3.84383,5
1771444828501,0.108809,1.00296,0.13394,22.3191,-24.1213,21.4242,0,0,3.3185,5
1771444828515,0.0895071,1.01056,0.132749,23.5985,-10.5377,12.7694,0,0,3.41955,5
1771444828528,0.132223,0.988671,0.139944,25.3947,-0.753597,10.7664,0,0,3.29446,5
1771444828542,0.197858,0.975149,0.145523,27.7966,0.466713,11.7801,0,0,3.28141,5
1771444828555,0.217588,0.986151,0.143419,29.9403,-2.63306,12.5924,0,0,3.30737,5
1771444828569,0.226488,0.99155,0.146004,31.2526,-5.32416,8.99847,0,0,3.29853,3
1771444828583,0.255291,0.99379,0.136555,32.5042,-11.8644,1.31603,0,0,3.33294,5
1771444828596,0.265903,0.987706,0.12157,33.9009,-20.8749,-6.59008,0,0,3.40405,5
1771444828610,0.272801,0.978116,0.110903,34.8398,-27.0291,-7.30649,0,0,3.68851,3
1771444828623,0.267344,0.984207,0.0985479,36.2939,-32.0756,-2.02347,0,0,3.28939,3
1771444828637,0.250722,0.993976,0.0914937,36.6546,-34.6599,-1.18731,0,0,3.28068,5
1771444828650,0.232795,0.99902,0.081019,37.0372,-33.3223,-5.3303,0,0,3.2899,5
1771444828663,0.215693,1.00777,0.0663376,37.0415,-30.936,-9.20332,0,0,3.269,5
1771444828677,0.18014,1.02528,0.0575282,38.4024,-27.8382,-8.89173,0,0,3.31768,3
1771444828690,0.160648,1.03258,0.0449651,39.4646,-25.568,-5.97258,0,0,3.29403,3
1771444828704,0.145515,1.04199,0.0357658,39.7934,-24.6428,-5.3298,0,0,3.65348,3
1771444828717,0.133355,1.05161,0.0271507,42.3814,-25.1076,-9.44353,0,0,3.28333,3
1771444828731,0.130887,1.0528,0.0286193,44.5991,-26.1454,-13.3897,0,0,3.287,3
1771444828744,0.135687,1.07893,0.0270253,47.3759,-27.1223,-9.71394,0,0,3.30085,3
1771444828758,0.318772,1.09132,0.00326138,49.7986,-30.8589,1.44838,0,0,3.28711,3
1771444828771,0.132323,1.08966,-0.00175551,59.3573,-35.6241,-3.21856,0,0,3.47259,3
1771444828785,0.170283,1.11876,-0.0116224,61.0603,-29.2204,-11.4833,0,0,3.26787,3
1771444828798,0.121961,1.15021,-0.0155054,70.5493,-23.0453,-17.3791,0,0,3.30076,3
1771444828812,0.139318,1.16357,-0.00890089,77.8891,-17.6715,-17.2506,0,0,3.28502,3
1771444828825,0.136113,1.18552,-0.00396277,86.6736,-13.8587,-16.7742,0,0,3.29611,3
1771444828838,0.149275,1.21964,0.0119761,96.0429,-10.7156,-17.6848,0,0,3.3077,3
1771444828852,0.147838,1.24688,0.0175692,105.827,-8.33489,-20.7737,0,0,3.34116,3
1771444828865,0.11569,1.27397,0.0191468,115.925,-6.09111,-23.7342,0,0,3.29004,3
1771444828879,0.110367,1.30772,0.028031,125.76,-6.3509,-23.3518,0,0,3.30013,5
1771444828892,0.121119,1.33681,0.0377558,136.475,-10.9732,-20.2828,0,0,3.30268,3
1771444828906,0.115687,1.34419,0.046883,146.242,-18.4102,-18.42,0,0,3.28589,3
1771444828920,0.14124,1.35794,0.064898,154.331,-29.4303,-17.5383,0,0,3.84342,3
1771444828933,0.217727,1.34875,0.124302,162.459,-46.906,-15.5401,0,0,3.40539,3
1771444828946,0.243021,1.34424,0.19951,170.821,-73.9912,-13.5716,0,0,3.27335,3
1771444828960,0.23039,1.43844,0.325093,178.811,-102.992,-13.8201,0,0,3.30481,3
1771444828973,0.300303,1.58811,0.4956,191.161,-129.156,-11.6467,0,0,3.29029,3
1771444828987,0.365986,1.57981,0.715489,208.691,-154.624,-5.71267,0,0,3.30105,3
1771444829000,0.297319,1.47643,0.839021,225.571,-158.182,1.09023,0,0,3.29942,3
1771444829014,-0.0438672,1.4275,0.702258,237.85,-128.938,-7.20679,0,0,3.72477,2
1771444829027,-0.128299,1.44604,0.293844,243.99,-108,-40.4393,0,0,3.27616,2
1771444829041,0.126969,1.59701,-0.0805586,247.06,-102.698,-72.857,0,0,3.275,2
1771444829054,0.338979,1.73745,-0.0947308,248.595,-103.948,-60.4591,0,0,3.28609,3
1771444829068,0.495502,1.46966,0.0570229,249.362,-90.1192,-6.93182,0,0,3.27905,3
1771444829081,0.512945,0.878596,0.0359818,213.578,-82.5176,23.2669,0,0,3.29687,3
1771444829094,0.544693,0.385316,-0.169682,144.278,-87.3504,14.1716,0,0,3.26883,3
1771444829108,0.403956,0.125959,-0.25837,52.6732,-94.0493,-15.7615,0,0,3.32081,3
1771444829121,0.226436,0.101388,-0.482694,-51.9344,-84.8987,-45.8044,0,0,3.25924,3
1771444829134,0.160445,0.163288,-0.20988,-140.547,-66.4188,-60.135,0,0,3.2765,3
1771444829148,0.0962296,0.240535,0.160244,-195.342,-63.9613,-60.1095,0,0,3.27829,3
1771444829161,0.0448738,0.573145,0.408876,-187.679,-64.7097,-24.4059,0,0,3.26994,3
1771444829175,-0.0810589,0.565046,0.391142,-157.095,-62.6335,40.6558,0,0,3.31013,3
1771444829188,-0.143945,0.26474,0.309002,-191.055,-51.4083,93.9424,0,0,3.26818,1
1771444829201,-0.13847,0.134996,0.247892,-220.596,-25.7271,113.086,0,0,3.30302,1
1771444829215,-0.10583,0.242234,0.339349,-235.367,2.77769,95.8024,0,0,3.28507,2
1771444829228,0.0401039,0.494729,0.390868,-242.752,6.85068,61.1989,0,0,3.44974,3
1771444829242,0.192795,0.676359,0.384134,-246.445,-9.83039,44.8781,0,0,3.2992,2
1771444829255,0.143229,0.666443,0.35366,-248.291,-29.0335,54.3742,0,0,3.28572,3
1771444829269,0.013635,0.700751,0.348623,-249.214,-35.4099,75.4275,0,0,3.33316,3
1771444829282,-0.0908727,0.928312,0.350376,-249.676,-26.8385,90.4313,0,0,3.27205,4
1771444829295,-0.198174,1.09831,0.337069,-249.907,-4.77423,93.1966,0,0,3.29146,4
1771444829309,-0.266159,1.17959,0.289082,-250.022,22.3114,90.1975,0,0,3.28415,1
1771444829322,-0.257483,1.30155,0.256801,-250.08,44.1251,95.656,0,0,3.34055,5
1771444829336,-0.21658,1.47262,0.205646,-250.109,58.8603,111.538,0,0,3.54674,5
1771444829349,-0.192692,1.63943,0.109318,-250.123,74.4874,128.513,0,0,3.27637,5
1771444829363,-0.162843,1.85327,-0.0170486,-250.13,94.5071,135.062,0,0,3.30194,5
1771444829377,-0.10564,2.08261,-0.198204,-250.134,116.887,129.718,0,0,3.28194,5
1771444829390,-0.00875494,2.25961,-0.390554,-250.136,129.799,116.164,0,0,3.30678,5
1771444829403,0.0669777,2.36961,-0.575393,-243.72,132.586,102.907,0,0,3.28311,5
1771444829417,0.104383,2.41195,-0.768883,-216.28,127.793,93.564,0,0,3.36363,5
1771444829430,0.0754711,2.35778,-0.953842,-178.56,123.511,84.1446,0,0,3.27642,5
1771444829444,0.0102982,2.25357,-1.06869,-135.868,124.652,69.7631,0,0,3.4834,5
1771444829457,0.135183,2.11479,-1.20878,-92.2583,109.704,53.0304,0,0,3.31233,5
1771444829471,0.320285,1.99512,-1.31538,-51.1062,73.978,42.6526,0,0,3.28183,5
1771444829484,0.191283,1.92891,-1.3405,-5.45007,38.6035,34.208,0,0,3.35479,5
1771444829498,-0.006344,1.86919,-1.28079,41.7292,23.5613,22.8788,0,0,3.29311,5
1771444829511,-0.0457921,1.77156,-1.11984,79.7577,15.689,7.81345,0,0,3.35689,5
1771444829525,0.00761104,1.6531,-0.852473,109.18,2.02773,-7.70778,0,0,3.28426,5
1771444829538,0.25591,1.12262,0.885918,86.4413,-30.8106,-9.48748,0,0,3.42994,5
1771444829552,0.100728,2.01667,0.530047,120.602,-60.8595,15.0845,0,0,3.288,5
1771444829565,-0.0282465,1.7448,0.103123,185.366,-60.842,17.6873,0,0,3.27737,5
1771444829579,-0.241426,0.981081,-0.109539,122.744,-40.7111,6.53449,0,0,3.30981,1
1771444829592,-0.174438,1.04865,0.336767,58.269,-0.588351,-1.85489,0,0,3.29052,3
1771444829605,-0.11588,1.30341,0.185068,154.199,16.8318,-3.46562,0,0,3.35459,5
1771444829619,-0.210111,0.774266,0.148154,149.886,31.5915,3.00002,0,0,3.28244,5
1771444829632,-0.00258986,0.798022,0.0213435,91.3895,48.3759,18.7901,0,0,3.37907,2
1771444829646,0.29467,1.03106,-0.0299481,98.8932,35.3406,47.021,0,0,3.28383,3
1771444829659,0.282078,1.04381,0.0267003,79.252,5.60542,57.6937,0,0,3.26402,2
1771444829672,0.116035,1.03756,0.0580684,63.1985,8.82561,42.5797,0,0,3.27907,5
1771444829686,0.102716,0.95037,0.117471,57.3817,22.8174,17.1066,0,0,3.25483,5
1771444829699,0.342482,0.918558,0.124191,46.9313,17.7217,-3.24439,0,0,3.29483,2
1771444829713,0.343636,0.888871,0.138563,46.2595,-1.03993,-10.5191,0,0,3.27213,5
1771444829726,0.255599,0.876904,0.123908,40.7023,-8.28714,-4.74812,0,0,3.31252,5
1771444829739,0.203038,0.929314,0.123949,34.3588,-13.9451,3.57632,0,0,3.25894,5
1771444829753,0.151552,0.972393,0.120827,30.2634,-18.5031,2.85305,0,0,3.27898,5
1771444829766,0.0808142,1.01228,0.14104,28.4065,-18.805,-3.60019,0,0,3.26665,5
1771444829779,0.0586842,1.02249,0.140104,30.5353,-11.8605,-5.33827,0,0,3.266,3
1771444829793,0.0665236,1.00752,0.143789,34.5043,-2.52567,-0.192033,0,0,3.32987,5
1771444829806,0.0902721,0.997831,0.147204,36.8705,6.14556,-0.298307,0,0,3.26463,5
1771444829820,0.143822,0.983564,0.149395,39.2062,13.3285,-5.97358,0,0,3.29744,3
1771444829833,0.202416,0.97677,0.137157,41.8207,16.6261,-10.8074,0,0,3.25968,3
1771444829846,0.226985,0.959815,0.127903,44.0745,17.481,-14.0068,0,0,3.372,5
1771444829860,0.201381,0.96459,0.104997,45.7777,15.9886,-17.2896,0,0,3.26257,5
1771444829873,0.181627,0.967218,0.0839994,46.2476,10.3569,-22.599,0,0,3.25113,5
1771444829887,0.144022,0.982111,0.0752475,46.1162,1.97997,-27.2575,0,0,3.31722,5
1771444829900,0.0949612,1.0019,0.0566862,46.268,-6.1436,-26.4875,0,0,3.25954,5
1771444829913,0.0553429,1.0153,0.0402264,45.9546,-10.3161,-20.259,0,0,3.30007,5
1771444829927,0.0349911,1.02014,0.0176807,45.2979,-10.326,-15.2173,0,0,3.26979,5
1771444829941,0.0362748,1.01931,0.00443671,43.2062,-6.34619,-14.8453,0,0,4.09707,5
1771444829954,0.0369236,1.01747,-0.00896058,41.8016,-0.127296,-15.4761,0,0,3.26953,5
1771444829968,0.0489729,1.02162,-0.0221938,40.7825,3.9936,-13.9365,0,0,3.27378,5
1771444829981,0.0714871,1.02944,-0.0205402,39.7347,2.91665,-10.0751,0,0,3.29298,5
1771444829994,0.0589961,1.05668,-0.022103,39.6536,-0.404271,-6.28566,0,0,3.261,5
1771444830008,0.04477,1.0704,-0.021619,39.4337,-2.53801,-4.28787,0,0,3.30496,3
1771444830021,0.0521715,1.07457,-0.0245446,39.3466,-4.66595,-4.50653,0,0,3.26465,3
1771444830035,0.0785253,1.07593,-0.0198622,40.1695,-8.83679,-5.45555,0,0,3.28381,3
1771444830048,0.0876532,1.07663,-0.0244667,42.0504,-13.3192,-5.5522,0,0,3.26046,3
1771444830061,0.0768926,1.08504,-0.0305704,44.6359,-14.3542,-4.37916,0,0,3.25833,5
1771444830075,0.059841,1.11081,-0.0284523,49.9439,-13.1848,-2.14759,0,0,3.27163,5
1771444830088,0.0643797,1.12228,-0.0254312,56.2658,-11.142,-2.58143,0,0,3.26331,5
1771444830101,0.0495369,1.13454,-0.0255041,62.1444,-9.42978,-7.16858,0,0,3.30005,5
1771444830115,0.00834926,1.16646,-0.0328106,68.7936,-6.59657,-13.1683,0,0,3.29235,3
1771444830128,-0.0109105,1.21834,-0.0219306,76.7479,-3.03874,-15.817,0,0,3.3162,3
1771444830142,-0.000179414,1.27823,-0.00331556,87.6488,-0.679676,-14.794,0,0,3.31431,3
1771444830155,0.0248999,1.31517,0.00801823,99.9732,-0.427624,-14.9542,0,0,3.32231,3
1771444830169,0.0626858,1.32926,0.0214142,110.628,-4.7329,-17.4313,0,0,3.93288,3
1771444830183,0.0912203,1.34801,0.0344716,121.142,-14.2787,-20.2157,0,0,3.27955,3
1771444830196,0.0500558,1.37535,0.0497609,132.132,-26.1966,-22.4055,0,0,3.31078,3
1771444830209,-0.0349629,1.44432,0.0895733,142.62,-35.5868,-24.8211,0,0,3.2797,2
1771444830223,0.0120241,1.53109,0.182033,151.539,-46.1446,-24.4525,0,0,3.354,2
1771444830236,0.0968435,1.61363,0.307755,166.88,-63.3471,-21.8828,0,0,3.27737,3
1771444830250,0.218274,1.67534,0.455609,187.791,-84.5819,-18.9223,0,0,3.36648,5
1771444830263,0.388477,1.67183,0.620291,205.609,-113.222,-14.7589,0,0,3.27852,3
1771444830277,0.397993,1.55744,0.767608,222.934,-135.233,-9.94813,0,0,3.28253,3
1771444830292,0.207041,1.40199,0.788239,236.532,-119.708,-11.768,0,0,5.07352,3
1771444830305,0.0272963,1.29996,0.634245,243.331,-87.0755,-30.8802,0,0,3.27492,2
1771444830319,0.00326036,1.41859,0.228943,246.73,-52.1904,-61.7492,0,0,3.32294,2
1771444830332,0.13469,1.57292,-0.0588833,248.43,-26.2631,-88.7601,0,0,3.28433,3
1771444830346,0.164892,1.46904,-0.0785467,239.44,8.58598,-84.0938,0,0,3.33533,3
1771444830359,0.31591,1.09205,-0.151779,214.816,30.5258,-79.1652,0,0,3.28628,3
1771444830373,0.514196,0.542327,-0.209621,160.625,16.9194,-65.7734,0,0,4.12362,3
1771444830387,0.438613,0.297741,-0.369104,73.1333,-8.54412,-46.547,0,0,3.26702,3
1771444830400,0.2855,0.326207,-0.344452,-14.3341,-20.7835,-32.3766,0,0,3.2727,3
1771444830413,0.0354014,0.303279,-0.0963241,-109.491,-25.5979,-30.0852,0,0,3.29124,3
1771444830427,-0.116788,0.484312,-0.120067,-134.929,-9.9745,-25.3899,0,0,3.26368,3
1771444830440,-0.251016,0.444013,0.0753997,-109.499,19.1578,-11.6186,0,0,3.32509,2
1771444830454,-0.331819,0.315642,0.112674,-119.776,47.2201,5.58763,0,0,3.28111,5
1771444830467,-0.310379,0.284953,0.114991,-151.052,78.3887,21.9274,0,0,3.33952,5
1771444830481,-0.26452,0.271469,0.0854274,-172.003,106.923,30.3072,0,0,3.27759,5
1771444830494,-0.170278,0.218733,0.0634814,-192.845,130.572,25.9742,0,0,3.30137,5
1771444830508,-0.0328303,0.205182,0.0702145,-221.491,145.004,12.1207,0,0,3.29207,2
1771444830521,0.114677,0.312465,0.127539,-235.814,146.922,-5.25645,0,0,3.26822,2
1771444830534,0.243538,0.494755,0.159342,-242.976,137.717,-19.3114,0,0,3.31281,2
1771444830548,0.300432,0.647774,0.107679,-246.557,125.095,-27.7168,0,0,3.27807,5
1771444830561,0.272043,0.706263,0.0456616,-248.347,117.494,-33.053,0,0,3.33315,5
1771444830575,0.185602,0.773712,0.0108478,-249.242,120.461,-36.7593,0,0,3.28583,5
1771444830589,0.0561339,0.911459,-0.00624575,-249.69,138.093,-38.5972,0,0,4.1584,5
1771444830602,-0.107769,1.05575,0.0138347,-249.914,174.921,-36.2299,0,0,3.27878,5
1771444830616,-0.246715,1.13697,0.038704,-250.026,212.525,-31.0844,0,0,3.27411,5
1771444830629,-0.254014,1.24315,0.0984837,-250.081,231.327,-21.1529,0,0,3.29779,5
1771444830643,-0.0991621,1.4417,0.122153,-250.109,240.729,-13.3513,0,0,3.28133,5
1771444830656,0.147592,1.69831,0.0699065,-250.123,245.429,-16.6375,0,0,3.33513,5
1771444830669,0.379328,1.90645,-0.0614958,-246.146,247.779,-31.1508,0,0,3.28624,3
1771444830683,0.454222,2.0479,-0.215969,-227.695,248.955,-42.2014,0,0,3.34129,5
1771444830696,0.48278,2.12144,-0.344752,-195.229,249.542,-38.1045,0,0,3.26607,5
1771444830710,0.609564,2.07907,-0.427223,-156.58,249.836,-22.1133,0,0,3.27029,3
1771444830723,0.830346,1.95637,-0.482772,-122.5,249.983,-5.08719,0,0,3.28248,3
1771444830736,0.998096,1.83057,-0.515621,-91.2767,250.056,10.2617,0,0,3.26242,3
1771444830750,1.07365,1.72526,-0.561891,-60.4132,250.093,25.5622,0,0,3.30139,3
1771444830763,1.07403,1.60275,-0.618612,-31.157,250.111,39.7696,0,0,3.26896,3
1771444830776,1.00981,1.48696,-0.641017,-5.80368,250.121,48.1749,0,0,3.30866,3
1771444830790,0.920492,1.41396,-0.609389,16.2585,232.705,47.721,0,0,3.26187,3
1771444830803,0.822676,1.35986,-0.549033,38.1865,209.795,42.0361,0,0,3.26426,3
1771444830817,0.711448,1.28481,-0.463419,60.4291,188.276,39.9341,0,0,3.27076,3
1771444830830,0.615841,1.18706,-0.371216,80.6039,169.825,43.8258,0,0,3.25628,3
1771444830843,0.49807,1.0834,-0.352017,94.8897,154.126,47.7793,0,0,3.30374,5
1771444830857,0.453717,0.715817,-0.106427,70.5059,122.452,48.1454,0,0,3.27042,5
1771444830870,0.694821,0.630015,-0.228622,9.87892,71.2682,53.6643,0,0,3.3087,3
1771444830883,0.500387,0.812158,-0.339315,20.6303,18.4432,42.8627,0,0,3.26316,5
1771444830897,-0.055593,0.988523,-0.62053,12.7274,19.9926,28.8932,0,0,3.34833,5
1771444830910,-0.0600792,1.06995,-0.297723,-14.7814,50.3436,32.1832,0,0,3.26513,5
1771444830923,-0.0309459,0.894627,-0.0868905,-27.3945,53.1107,42.6221,0,0,3.25537,5
1771444830937,0.217521,0.975586,-0.127133,-30.995,34.5554,51.0172,0,0,3.32531,5
1771444830950,0.327293,1.06016,-0.0274456,-45.2685,1.09066,51.4666,0,0,3.27379,5
1771444830964,0.312285,1.12678,0.0172856,-55.8861,-32.2753,42.9509,0,0,3.30694,5
1771444830977,-0.119192,1.22585,0.032172,-55.4965,-46.0804,32.5403,0,0,3.26583,5
1771444830990,-0.584226,1.48203,0.228901,-59.4429,-18.7158,29.9648,0,0,3.32013,5
1771444831004,-0.470435,1.80885,0.32445,-18.3474,14.833,43.0511,0,0,3.27029,5
1771444831017,-0.125743,1.49738,0.227106,24.6507,13.344,60.6744,0,0,3.27109,5
1771444831031,0.108055,0.994696,0.104897,16.6307,-1.17153,62.5586,0,0,3.2852,5
1771444831044,0.147013,1.03132,0.0830607,6.31917,-5.35676,45.9968,0,0,3.27129,5
1771444831057,0.022448,1.09961,0.0833916,13.0413,4.00864,23.7198,0,0,3.31265,5
1771444831071,-0.0103468,1.02028,0.0438947,16.0893,19.3784,9.39043,0,0,3.27389,2
1771444831084,-0.0689152,0.964556,-0.00454287,13.6744,24.5403,6.73338,0,0,3.31678,5
1771444831097,-0.169738,0.961773,-0.0435867,6.76852,26.2244,10.2942,0,0,3.26402,5
1771444831111,-0.216336,0.941619,-0.0662812,0.849907,30.8679,14.4906,0,0,3.27118,5
1771444831124,-0.144604,0.933583,-0.0564424,-5.38802,33.5599,18.0048,0,0,3.27959,5
1771444831138,-0.0313982,0.965862,-0.0293992,-8.32378,28.3983,20.6398,0,0,3.25624,5
1771444831151,-0.0194499,0.980629,-0.0179046,-9.29166,20.8213,18.6901,0,0,3.30965,5
1771444831164,-0.0451063,1.01512,0.00294162,-10.558,19.2694,15.639,0,0,3.2675,5
1771444831178,-0.0490636,1.05492,0.0122087,-6.86681,20.2836,15.0218,0,0,3.33637,5
1771444831191,-0.0362968,1.03796,0.00940919,-3.67386,19.928,14.7552,0,0,3.26143,5
1771444831205,-0.0330893,1.01579,0.00210234,-3.91708,18.1281,12.0112,0,0,3.28141,5
1771444831218,-0.0353167,1.01547,0.00344833,-4.78297,16.4992,8.83383,0,0,3.27861,5
1771444831231,-0.0340347,1.01421,-0.001723,-4.51362,15.6275,7.13065,0,0,3.25422,5
1771444831245,-0.0284014,1.00274,-0.00897759,-4.48964,14.1763,6.57678,0,0,3.3029,5
1771444831258,-0.0257484,1.00499,-0.00252509,-5.57688,12.237,6.03266,0,0,3.25863,5
1771444831271,-0.0305183,1.01221,0.00817565,-5.05943,10.42,4.86748,0,0,3.35563,5
1771444831285,-0.0524718,1.00259,0.00271017,-4.69765,9.85887,2.89557,0,0,3.26607,5
1771444831298,-0.0772311,0.996501,0.00515037,-5.51677,10.4905,1.36382,0,0,3.29094,5
1771444831312,-0.0778137,1.01079,0.0117019,-5.11335,10.9246,1.66282,0,0,3.25918,5
1771444831325,-0.0714528,1.00858,0.0213291,-4.02614,10.9242,2.57187,0,0,3.25211,5
1771444831338,-0.0596738,1.00761,0.018236,-2.82223,11.1644,1.61418,0,0,3.29372,5
1771444831352,-0.0432807,1.00138,0.026397,-2.96837,11.9906,-1.56314,0,0,3.25074,5
1771444831365,-0.0299617,0.999051,0.0263863,-1.25518,14.0182,-6.17852,0,0,3.30854,5
1771444831378,-0.0257001,0.982423,0.0266418,0.681572,16.0129,-8.9633,0,0,3.26303,5
1771444831392,-0.00870846,0.991694,0.0280304,2.00873,14.9492,-10.0313,0,0,3.34231,5
1771444831405,-0.0025273,0.998518,0.0269972,4.1723,13.5929,-11.6149,0,0,3.26289,5
1771444831419,-0.0142169,0.987853,0.0126021,4.65867,13.3804,-15.8036,0,0,3.25872,5
1771444831432,-0.0211938,0.995004,0.0124606,4.28353,12.9994,-19.7072,0,0,3.27661,5
1771444831445,-0.0254962,1.00834,0.0160433,5.87459,10.4005,-21.3956,0,0,3.25922,5
1771444831459,-0.0404149,1.00885,0.0199168,6.63577,8.36816,-22.6367,0,0,3.29241,5
1771444831472,-0.0539249,1.02274,0.0148806,8.10414,8.00088,-25.4023,0,0,3.26135,5
1771444831485,-0.0610204,1.01818,0.00631332,8.64749,6.68746,-29.7928,0,0,3.30539,5
1771444831499,-0.0828045,1.01149,-0.00110892,8.4726,6.12236,-32.8582,0,0,3.25807,5
1771444831512,-0.104219,1.01253,-0.00447265,8.86989,8.77874,-34.0283,0,0,3.25929,5
1771444831525,-0.108515,1.01032,-0.0113544,10.1563,10.7901,-35.373,0,0,3.27133,5
1771444831539,-0.111272,1.01266,-0.000289391,10.5362,10.5974,-38.0224,0,0,3.256,5
1771444831552,-0.157299,1.0439,-0.00385925,11.6956,12.9246,-41.3509,0,0,3.28435,5
1771444831566,-0.243776,1.08485,-0.00807442,14.9737,19.0234,-45.3396,0,0,3.26535,5
1771444831579,-0.3863,1.12329,0.0273554,18.525,28.8743,-52.5133,0,0,3.32555,5
1771444831592,-0.543363,1.14061,0.0402961,19.4877,46.8112,-60.8253,0,0,3.26046,5
1771444831606,-0.438001,1.16064,0.0558603,20.1217,62.4857,-57.2257,0,0,3.26539,5
1771444831619,-0.325604,1.21627,0.0767816,25.3738,64.3192,-46.0937,0,0,3.27468,5
1771444831632,-0.253998,1.265,0.102453,31.9808,62.7703,-39.1652,0,0,3.25453,5
1771444831646,-0.263412,1.31989,0.121464,37.5973,67.8164,-42.7276,0,0,3.299,5
1771444831659,-0.266216,1.39867,0.165676,43.3177,77.9617,-51.7302,0,0,3.26174,5
1771444831673,-0.299416,1.43253,0.221426,52.968,88.164,-63.1285,0,0,3.29137,5
1771444831686,-0.31976,1.42399,0.26901,62.3313,100.376,-74.1673,0,0,3.25391,5
1771444831699,-0.283835,1.41859,0.301996,71.139,113.493,-79.2172,0,0,3.30555,2
1771444831713,-0.239176,1.41172,0.327713,81.5847,129.006,-81.2231,0,0,3.25529,2
1771444831726,-0.162498,1.40408,0.358036,91.7084,150.69,-83.2032,0,0,3.25209,5
1771444831739,-0.0803166,1.4136,0.394114,98.0947,179.586,-90.739,0,0,3.2822,5
1771444831753,0.0154558,1.45138,0.425926,109.288,211.201,-106.202,0,0,3.25455,5
1771444831766,0.100008,1.4792,0.428236,125.182,230.665,-129.578,0,0,3.29618,5
1771444831779,0.107562,1.50555,0.400067,140.438,240.398,-155.716,0,0,3.26285,2
1771444831793,-0.0365434,1.45327,-0.00705501,151.761,245.264,-178.732,0,0,3.30537,5
1771444831806,-0.255584,1.56124,-0.149282,143.881,247.697,-188.4,0,0,3.27948,5
1771444831820,-0.380233,2.01275,-0.134898,171.291,248.913,-174.742,0,0,3.277,5
1771444831833,-0.356929,2.09241,-0.00102867,202.184,249.522,-147.1,0,0,3.30685,5
1771444831846,-0.086401,1.90423,0.118992,213.477,249.826,-109.218,0,0,3.28205,5
1771444831860,0.27762,1.71358,0.219018,216.552,249.978,-65.4449,0,0,3.34428,2
1771444831873,0.661406,1.5447,0.294405,215.512,250.054,-34.8026,0,0,3.28353,3
1771444831887,1.06216,1.39836,0.330013,216.859,228.535,-25.8784,0,0,3.95466,3
1771444831903,1.11214,1.13136,0.226478,210.75,156.263,-28.9201,0,0,3.29081,3
1771444831917,0.906654,0.820853,0.068196,181.493,109.284,-42.1776,0,0,3.82998,3
1771444831931,0.6149,0.513831,-0.0407271,127.293,98.1422,-67.3025,0,0,3.2927,5
1771444831944,0.412101,0.252778,-0.097333,66.4402,107.59,-92.3192,0,0,3.28739,5
1771444831959,0.329799,0.0795636,-0.120015,5.8613,119.146,-100.148,0,0,5.12582,5
1771444831973,0.34713,-0.0431407,-0.121888,-50.1304,115.546,-91.0397,0,0,3.27813,3
1771444831986,0.418602,-0.181362,-0.209681,-110.042,100.96,-78.6229,0,0,3.31352,3
1771444832000,0.457647,-0.304,-0.216516,-178.54,76.1137,-75.4374,0,0,3.27654,5
1771444832013,0.474657,-0.330136,-0.160027,-214.339,45.4881,-85.5393,0,0,3.31133,5
1771444832026,0.438779,-0.263992,0.0173938,-232.238,15.996,-97.9071,0,0,3.27429,5
1771444832040,0.383743,-0.0785383,0.245919,-241.188,-7.2272,-96.0833,0,0,3.45822,5
1771444832053,0.344662,0.110272,0.521847,-245.663,-28.7357,-69.4195,0,0,3.27692,5
1771444832067,0.376873,0.331588,0.567811,-247.9,-59.1847,-32.0113,0,0,3.2917,5
1771444832080,0.460956,0.430932,0.473195,-249.019,-92.3519,-0.986558,0,0,3.35081,3
1771444832094,0.374621,0.506494,0.319326,-249.578,-107.409,12.6136,0,0,3.3075,3
1771444832107,0.219943,0.648047,0.306035,-249.858,-101.987,15.5587,0,0,3.36592,3
1771444832121,0.195375,0.894577,0.344037,-249.998,-102.112,24.0389,0,0,3.26246,3
1771444832134,0.278357,1.15354,0.30956,-250.067,-110.972,52.2141,0,0,3.43333,3
1771444832148,0.128516,1.3137,0.28866,-250.102,-113.391,86.63,0,0,3.3005,3
1771444832163,-0.173624,1.52188,0.225916,-250.12,-90.4052,109.826,0,0,4.02544,3
1771444832177,-0.417725,1.77302,0.171482,-250.129,-49.9202,124.104,0,0,3.29159,2
1771444832190,-0.516473,1.99183,0.0995515,-250.133,-5.75397,133.365,0,0,3.31357,3
1771444832205,-0.516082,2.08327,-0.00372417,-250.135,29.8635,132.431,0,0,3.31392,3
1771444832220,-0.475072,2.17309,-0.118806,-250.136,49.5043,119.337,0,0,5.04414,1
1771444832233,-0.479279,2.30998,-0.2789,-250.137,58.4506,95.9817,0,0,3.32789,1
1771444832247,-0.498248,2.38453,-0.458783,-239.523,71.7177,69.3954,0,0,3.28653,1
1771444832260,-0.367328,2.42091,-0.662387,-212.055,85.7596,48.7206,0,0,3.42028,5
1771444832274,-0.11048,2.39537,-0.870192,-170.799,82.7882,36.6504,0,0,3.27748,5
1771444832288,0.0221634,2.29982,-1.02988,-122.666,60.7338,29.4931,0,0,3.74318,5
1771444832301,0.0884812,2.12908,-1.19332,-71.4974,30.9241,23.0977,0,0,3.29792,5
1771444832315,0.127104,2.01977,-1.27555,-20.1647,8.78268,15.6901,0,0,3.29263,5
1771444832328,0.116904,1.95995,-1.23596,31.6772,-6.30331,-1.13206,0,0,3.34359,5
1771444832341,0.19415,1.84572,-1.09265,77.4531,-21.1555,-23.2073,0,0,3.285,5
1771444832355,0.386902,1.53976,-0.463818,97.5281,-47.9938,-33.7067,0,0,3.29439,5
1771444832368,1.13921,1.12886,1.13534,53.7793,-88.1038,-12.651,0,0,3.28365,3
1771444832382,0.510056,1.59559,0.565295,151.955,-140.369,-3.27972,0,0,3.77292,3
1771444832395,-0.0560353,1.28513,-0.301262,201.042,-107.734,-11.4834,0,0,3.29691,3
1771444832409,-0.404889,1.01828,-0.0257493,102.136,-39.3517,-23.2073,0,0,3.41387,3
1771444832423,-0.197034,1.282,0.236163,85.8579,17.389,-18.4624,0,0,3.427,3
1771444832436,-0.0232362,1.21561,0.221265,145.085,32.477,3.74588,0,0,3.27794,3
1771444832449,-0.0877702,0.801361,0.121966,122.89,29.9026,21.1134,0,0,3.30209,2
1771444832463,-0.024576,0.819521,0.0978629,87.9794,36.0467,33.8506,0,0,3.28713,2
1771444832476,0.136068,1.03444,0.0503827,91.3408,34.6035,41.9558,0,0,3.33692,2
1771444832490,0.182833,1.02543,0.0384553,74.117,22.2025,41.3214,0,0,3.38753,4
1771444832503,0.110947,0.994015,0.0687609,59.5051,19.0478,33.4928,0,0,3.45174,5
1771444832517,0.0364754,0.974555,0.11165,58.0006,27.917,23.4945,0,0,3.32192,2
1771444832530,0.182944,0.975187,0.14241,46.214,34.6837,14.6595,0,0,3.28818,2
1771444832544,0.343938,0.920926,0.148943,46.2101,21.6663,7.80683,0,0,3.32353,5
1771444832557,0.385154,0.846483,0.128732,38.0898,0.474363,3.94921,0,0,3.28668,5
1771444832571,0.2979,0.921949,0.13999,27.5525,-17.5529,3.45934,0,0,3.30852,5
1771444832584,0.175694,0.97239,0.145203,26.3526,-23.3681,2.08463,0,0,3.30055,5
1771444832597,0.100242,0.977471,0.155721,24.9816,-21.4207,-1.02257,0,0,3.46137,5
1771444832611,0.107363,0.982481,0.162907,24.4794,-18.4622,-3.73266,0,0,3.2677,5
1771444832627,0.115081,0.989719,0.163496,27.2473,-14.8036,0.118403,0,0,3.62814,5
1771444832641,0.114873,0.966988,0.159326,27.8603,-6.97052,2.48287,0,0,3.2984,5
1771444832654,0.143254,0.953537,0.154813,28.4263,4.98802,-1.3807,0,0,3.58911,3
1771444832668,0.159718,0.956101,0.116318,28.9956,13.3528,-5.37738,0,0,3.32248,5
1771444832681,0.195648,0.964831,0.0945884,28.91,14.1917,-8.47113,0,0,3.27735,3
1771444832695,0.16579,0.987314,0.0788067,29.642,12.1989,-11.0295,0,0,3.37085,3
1771444832708,0.133858,0.98836,0.0776878,29.0424,8.83608,-12.6903,0,0,3.2678,5
1771444832721,0.131297,0.997079,0.0785442,28.5365,1.55163,-13.8299,0,0,3.33189,5
1771444832735,0.139362,0.997163,0.0784815,28.9095,-8.76999,-13.5333,0,0,3.28913,3
1771444832750,0.123983,0.995118,0.0773042,29.1303,-15.2209,-11.2972,0,0,5.16604,3
1771444832764,0.104318,0.997129,0.0744495,29.5117,-16.5341,-9.82797,0,0,3.291,5
1771444832777,0.101407,1.0076,0.0712181,29.4429,-16.1602,-10.4751,0,0,3.48092,5
1771444832791,0.0725114,1.02272,0.0701065,30.6985,-13.0228,-9.71081,0,0,3.5575,5
1771444832804,0.0473209,1.02473,0.0692182,32.4142,-8.44272,-8.40502,0,0,3.27505,5
1771444832818,0.0459366,1.0366,0.0723216,34.2071,-5.80151,-8.07274,0,0,3.29185,5
1771444832831,0.0537073,1.04597,0.0677534,37.8325,-6.6145,-7.05545,0,0,3.28294,5
1771444832845,0.03779,1.05635,0.059049,40.8819,-8.63931,-5.42849,0,0,3.3542,3
1771444832858,0.0463801,1.06389,0.0570492,44.4677,-7.04103,-3.61883,0,0,3.34122,3
1771444832871,0.0812811,1.05876,0.0410716,47.3102,-8.52815,-2.01934,0,0,3.29909,3
1771444832885,0.127382,1.07672,0.0275819,49.9452,-11.5885,-0.463867,0,0,3.2822,3
1771444832898,0.145683,1.11737,0.0288086,52.0222,-12.0042,-0.472391,0,0,3.2757,3
1771444832913,0.163813,1.1522,0.0285462,58.9729,-11.5899,-5.43085,0,0,5.11288,3
1771444832927,0.172212,1.14412,0.0215555,63.3338,-12.1995,-12.2765,0,0,3.28441,3
1771444832940,0.135268,1.2103,0.0206554,69.518,-11.928,-15.894,0,0,3.33963,3
1771444832954,0.164214,1.26196,0.0129056,78.2247,-11.8266,-12.9126,0,0,3.3902,3
1771444832967,0.071709,1.27429,0.0178158,91.5627,-10.7301,-15.7922,0,0,3.57216,3
1771444832983,0.0192544,1.31492,0.0210543,97.5142,-7.73909,-18.7205,0,0,3.29017,3
1771444832996,-0.0212303,1.36216,0.0411505,109.524,-4.85428,-18.6961,0,0,3.27883,3
1771444833009,-0.000242206,1.37323,0.056496,121.548,-4.90806,-14.5962,0,0,3.28594,3
1771444833023,0.0201365,1.3785,0.0687055,132.625,-8.66395,-11.3859,0,0,3.27855,3
1771444833036,0.0193074,1.39325,0.0977949,143.599,-12.435,-11.1051,0,0,3.30394,3
1771444833050,-0.0136743,1.44435,0.123985,155.055,-12.2251,-12.461,0,0,3.35602,3
1771444833063,0.0299717,1.50382,0.193359,168.363,-8.55532,-13.0282,0,0,3.38713,3
1771444833077,0.103813,1.5224,0.278725,183.472,-11.6403,-14.1744,0,0,3.29666,3
1771444833090,0.194495,1.52058,0.372255,194.847,-26.156,-15.3315,0,0,3.28911,3
1771444833104,0.371905,1.53105,0.480121,205.874,-47.0169,-12.0207,0,0,3.30268,3
1771444833119,0.529052,1.51774,0.643543,219.532,-82.1688,-5.54852,0,0,4.95162,3
1771444833132,0.600774,1.44911,0.794775,233.839,-119.478,-0.0948697,0,0,3.30789,3
1771444833146,0.474057,1.36579,0.799725,241.984,-140.662,-7.15812,0,0,3.54424,3
1771444833159,0.294951,1.37924,0.650451,246.057,-149.682,-26.7317,0,0,3.49192,3
1771444833173,0.208175,1.4972,0.237418,248.093,-161.956,-48.9727,0,0,3.2757,3
1771444833187,0.205754,1.59441,-0.0347267,249.112,-141.863,-52.5398,0,0,3.45813,3
1771444833200,0.17831,1.45169,-0.107389,249.621,-99.3744,-38.3768,0,0,3.29498,3
1771444833214,0.101309,1.00395,-0.0618316,219.619,-60.9544,-35.3487,0,0,3.32976,3
1771444833228,0.0663264,0.526023,-0.203852,147.787,-36.9925,-43.5064,0,0,3.7082,3
1771444833241,0.0211355,0.155644,-0.422517,72.8514,-12.3894,-51.0585,0,0,3.29622,3
1771444833254,-0.143961,0.0445176,-0.468294,6.31885,28.3015,-46.4949,0,0,3.28703,3
1771444833268,-0.252185,0.197814,-0.672164,-53.436,74.666,-27.2131,0,0,3.28537,2
1771444833282,-0.166124,0.133855,-0.215929,-113.512,116.635,-1.05694,0,0,3.85483,2
1771444833295,-0.00637344,-0.0365506,0.298143,-181.825,115.928,10.7387,0,0,3.27935,5
1771444833309,0.382681,0.116488,0.203926,-214.584,90.4831,18.9495,0,0,3.38055,3
1771444833322,0.463459,0.187236,0.442069,-226.09,41.7263,23.7839,0,0,3.3132,3
1771444833335,0.377627,0.238235,0.359789,-235.907,-4.75901,26.8271,0,0,3.26307,2
1771444833351,0.168606,0.137929,0.279435,-243.022,-18.7154,37.3563,0,0,3.29805,2
1771444833364,-0.00034281,0.15875,0.257694,-246.58,-5.23937,47.4644,0,0,3.28609,5
1771444833378,-0.050425,0.312493,0.328758,-248.359,10.3536,47.4803,0,0,3.39026,5
1771444833391,0.0338513,0.486289,0.331768,-249.248,8.47451,37.2478,0,0,3.28465,5
1771444833405,0.140589,0.572981,0.314806,-249.693,-14.946,25.4712,0,0,3.35694,5
1771444833418,0.0526119,0.616632,0.311356,-249.915,-36.5302,21.7623,0,0,3.28185,5
1771444833432,-0.12656,0.756426,0.287713,-250.026,-37.7231,32.2438,0,0,3.74272,1
1771444833445,-0.205245,1.01206,0.318722,-250.082,-25.0181,55.4921,0,0,3.29846,4
1771444833459,-0.240958,1.35121,0.314044,-250.11,-7.32582,76.9293,0,0,3.28822,4
1771444833474,-0.271924,1.6391,0.25174,-250.124,15.8371,85.8387,0,0,5.16182,1
1771444833487,-0.216139,1.8102,0.158754,-250.13,39.0521,87.5567,0,0,3.27192,5
1771444833501,-0.0861388,1.95211,0.0577964,-250.134,50.881,87.4997,0,0,3.35181,5
1771444833514,0.0013111,2.126,-0.0703169,-250.136,56.742,88.643,0,0,3.27728,5
1771444833528,-0.0148149,2.2962,-0.240348,-250.137,61.6535,85.0047,0,0,3.38535,5
1771444833541,-0.0801792,2.38338,-0.42827,-234.19,67.968,78.5901,0,0,3.26565,5
1771444833555,-0.191574,2.42219,-0.61088,-198.645,76.4382,71.1386,0,0,3.4772,5
1771444833569,-0.294985,2.35079,-0.815797,-154.28,90.9176,59.4433,0,0,3.28831,5
1771444833582,-0.308082,2.21777,-0.980712,-116.072,109.867,42.3285,0,0,3.2693,5
1771444833596,-0.200071,2.14369,-1.07649,-71.906,118.537,24.0498,0,0,3.34057,5
1771444833609,0.0772367,2.04218,-1.17503,-25.7431,102.818,13.7424,0,0,3.28472,5
1771444833623,0.307151,1.90453,-1.22201,10.8918,67.3594,13.3331,0,0,3.37333,5
1771444833636,0.293061,1.89491,-1.0641,51.1787,36.3858,12.6322,0,0,3.27478,5
1771444833650,0.509242,1.72361,-0.385936,88.4939,6.57075,13.0413,0,0,3.46996,5
1771444833663,0.92384,1.94578,0.349891,119.239,-48.6192,18.9176,0,0,3.27985,3
1771444833677,0.324961,1.922,-0.049926,184.685,-78.989,7.86337,0,0,3.27418,5
1771444833690,-0.100736,1.26063,-0.180556,165.583,-32.1472,-7.61793,0,0,3.30222,5
1771444833704,-0.102606,1.11145,0.039643,85.4402,17.5829,-13.4464,0,0,3.27903,5
1771444833717,0.0128719,1.2671,0.142382,117.132,29.8373,-6.04761,0,0,3.3145,3
1771444833731,0.0338878,1.02517,0.160033,131.028,17.8537,7.12123,0,0,3.3118,5
1771444833744,0.0226219,0.891599,0.127365,103.274,6.58718,21.4499,0,0,3.50983,5
1771444833758,0.138106,0.959123,0.0648546,98.5757,-8.3629,32.6868,0,0,3.28354,5
1771444833771,0.135597,1.01339,0.061562,82.1772,-15.4753,39.2976,0,0,3.29655,5
1771444833785,-0.0461911,1.0448,0.140792,72.497,3.29286,35.874,0,0,3.30316,4
1771444833800,0.00420627,0.989655,0.152015,68.9164,21.7838,26.9408,0,0,5.03599,5
1771444833813,0.226173,0.958725,0.153182,60.4811,18.2736,17.4513,0,0,3.29639,5
1771444833827,0.258412,0.917709,0.149471,59.2177,12.0337,11.9089,0,0,3.28481,5
1771444833840,0.234232,0.900747,0.137905,54.0668,12.4596,7.47352,0,0,3.27876,5
1771444833853,0.240581,0.944089,0.128646,49.625,8.97409,2.93905,0,0,3.26811,5
1771444833870,0.209844,0.958959,0.130751,44.7324,3.64735,-4.75948,0,0,6.2712,5
1771444833883,0.158806,0.971301,0.110323,42.6906,-0.489303,-10.4217,0,0,3.29118,5
1771444833897,0.116519,0.98062,0.107622,39.2461,-3.51946,-12.8101,0,0,3.7395,5
1771444833910,0.0872829,0.98835,0.0999407,36.3482,-3.41622,-10.3631,0,0,3.28228,5
1771444833924,0.0929235,0.975381,0.0876643,34.3459,-2.47147,-5.2197,0,0,3.29085,5
1771444833937,0.103103,0.973355,0.0794362,31.0699,-1.62505,-3.89611,0,0,3.29544,5
1771444833951,0.11847,0.976428,0.0780043,29.3632,-0.79344,-5.11981,0,0,3.28535,5
1771444833964,0.135154,0.972453,0.0717501,28.2617,-1.1868,-5.46449,0,0,3.30481,5
1771444833977,0.152245,0.974887,0.0756083,27.3332,-2.99798,-5.45362,0,0,3.28337,5
1771444833991,0.172485,0.98161,0.0808832,27.5635,-5.04479,-8.16192,0,0,3.38022,5
1771444834005,0.192733,0.97709,0.0840059,29.4535,-6.45751,-13.7298,0,0,3.3807,3
1771444834019,0.206865,0.968942,0.0804996,31.0054,-8.57608,-18.2084,0,0,3.7072,3
1771444834032,0.184971,0.959252,0.0674037,33.4836,-10.1354,-20.6118,0,0,3.26407,3
1771444834046,0.145818,0.970177,0.0172787,34.28,-8.81196,-22.1571,0,0,3.26518,5
1771444834059,0.08072,0.977188,0.00636533,33.4988,-5.53575,-23.1243,0,0,3.28574,5
1771444834072,0.0357953,0.999355,0.00111109,32.3105,-0.985433,-22.566,0,0,3.28135,5
1771444834086,0.00958919,1.0162,0.00569855,31.369,3.74011,-20.7601,0,0,3.29411,5
1771444834099,0.0076407,1.02544,-0.000891191,30.8944,6.94257,-18.6739,0,0,3.26661,3
1771444834113,0.0203847,1.02018,-0.0130794,30.0464,6.18503,-17.0431,0,0,3.6649,3
1771444834126,0.0221781,1.01837,-0.0147786,28.7828,3.43984,-16.2467,0,0,3.26787,5
1771444834143,0.0205301,1.02841,-0.0156066,28.4944,1.5787,-15.0737,0,0,3.71775,5
1771444834157,0.031018,1.03695,-0.0122021,28.4342,-0.084696,-12.4834,0,0,3.29515,5
1771444834171,0.029964,1.05231,-0.0130785,30.1599,-0.90876,-10.6654,0,0,3.60211,5
1771444834184,0.0228153,1.05771,-0.00909275,32.3128,0.156307,-9.78689,0,0,3.3067,5
1771444834198,0.0195396,1.06537,-0.0104709,35.0724,3.19647,-9.09192,0,0,3.28855,5
1771444834211,0.0354553,1.0891,-0.00190901,39.0057,4.93411,-8.49252,0,0,3.39802,5
1771444834225,0.0380596,1.11552,-0.00411144,44.5639,4.11973,-9.47527,0,0,3.27381,5
1771444834238,0.0163776,1.16597,-0.0137466,51.9155,3.93391,-11.9743,0,0,3.317,5
1771444834252,0.0168952,1.16502,-0.0292886,55.7059,5.47841,-14.3116,0,0,3.29029,5
1771444834266,0.0592981,1.19267,-0.015647,61.0361,4.86516,-15.0222,0,0,3.50713,5
1771444834279,0.0782006,1.21286,-0.00356892,69.8883,1.26082,-17.8928,0,0,3.30665,5
1771444834293,0.106687,1.22651,-0.0111243,77.0777,-2.61005,-21.4006,0,0,3.30557,5
1771444834306,0.0819354,1.24201,-0.0159729,84.3786,-7.03403,-25.3949,0,0,3.4144,5
1771444834320,0.0354382,1.25957,-0.016548,91.7542,-9.38343,-27.6326,0,0,3.27759,5
1771444834333,-0.0292996,1.27914,-0.0114942,100.049,-9.7795,-27.4117,0,0,3.30852,5
1771444834347,-0.10172,1.31357,0.00172006,109.425,-7.05006,-26.8509,0,0,3.28394,5
1771444834360,-0.143822,1.37721,0.0266437,118.583,-0.196783,-26.4025,0,0,3.42553,5
1771444834374,-0.121073,1.42855,0.0522594,131.524,7.31001,-26.1669,0,0,3.32972,5
1771444834387,-0.0953654,1.40849,0.103684,143.43,11.7084,-28.1025,0,0,3.29205,5
1771444834401,-0.0218407,1.38608,0.153042,151.337,14.6099,-30.5665,0,0,3.30659,5
1771444834415,0.0892804,1.3731,0.200373,157.665,11.5034,-32.2604,0,0,3.29503,2
1771444834428,0.20135,1.35699,0.247978,166.573,-0.549804,-29.8859,0,0,3.30728,3
1771444834442,0.329948,1.32417,0.313164,176.557,-22.8856,-23.63,0,0,3.28979,3
1771444834455,0.393757,1.30092,0.390333,188.866,-45.3626,-17.6814,0,0,3.385,3
1771444834469,0.376366,1.25915,0.432508,201.865,-60.8225,-16.3102,0,0,3.32118,3
1771444834482,0.282201,1.23987,0.342895,213.913,-67.6784,-24.323,0,0,3.48292,3
1771444834496,0.126347,1.2972,0.145005,227.689,-62.8163,-42.7149,0,0,3.29063,5
1771444834509,-0.00402117,1.36111,-0.0599206,238.91,-47.5227,-65.1399,0,0,3.27718,5
1771444834523,0.000480725,1.38139,-0.14761,244.52,-24.3339,-75.1539,0,0,3.34157,3
1771444834536,0.114451,1.27974,-0.142134,232.832,-1.70128,-64.0731,0,0,3.28713,3
1771444834550,0.216279,1.21678,-0.184976,212.042,8.7944,-47.0289,0,0,3.34702,3
1771444834563,0.255561,1.04404,-0.194889,197.178,8.943,-39.8084,0,0,3.26896,3
1771444834577,0.195754,0.676742,-0.325452,160.848,7.70433,-42.1675,0,0,3.44618,3
1771444834590,0.129297,0.391349,-0.505276,102.474,19.9094,-43.1716,0,0,3.27515,3
1771444834604,0.00250762,0.262341,-0.506272,37.9468,42.9509,-38.7346,0,0,3.29468,5
1771444834617,-0.0199947,0.295704,-0.497553,-19.6754,65.8571,-27.9933,0,0,3.30722,5
1771444834631,0.0209302,0.313529,-0.406503,-64.2156,81.5507,-12.9776,0,0,3.27796,5
1771444834644,0.0834914,0.22106,-0.295069,-109.39,81.0005,1.00741,0,0,3.35191,5
1771444834658,0.209793,0.0955943,-0.324842,-154.867,67.9163,15.0228,0,0,3.28478,5
1771444834672,0.284898,-0.0555941,-0.146715,-202.502,45.4085,26.0457,0,0,3.87903,5
1771444834685,0.255865,0.00814299,0.17489,-226.32,18.2195,32.3129,0,0,3.31861,5
1771444834701,0.234871,0.233248,0.195239,-233.045,-6.93985,39.9275,0,0,3.36835,5
1771444834714,0.222623,0.240824,0.185382,-241.591,-30.5234,42.7614,0,0,3.27572,5
1771444834728,0.230245,0.231604,0.115644,-245.864,-50.3113,39.7777,0,0,3.27083,5
1771444834741,0.193852,0.292685,0.117509,-248.001,-65.003,34.3163,0,0,3.27983,5
1771444834754,0.118455,0.458708,0.124041,-249.069,-81.2839,28.2001,0,0,3.27357,5
1771444834768,0.0670964,0.686392,0.0740046,-249.603,-94.913,27.3672,0,0,3.30198,1
1771444834781,-0.0431821,0.862157,-0.0078736,-249.87,-103.453,32.6416,0,0,3.30279,1
1771444834795,-0.271477,1.01492,-0.131353,-250.004,-94.0851,42.9162,0,0,3.35479,1
1771444834808,-0.512009,1.16404,-0.23491,-250.071,-60.0197,56.0955,0,0,3.28322,2
1771444834822,-0.669255,1.34012,-0.311688,-250.104,-9.69303,70.1394,0,0,3.39329,2
1771444834835,-0.635033,1.43667,-0.323437,-250.121,39.7794,80.8559,0,0,3.30585,1
1771444834848,-0.492981,1.49338,-0.319518,-250.129,76.6683,89.1112,0,0,3.28307,1
1771444834862,-0.343831,1.54237,-0.319191,-250.133,103.968,94.0976,0,0,3.33818,1
1771444834875,-0.234733,1.58501,-0.304111,-248.498,125.446,95.1289,0,0,3.2892,5
1771444834889,-0.160871,1.64018,-0.290323,-239.837,141.192,94.3813,0,0,3.44463,5
1771444834903,-0.147058,1.71197,-0.291009,-224.739,150.184,93.9387,0,0,3.28148,5
1771444834916,-0.160847,1.7612,-0.30518,-205.213,160.466,89.7747,0,0,3.52389,5
1771444834930,-0.150891,1.80616,-0.336316,-180.011,171.542,77.9217,0,0,3.29133,5
1771444834944,-0.0558994,1.81053,-0.389097,-151.09,175.386,59.3005,0,0,3.27111,5
1771444834957,0.101535,1.76584,-0.466876,-121.926,163.742,42.0091,0,0,3.33766,5
1771444834971,0.273939,1.70367,-0.577666,-91.8411,133.715,33.0541,0,0,3.27772,5
1771444834984,0.428135,1.66551,-0.701856,-62.0694,87.1398,33.0347,0,0,3.34481,5
1771444834997,0.39528,1.64802,-0.796511,-28.1339,40.902,33.7693,0,0,3.29091,5
1771444835011,0.17836,1.65613,-0.783434,8.81853,16.2792,26.0335,0,0,3.43992,5
1771444835024,0.0592707,1.57676,-0.672008,46.4742,11.4411,14.1236,0,0,3.28992,5
1771444835038,0.358247,1.45917,0.442172,49.1836,-3.35195,14.3061,0,0,3.2912,5
1771444835051,0.255879,1.65984,0.388281,98.046,-27.3248,17.4546,0,0,3.30479,5
1771444835065,0.0616119,1.30047,0.0326127,126.58,-24.5784,17.8647,0,0,3.28785,5
1771444835078,-0.025885,0.992878,0.134634,74.0191,-15.2854,14.1843,0,0,3.33191,5
1771444835092,-0.00681541,1.09811,0.241214,71.4332,-7.99766,13.5311,0,0,3.37854,5
1771444835106,-0.00201218,1.0634,0.231417,92.1021,-8.93013,17.4182,0,0,3.54072,5
1771444835120,-0.0235949,0.955059,0.223555,80.3793,-8.29331,19.6557,0,0,3.29106,5
1771444835133,0.0221183,0.9325,0.232854,78.3958,-12.2001,19.8927,0,0,3.29278,4
1771444835147,0.0851286,0.939714,0.193515,76.8467,-14.6039,24.6983,0,0,3.29526,5
1771444835160,0.0798206,0.985015,0.14754,67.7936,-4.95079,29.4675,0,0,3.29015,4
1771444835173,0.0909335,0.995981,0.146724,61.9655,8.33758,26.7833,0,0,3.36005,5
1771444835187,0.156667,0.975292,0.154685,58.4598,15.1421,20.5291,0,0,3.28554,5
1771444835200,0.183982,0.947933,0.158482,54.8139,17.1436,14.9019,0,0,3.29404,5
1771444835214,0.161714,0.930114,0.164242,52.239,22.5985,11.5502,0,0,3.28835,5
1771444835227,0.165354,0.936171,0.147559,49.3752,26.6046,7.85907,0,0,3.28246,5
1771444835240,0.198653,0.939708,0.143763,46.1609,22.455,3.94862,0,0,3.27463,5
1771444835254,0.177777,0.947401,0.126283,42.2751,13.3916,2.31019,0,0,3.27124,5
1771444835267,0.104116,0.951813,0.124511,40.1299,8.67672,2.44517,0,0,3.28422,5
1771444835281,0.0571943,0.969601,0.115503,36.9047,9.0292,4.39434,0,0,3.2832,5
1771444835298,0.0469374,0.978393,0.116019,35.8378,9.50315,6.26969,0,0,7.05796,5
1771444835311,0.0536499,0.968903,0.113026,33.2395,9.5302,5.97454,0,0,3.27935,5
1771444835328,0.0391525,0.968848,0.0904641,31.4289,11.5399,6.68574,0,0,6.84425,5
1771444835341,0.0667593,0.966364,0.0903293,27.7412,11.7318,9.00699,0,0,3.30192,5
1771444835355,0.0906857,0.978414,0.0877938,25.9736,10.6674,9.83174,0,0,3.31885,5
1771444835368,0.102892,0.978626,0.0797817,24.1395,9.6047,6.65633,0,0,3.32328,5
1771444835382,0.125419,0.975875,0.0805002,21.5201,8.26418,0.908317,0,0,3.76135,5
1771444835397,0.139438,0.975946,0.0723896,19.9013,6.10156,-3.12981,0,0,3.40753,5
1771444835411,0.13689,0.973631,0.0646483,17.4506,3.09658,-4.70994,0,0,3.26689,5
1771444835424,0.122134,0.975818,0.0565316,14.7559,1.22005,-5.7023,0,0,3.3087,5
1771444835437,0.100332,0.978709,0.0561333,12.5955,0.606206,-6.81298,0,0,3.25902,5
1771444835451,0.0805687,0.985199,0.0581518,10.2176,0.0168435,-6.5897,0,0,3.29881,5
1771444835464,0.0636871,0.990152,0.0540244,8.96376,-0.6557,-4.43607,0,0,3.26646,5
1771444835478,0.0543403,0.985196,0.0526876,7.53531,-0.175178,-1.16842,0,0,3.30522,5
1771444835491,0.0627739,0.986389,0.0514798,6.34399,0.828441,0.992128,0,0,3.25759,5
1771444835505,0.0812184,0.976833,0.0511421,5.49261,1.13178,1.95026,0,0,3.51065,5
1771444835518,0.0951542,0.976649,0.050663,4.84936,0.241461,2.20032,0,0,3.30178,5
1771444835531,0.101036,0.985277,0.0562156,4.71857,-1.13118,1.84825,0,0,3.272,5
1771444835545,0.103061,0.989852,0.0571551,4.89745,-2.78315,1.13023,0,0,3.30059,5
1771444835558,0.0967517,0.992001,0.0591574,4.99071,-4.86867,0.362827,0,0,3.2705,5
1771444835572,0.0960262,0.99749,0.0610546,5.35413,-6.01449,0.353169,0,0,3.37729,5
1771444835585,0.100021,0.996028,0.0648961,6.24959,-6.0416,0.745287,0,0,3.31215,5
