timestamp,ax,ay,az,gx,gy,gz,roll_k,pitch_k,delay_ms,classe_prevista
1777223675008,0.0770773,0.651564,0.0925907,0.0396679,-0.337412,0.234064,0,0,3.26099,-1
1777223675022,0.0974211,0.782335,0.109495,0.0253197,-0.227632,0.127172,0,0,3.29581,-1
1777223675035,0.103783,0.840904,0.118311,0.0181072,-0.182803,0.0955229,0,0,3.27288,-1
1777223675049,0.10638,0.872641,0.124544,0.0139439,-0.15701,0.0818929,0,0,3.25668,-1
1777223675062,0.107509,0.893623,0.127479,0.0110864,-0.140653,0.0769728,0,0,3.26264,-1
1777223675075,0.111569,0.909959,0.130008,0.00948179,-0.129691,0.0765235,0,0,3.26358,-1
1777223675089,0.11286,0.920231,0.130736,0.00651404,-0.120576,0.0764575,0,0,3.41768,-1
1777223675102,0.11324,0.929127,0.130717,0.00322685,-0.109433,0.0763076,0,0,3.24914,-1
1777223675115,0.116747,0.935096,0.130925,0.00104519,-0.0982755,0.0771345,0,0,3.25603,-1
1777223675129,0.121159,0.939474,0.130951,-0.00121404,-0.0889889,0.0767801,0,0,3.24838,-1
1777223675142,0.125765,0.942443,0.131672,-0.00422138,-0.0823471,0.0744884,0,0,3.24323,-1
1777223675155,0.126651,0.946408,0.131695,-0.00743879,-0.075673,0.0726261,0,0,3.23699,-1
1777223675169,0.127671,0.949765,0.131411,-0.0110442,-0.0683041,0.0736563,0,0,3.23966,-1
1777223675182,0.127306,0.951791,0.132703,-0.0145892,-0.0606973,0.0759881,0,0,3.2501,-1
1777223675195,0.1301,0.955012,0.132552,-0.0176537,-0.0516514,0.078112,0,0,3.25795,-1
1777223675209,0.134208,0.956432,0.133375,-0.0202864,-0.0441575,0.0787868,0,0,3.24714,-1
1777223675222,0.138072,0.955729,0.134051,-0.0238534,-0.0366151,0.0760518,0,0,3.25062,-1
1777223675235,0.141862,0.957497,0.135383,-0.0272154,-0.0276122,0.0710982,0,0,3.26331,-1
1777223675249,0.146176,0.956429,0.135009,-0.0310329,-0.0175455,0.0647706,0,0,3.25586,-1
1777223675262,0.149552,0.955667,0.135365,-0.0358163,-0.00753402,0.0554388,0,0,3.24938,-1
1777223675275,0.149178,0.953875,0.135771,-0.042474,0.00280252,0.0453117,0,0,3.24406,-1
1777223675289,0.146206,0.953582,0.135541,-0.0507438,0.0143404,0.037182,0,0,3.28101,-1
1777223675302,0.144759,0.953006,0.136568,-0.0604843,0.0263959,0.0316568,0,0,3.2504,-1
1777223675315,0.144761,0.953279,0.138683,-0.0707503,0.0357781,0.0270663,0,0,3.25132,-1
1777223675329,0.147921,0.955321,0.142097,-0.0818108,0.0405413,0.0170823,0,0,3.27742,-1
1777223675342,0.153562,0.957544,0.147153,-0.0927066,0.0364174,-0.00332505,0,0,3.25231,-1
1777223675356,0.154399,0.964206,0.154085,-0.100501,0.0304236,-0.030331,0,0,3.24964,-1
1777223675369,0.155319,0.967349,0.160552,-0.107542,0.0262432,-0.046791,0,0,3.25429,-1
1777223675382,0.154509,0.968274,0.162753,-0.111794,0.0299993,-0.0536366,0,0,3.24194,-1
1777223675396,0.155124,0.973068,0.1627,-0.109192,0.044771,-0.0542773,0,0,3.55492,0
1777223675409,0.161065,0.969055,0.161882,-0.108513,0.0582,-0.0432079,0,0,3.37468,0
1777223675423,0.157728,0.971332,0.161944,-0.107437,0.074709,-0.0438438,0,0,3.50021,0
1777223675436,0.15882,0.971732,0.162095,-0.108755,0.0978557,-0.0500226,0,0,3.40397,0
1777223675450,0.151885,0.975811,0.163995,-0.105324,0.132908,-0.0563166,0,0,3.43708,0
1777223675464,0.14461,0.975878,0.14885,-0.100289,0.174256,-0.0616888,0,0,3.49986,0
1777223675477,0.139194,0.973072,0.144066,-0.102505,0.22048,-0.0653641,0,0,3.40075,0
1777223675491,0.123328,0.975978,0.138368,-0.0990599,0.271444,-0.0674981,0,0,3.48099,0
1777223675504,0.0445644,0.996452,0.0745773,-0.0938476,0.346025,-0.0544163,0,0,3.4711,0
1777223675518,0.0301983,1.00467,0.116837,-0.0926847,0.455059,0.0105819,0,0,3.43895,0
1777223675531,0.0564286,0.979381,0.125087,-0.0756342,0.53858,0.0728387,0,0,3.50851,0
1777223675545,0.061411,0.975149,0.144218,-0.0737537,0.569924,0.079045,0,0,3.52655,0
1777223675559,0.0741016,0.970059,0.162565,-0.0643876,0.577392,0.094484,0,0,3.49966,0
1777223675572,0.105163,0.96934,0.159835,-0.0398141,0.550091,0.111892,0,0,3.42644,0
1777223675586,0.0622538,1.00114,0.164767,-0.0148323,0.50262,0.108701,0,0,3.50671,0
1777223675599,0.107648,0.983621,0.18253,0.00873386,0.418036,0.0927727,0,0,3.4732,0
1777223675613,0.127629,0.980149,0.205833,0.0360441,0.286938,0.0326286,0,0,3.48331,0
1777223675626,0.123133,0.981703,0.204511,0.061678,0.164128,-0.0289672,0,0,3.41121,0
1777223675640,0.114145,0.981476,0.201562,0.0803805,0.0713027,-0.0526254,0,0,3.47492,0
1777223675654,0.10927,0.97803,0.191763,0.0907497,0.00567844,-0.070941,0,0,3.46238,0
1777223675667,0.106678,0.974394,0.178911,0.0857138,-0.0405606,-0.0907205,0,0,3.4252,0
1777223675681,0.100599,0.975388,0.172869,0.0741635,-0.0675282,-0.100193,0,0,3.47212,0
1777223675694,0.0988924,0.976122,0.174025,0.066065,-0.0810954,-0.1024,0,0,3.38016,0
1777223675708,0.0940646,0.976115,0.174739,0.0584511,-0.0817907,-0.104583,0,0,3.53347,0
1777223675721,0.087814,0.977397,0.176066,0.0537856,-0.0716322,-0.102763,0,0,3.41464,0
1777223675735,0.083674,0.979442,0.17693,0.0545287,-0.052378,-0.097697,0,0,3.42549,0
1777223675749,0.0795004,0.981765,0.177132,0.0586594,-0.0268799,-0.0923175,0,0,3.48349,0
1777223675762,0.0806704,0.984972,0.180493,0.0672035,0.000933443,-0.0860279,0,0,3.50407,0
1777223675776,0.0832948,0.989462,0.182928,0.079578,0.0279153,-0.0851123,0,0,3.48758,0
1777223675789,0.0884366,0.993424,0.18456,0.0946356,0.0529828,-0.0923392,0,0,3.39227,0
1777223675803,0.093319,0.999824,0.187521,0.113761,0.0769386,-0.107127,0,0,3.49675,0
1777223675816,0.099231,1.00857,0.190221,0.138541,0.0984285,-0.127225,0,0,3.39777,0
1777223675830,0.10475,1.01995,0.193176,0.169204,0.110777,-0.152929,0,0,3.50057,0
1777223675844,0.106711,1.03679,0.197801,0.206131,0.115088,-0.182555,0,0,3.39145,0
1777223675857,0.0930672,1.05411,0.203199,0.247361,0.119151,-0.212511,0,0,3.41225,0
1777223675870,0.0713771,1.08622,0.214675,0.293908,0.133185,-0.237487,0,0,3.34558,0
1777223675884,0.0451135,1.12344,0.238279,0.353893,0.16455,-0.265438,0,0,3.51951,0
1777223675898,0.0643268,1.25375,0.271223,0.473613,0.184402,-0.316071,0,0,3.52173,0
1777223675911,-0.0538225,0.997201,0.214893,0.581242,0.245386,-0.44796,0,0,3.4186,0
1777223675925,0.0111787,1.20527,0.329771,0.677155,0.251677,-0.472944,0,0,3.46892,0
1777223675938,-0.0194739,1.19501,0.325854,0.805173,0.300329,-0.493496,0,0,3.36581,0
1777223675952,-0.020704,1.26072,0.34774,0.929311,0.352449,-0.543982,0,0,3.38397,4
1777223675965,0.00374001,1.29569,0.368255,1.05488,0.401863,-0.61781,0,0,3.48445,4
1777223675979,0.0291131,1.31183,0.387546,1.18716,0.454021,-0.683505,0,0,3.49197,4
1777223675992,0.05703,1.33586,0.386246,1.32762,0.508732,-0.739512,0,0,3.48079,4
1777223676006,0.0868982,1.33831,0.37492,1.45587,0.560114,-0.790852,0,0,3.45721,4
1777223676020,0.117721,1.327,0.36441,1.57682,0.594993,-0.842313,0,0,3.45512,4
1777223676033,0.13705,1.3468,0.329259,1.70593,0.621413,-0.890554,0,0,3.49218,4
1777223676047,0.153993,1.29235,0.280885,1.79862,0.641826,-0.940016,0,0,3.42708,4
1777223676060,0.159598,1.2048,0.238338,1.81517,0.654028,-0.99093,0,0,3.48084,4
1777223676074,0.162696,1.12926,0.196925,1.7687,0.664362,-1.03716,0,0,3.45312,4
1777223676088,0.127069,1.04174,0.145818,1.67694,0.700976,-1.0741,0,0,3.46518,4
1777223676101,0.0614884,0.951374,0.106528,1.53733,0.814592,-1.09107,0,0,3.74083,4
1777223676115,0.0206674,0.866093,0.0734444,1.37626,0.987898,-1.05287,0,0,3.39769,4
1777223676128,0.0452576,0.778248,0.0450103,1.18105,1.12824,-0.935786,0,0,3.48882,4
1777223676142,0.10605,0.689979,0.0218995,0.944644,1.16766,-0.759236,0,0,3.46612,4
1777223676156,0.160118,0.610414,0.00408615,0.683616,1.13248,-0.578969,0,0,3.36568,4
1777223676169,0.183544,0.521645,-0.00896701,0.384998,1.07347,-0.424714,0,0,3.50247,4
1777223676183,0.184162,0.456733,-0.0069811,0.0533888,1.02163,-0.285391,0,0,3.39018,4
1777223676196,0.183958,0.415432,0.00445891,-0.28028,0.979793,-0.145027,0,0,3.55751,4
1777223676210,0.199191,0.397075,0.0270348,-0.603083,0.930324,-0.00366745,0,0,3.49795,4
1777223676224,0.225801,0.405523,0.0675473,-0.878435,0.860334,0.118356,0,0,3.50219,4
1777223676237,0.260003,0.4135,0.107547,-1.11095,0.769731,0.214279,0,0,3.46734,4
1777223676251,0.292755,0.426958,0.139445,-1.31136,0.656417,0.305258,0,0,3.50412,4
1777223676264,0.306552,0.448905,0.156008,-1.49097,0.53148,0.401455,0,0,3.45932,4
1777223676278,0.299164,0.489772,0.170774,-1.65434,0.418116,0.495996,0,0,3.48273,4
1777223676292,0.279914,0.543044,0.189225,-1.79552,0.331051,0.583967,0,0,3.4661,4
1777223676305,0.264358,0.613297,0.211228,-1.91316,0.270367,0.669781,0,0,3.69166,4
1777223676319,0.242423,0.696458,0.226246,-2.0112,0.235484,0.756942,0,0,3.39697,4
1777223676333,0.208033,0.790505,0.23684,-2.09289,0.23644,0.842516,0,0,3.45151,0
1777223676346,0.167622,0.899312,0.243207,-2.16097,0.279387,0.919526,0,0,3.36701,0
1777223676360,0.13585,1.01501,0.240306,-2.21771,0.348179,0.988473,0,0,3.45083,0
1777223676373,0.119782,1.12911,0.225369,-2.26481,0.426103,1.04518,0,0,3.38018,0
1777223676387,0.111558,1.2338,0.193966,-2.27801,0.506969,1.08074,0,0,3.53173,0
1777223676400,0.110016,1.33622,0.152513,-2.25334,0.587779,1.08681,0,0,3.40257,0
1777223676414,0.119133,1.41921,0.0999228,-2.18786,0.647793,1.0693,0,0,3.54064,0
1777223676428,0.130651,1.48043,0.034702,-2.07893,0.676024,1.03682,0,0,3.44677,0
1777223676441,0.14522,1.51917,-0.0390396,-1.92774,0.669396,0.994516,0,0,3.36175,0
1777223676455,0.159896,1.53547,-0.121916,-1.74126,0.609866,0.946575,0,0,3.44564,0
1777223676468,0.13741,1.53404,-0.209443,-1.53393,0.52326,0.879143,0,0,3.37151,0
1777223676482,0.0774801,1.53538,-0.280289,-1.3114,0.4568,0.781996,0,0,3.46599,0
1777223676495,0.0191095,1.53368,-0.339643,-1.0678,0.422995,0.662745,0,0,3.38744,0
1777223676509,-0.00554266,1.52631,-0.377439,-0.820218,0.407661,0.547262,0,0,3.45192,0
1777223676523,-0.00352542,1.51898,-0.377632,-0.566492,0.393471,0.436013,0,0,3.43403,0
1777223676536,0.00231179,1.43284,-0.334015,-0.336047,0.384088,0.326436,0,0,3.38171,0
1777223676550,0.131723,1.47225,0.0777845,-0.119199,0.304259,0.251674,0,0,3.46551,0
1777223676563,0.0754053,1.37038,0.163373,0.177449,0.291412,0.128545,0,0,3.3651,0
1777223676577,0.0670452,1.34181,0.106424,0.354464,0.273441,0.0493727,0,0,3.46103,0
1777223676590,0.0591755,1.33856,0.04173,0.488428,0.222982,0.0123272,0,0,3.37757,0
1777223676604,0.0832596,1.26905,0.0703007,0.575954,0.178478,-0.00666121,0,0,3.5339,0
1777223676618,0.0864114,1.21918,0.119846,0.639644,0.11793,-0.0383882,0,0,3.42523,0
1777223676631,0.0361936,1.17884,0.123035,0.675441,0.106392,-0.0620665,0,0,3.46686,0
1777223676645,0.0363786,1.14736,0.107337,0.696735,0.141802,-0.0125363,0,0,3.33708,0
1777223676658,0.0731183,1.11025,0.105064,0.691592,0.175548,0.0539169,0,0,3.47858,0
1777223676672,0.0961372,1.08028,0.115798,0.658197,0.186086,0.0556941,0,0,3.43355,0
1777223676685,0.118117,1.05683,0.129654,0.618129,0.187642,0.0212209,0,0,3.46575,0
1777223676699,0.141512,1.04773,0.141523,0.586888,0.200898,0.00666631,0,0,3.43253,0
1777223676713,0.17006,1.03192,0.146681,0.565575,0.201384,-0.0122183,0,0,3.48275,4
1777223676726,0.175865,1.01851,0.148618,0.534569,0.177706,-0.0530318,0,0,3.42458,4
1777223676740,0.167875,1.01472,0.154127,0.507294,0.160174,-0.0933916,0,0,3.46014,4
1777223676753,0.152059,1.01301,0.153281,0.482885,0.158491,-0.114938,0,0,3.39325,4
1777223676767,0.137909,1.01113,0.150938,0.462213,0.167305,-0.121647,0,0,3.44075,4
1777223676780,0.134471,1.00526,0.150673,0.442175,0.179548,-0.131182,0,0,3.43716,4
1777223676794,0.127464,1.00087,0.149091,0.425197,0.196519,-0.146252,0,0,3.40995,4
1777223676807,0.117166,0.997117,0.144405,0.406862,0.214593,-0.155261,0,0,3.42582,4
1777223676821,0.104043,0.99695,0.140335,0.390884,0.22926,-0.152476,0,0,3.50962,4
1777223676835,0.0910728,0.997545,0.137156,0.37421,0.233874,-0.140803,0,0,3.38768,4
1777223676848,0.0818385,0.996871,0.136648,0.357809,0.226702,-0.122896,0,0,3.48473,4
1777223676862,0.0805448,0.997669,0.134277,0.342461,0.205941,-0.0979986,0,0,3.4449,4
1777223676875,0.0820919,0.995917,0.130674,0.327573,0.17817,-0.0737647,0,0,3.33164,4
1777223676889,0.0818909,0.994203,0.126259,0.312163,0.149327,-0.0548167,0,0,3.45797,4
1777223676902,0.0810408,0.996125,0.12249,0.30006,0.121513,-0.0389376,0,0,3.36697,4
1777223676916,0.0759917,0.999113,0.118574,0.289134,0.0980422,-0.0242291,0,0,3.46347,4
1777223676929,0.0708358,0.999648,0.116557,0.280512,0.0829486,-0.011336,0,0,3.3834,4
1777223676943,0.0659733,1.00291,0.111879,0.275694,0.0745819,0.00018439,0,0,3.44045,4
1777223676956,0.0668025,1.00439,0.109329,0.272175,0.0679658,0.0108534,0,0,3.44079,4
1777223676970,0.0660747,1.0062,0.105314,0.271545,0.0605313,0.0202277,0,0,3.36108,4
1777223676983,0.0669548,1.0093,0.0988677,0.267433,0.0580127,0.0230905,0,0,3.45675,4
1777223676997,0.0708396,1.01429,0.0950727,0.26851,0.0507104,0.0267739,0,0,3.36755,4
1777223677010,0.0697407,1.02099,0.0922925,0.272651,0.0432383,0.0308103,0,0,3.46508,4
1777223677024,0.0711351,1.02839,0.0896213,0.278939,0.0333856,0.0319857,0,0,3.41819,4
1777223677038,0.0742438,1.04035,0.088589,0.290096,0.0200478,0.0330288,0,0,3.46021,4
1777223677051,0.0753987,1.04797,0.087757,0.302026,0.00260979,0.0332874,0,0,3.43329,4
1777223677065,0.0814201,1.06249,0.0868416,0.318623,-0.0187794,0.0375232,0,0,3.40816,4
1777223677078,0.0813076,1.07321,0.0878807,0.33945,-0.0432322,0.0420963,0,0,3.44231,4
1777223677092,0.085714,1.10146,0.0832493,0.378117,-0.0740548,0.0379683,0,0,3.33875,4
1777223677105,0.105658,1.14606,0.0766866,0.444754,-0.11913,0.0204443,0,0,3.4559,4
1777223677119,0.134651,1.24447,0.0837287,0.471748,-0.136679,0.0268715,0,0,3.42134,4
1777223677132,0.127235,1.21084,0.0780359,0.500019,-0.148658,0.0426219,0,0,3.46744,4
1777223677146,0.130801,1.19161,0.0680745,0.54228,-0.158143,0.0310654,0,0,3.37118,0
1777223677159,0.134637,1.18219,0.0603587,0.577295,-0.177308,0.0134959,0,0,3.38193,0
1777223677173,0.129603,1.17514,0.0518902,0.615875,-0.190619,0.00216265,0,0,3.43325,0
1777223677187,0.121758,1.17249,0.0443446,0.662135,-0.19633,-0.00702731,0,0,3.33908,0
1777223677200,0.119064,1.17151,0.037729,0.709159,-0.20081,-0.0232098,0,0,3.42573,0
1777223677214,0.115761,1.17413,0.0317921,0.760037,-0.206616,-0.0434382,0,0,3.37703,0
1777223677227,0.109096,1.17657,0.0256725,0.816557,-0.20858,-0.0645954,0,0,3.40481,0
1777223677241,0.109294,1.18354,0.0197801,0.880986,-0.207811,-0.0853817,0,0,3.42218,0
1777223677254,0.116447,1.19178,0.0151146,0.951305,-0.213456,-0.105553,0,0,3.41568,0
1777223677268,0.138582,1.19955,0.0144741,1.02983,-0.233389,-0.124959,0,0,3.42634,0
1777223677281,0.164299,1.22309,0.0190011,1.11206,-0.278638,-0.141677,0,0,3.3751,0
1777223677295,0.182541,1.26321,0.0433926,1.20883,-0.336842,-0.163166,0,0,3.35603,0
1777223677308,0.226176,1.3096,0.0677549,1.32476,-0.412534,-0.189648,0,0,3.43512,0
1777223677322,0.287931,1.34717,0.11059,1.45038,-0.524313,-0.219694,0,0,3.41919,0
1777223677335,0.350268,1.38716,0.174194,1.58971,-0.671278,-0.258206,0,0,3.42108,0
1777223677349,0.398213,1.39891,0.252548,1.73105,-0.847401,-0.300719,0,0,3.40686,0
1777223677362,0.399272,1.38218,0.352587,1.85734,-1.01422,-0.354263,0,0,3.42969,0
1777223677376,0.317382,1.33797,0.410168,1.96467,-1.11022,-0.434557,0,0,3.39129,0
1777223677389,0.161898,1.37695,0.387678,2.0541,-1.14057,-0.5325,0,0,3.33595,0
1777223677403,-0.0238328,1.45429,0.247316,2.12864,-0.98602,-0.665226,0,0,3.42325,0
1777223677416,0.0314578,1.41041,0.0948876,2.19075,-0.888973,-0.753006,0,0,3.43503,0
1777223677430,0.151752,1.19995,-0.037648,2.24207,-0.925862,-0.686971,0,0,3.39977,0
1777223677444,0.18413,1.06952,-0.124665,2.19805,-0.953536,-0.593226,0,0,3.41723,0
1777223677457,0.119234,0.906904,-0.223669,1.98998,-0.880377,-0.620564,0,0,3.3826,0
1777223677471,0.0729267,0.775623,-0.317283,1.66354,-0.747566,-0.685928,0,0,3.57205,0
1777223677484,0.0516707,0.731903,-0.379484,1.35051,-0.627768,-0.650513,0,0,3.51208,0
1777223677498,0.0250442,0.712926,-0.392952,1.08864,-0.532606,-0.535274,0,0,3.39866,0
1777223677512,-0.00930148,0.678659,-0.378779,0.832624,-0.450886,-0.428314,0,0,3.47564,0
1777223677525,-0.0551749,0.6454,-0.344823,0.590774,-0.361082,-0.35189,0,0,3.43506,0
1777223677539,-0.100826,0.622766,-0.306172,0.377961,-0.248714,-0.269005,0,0,3.46466,0
1777223677552,-0.126371,0.590728,-0.276154,0.192677,-0.13361,-0.164883,0,0,3.38344,0
1777223677566,-0.132625,0.543705,-0.256075,0.0165312,-0.0411635,-0.0520721,0,0,3.42527,0
1777223677579,-0.12718,0.477624,-0.242888,-0.179239,0.0150737,0.0555252,0,0,3.43555,0
1777223677593,-0.124287,0.392294,-0.250549,-0.417394,0.0400169,0.150164,0,0,3.35529,0
1777223677606,-0.131716,0.307367,-0.24964,-0.71452,0.0503067,0.235887,0,0,3.44016,0
1777223677620,-0.12459,0.259883,-0.219993,-1.01233,0.0474184,0.326293,0,0,3.35451,0
1777223677633,-0.0913785,0.245293,-0.179873,-1.2605,0.00597846,0.427407,0,0,3.45116,0
1777223677647,-0.0455571,0.266664,-0.108878,-1.46732,-0.0867101,0.526961,0,0,3.37799,0
1777223677661,-0.0171303,0.327331,-0.0279999,-1.63966,-0.214841,0.607722,0,0,3.41645,0
1777223677674,-0.0126531,0.373055,0.0161616,-1.78328,-0.346312,0.68244,0,0,3.41858,0
1777223677688,-0.0291627,0.414716,0.0453347,-1.90296,-0.439814,0.760838,0,0,3.38434,0
1777223677701,-0.059132,0.492003,0.0600792,-2.0027,-0.4801,0.82141,0,0,3.44197,0
1777223677715,-0.081549,0.574933,0.0698245,-2.08581,-0.481661,0.860043,0,0,3.35575,0
1777223677728,-0.0911031,0.662152,0.0708539,-2.15507,-0.463878,0.898535,0,0,3.42318,0
1777223677742,-0.11246,0.753514,0.065989,-2.21279,-0.418117,0.952939,0,0,3.42805,0
1777223677755,-0.143517,0.857447,0.0614757,-2.26089,-0.322578,1.02309,0,0,3.40066,0
1777223677769,-0.174632,0.970527,0.0509297,-2.30097,-0.184871,1.10022,0,0,3.43194,0
1777223677782,-0.197078,1.08675,0.0395214,-2.33437,-0.0114894,1.16976,0,0,3.44749,0
1777223677796,-0.196041,1.1922,0.0217666,-2.3622,0.178937,1.22925,0,0,3.48164,0
1777223677809,-0.165833,1.28398,-0.00526246,-2.37729,0.343071,1.28042,0,0,3.38584,0
1777223677823,-0.131626,1.37573,-0.0444938,-2.37143,0.464315,1.30544,0,0,3.45566,0
1777223677837,-0.110067,1.47433,-0.0975689,-2.33151,0.56072,1.28857,0,0,3.41914,0
1777223677850,-0.0937613,1.55879,-0.168261,-2.24992,0.643997,1.23877,0,0,3.38594,0
1777223677863,-0.07317,1.62121,-0.247558,-2.12135,0.711982,1.1646,0,0,3.31519,0
1777223677877,0.00753877,1.65101,-0.329692,-1.95209,0.71613,1.08457,0,0,3.50136,0
1777223677891,0.105183,1.64591,-0.433013,-1.7462,0.607195,0.999672,0,0,3.44507,0
1777223677904,0.128095,1.64734,-0.515223,-1.51589,0.457128,0.877602,0,0,3.38258,0
1777223677918,0.0850919,1.62834,-0.580745,-1.26484,0.322849,0.723536,0,0,3.44366,0
1777223677931,0.0288388,1.61069,-0.614984,-1.0067,0.237107,0.569842,0,0,3.40994,0
1777223677945,0.00554268,1.60386,-0.615886,-0.728378,0.184739,0.430263,0,0,3.46147,0
1777223677958,-0.00471047,1.52522,-0.536336,-0.446918,0.153097,0.297751,0,0,3.38008,0
1777223677972,0.276574,1.72602,0.0614208,-0.0781444,0.0186748,0.196599,0,0,3.48703,0
1777223677985,0.129073,1.41348,-0.0253644,0.285172,0.127636,0.0142143,0,0,3.40294,0
1777223677999,0.108397,1.42762,-0.210515,0.468063,0.137407,-0.0277731,0,0,3.47251,0
1777223678013,0.106531,1.38781,-0.17975,0.58873,0.16032,-0.00348777,0,0,3.45803,0
1777223678026,0.163206,1.32261,-0.0985089,0.647555,0.21075,0.0100325,0,0,3.42792,0
1777223678040,0.138289,1.2449,-0.10245,0.682224,0.217648,-0.0427338,0,0,3.46531,0
1777223678053,0.0904043,1.21044,-0.0741832,0.656014,0.249897,-0.0740339,0,0,3.39157,0
1777223678067,0.095124,1.18796,-0.0399252,0.659439,0.311785,-0.0271275,0,0,3.47947,0
1777223678080,0.116112,1.14218,-0.00828344,0.653209,0.351055,0.0305108,0,0,3.39066,0
1777223678094,0.144211,1.10768,0.0134944,0.627674,0.358042,0.0261382,0,0,3.43934,0
1777223678107,0.189711,1.07731,0.0392871,0.588711,0.327656,-0.00561005,0,0,3.44992,4
1777223678121,0.210299,1.06133,0.0557293,0.564664,0.282219,-0.028988,0,0,3.37112,4
1777223678134,0.186608,1.04553,0.0614473,0.540502,0.219725,-0.0471083,0,0,3.45273,4
1777223678148,0.151788,1.0402,0.0736503,0.50365,0.162175,-0.0591552,0,0,3.35277,4
1777223678162,0.114027,1.03507,0.0832158,0.475968,0.120833,-0.0464588,0,0,3.45606,4
1777223678175,0.0932105,1.03431,0.0900731,0.454299,0.0995365,-0.00355029,0,0,3.39129,4
1777223678189,0.0875229,1.0294,0.101625,0.433633,0.0888885,0.0380083,0,0,3.43247,4
1777223678202,0.0894373,1.02524,0.108051,0.415903,0.0900789,0.0579332,0,0,3.44175,4
1777223678216,0.10281,1.01902,0.111442,0.400848,0.0982973,0.0624125,0,0,3.40288,4
1777223678229,0.119149,1.01574,0.112489,0.392501,0.106673,0.0582191,0,0,3.47755,4
1777223678243,0.131888,1.01579,0.111307,0.389437,0.112125,0.0460859,0,0,3.36519,4
1777223678256,0.139474,1.01342,0.1125,0.380244,0.107764,0.032209,0,0,3.46155,4
1777223678270,0.144419,1.01165,0.108517,0.368193,0.09535,0.0195634,0,0,3.37123,4
1777223678283,0.147072,1.00658,0.103611,0.356573,0.0707815,0.0162901,0,0,3.49499,4
1777223678297,0.144839,1.00748,0.101347,0.347437,0.0426487,0.0208398,0,0,3.4001,4
1777223678310,0.141034,1.00987,0.0979971,0.342915,0.021075,0.030967,0,0,3.39892,4
1777223678324,0.135415,1.01256,0.0936412,0.339134,0.00663371,0.0432104,0,0,3.4464,4
1777223678338,0.128123,1.01451,0.0887011,0.33611,0.00173675,0.0504743,0,0,3.40821,4
1777223678351,0.122371,1.01842,0.0860528,0.333794,0.00530225,0.0529525,0,0,3.4854,4
1777223678365,0.129216,1.02477,0.0814049,0.335147,0.00987656,0.0529312,0,0,3.38005,4
1777223678378,0.137636,1.02987,0.0777234,0.337011,0.00395565,0.050318,0,0,3.46231,4
1777223678392,0.140089,1.03112,0.0730792,0.337281,-0.00943899,0.0452141,0,0,3.37812,4
1777223678405,0.139677,1.033,0.0677924,0.339337,-0.0246216,0.043658,0,0,3.43818,4
1777223678419,0.142826,1.03567,0.06391,0.342386,-0.0418029,0.0468397,0,0,3.43762,4
1777223678432,0.147137,1.03872,0.0597028,0.349291,-0.0608918,0.0453817,0,0,3.51379,4
1777223678446,0.149914,1.04761,0.0563717,0.360364,-0.081252,0.0392176,0,0,3.43608,4
1777223678459,0.161655,1.04291,0.0548307,0.371397,-0.0867049,0.0407475,0,0,3.36332,4
1777223678473,0.153994,1.08124,0.0589941,0.403404,-0.111732,0.043829,0,0,3.45403,4
1777223678487,0.144286,1.08388,0.0563998,0.416844,-0.112474,0.0290051,0,0,3.36221,4
1777223678500,0.131739,1.08686,0.050319,0.442981,-0.113614,0.0259266,0,0,3.47157,4
1777223678514,0.12551,1.09693,0.0452646,0.475919,-0.103915,0.0262493,0,0,3.3776,4
1777223678527,0.135545,1.10157,0.0384956,0.510619,-0.10152,0.0263909,0,0,3.38486,4
1777223678541,0.148472,1.10478,0.0307526,0.546216,-0.108696,0.0224759,0,0,3.42219,4
1777223678554,0.152714,1.10722,0.0234187,0.582203,-0.124715,0.0177121,0,0,3.33607,0
1777223678568,0.158199,1.10892,0.0140593,0.621441,-0.141512,0.0155107,0,0,3.42829,0
1777223678581,0.158264,1.10708,0.00297342,0.659649,-0.164657,0.0123658,0,0,3.33429,0
1777223678595,0.163081,1.10783,-0.00697334,0.701171,-0.190471,0.0103557,0,0,3.44649,0
1777223678608,0.170803,1.10807,-0.0154485,0.740199,-0.21725,0.00510561,0,0,3.37053,0
1777223678622,0.191309,1.12191,-0.0225495,0.787215,-0.253993,-0.0018522,0,0,3.37581,0
1777223678635,0.211268,1.13548,-0.0255941,0.840694,-0.296827,-0.00915164,0,0,3.45445,0
1777223678649,0.237991,1.15372,-0.026629,0.903212,-0.351834,-0.0209215,0,0,3.37277,0
1777223678662,0.272324,1.18015,-0.0248894,0.978516,-0.433157,-0.0334779,0,0,3.43138,0
1777223678676,0.284278,1.23211,-0.0059099,1.0687,-0.531231,-0.0528855,0,0,3.3414,0
1777223678689,0.31515,1.28848,0.0299358,1.18411,-0.637031,-0.0793893,0,0,3.43894,0
1777223678703,0.37168,1.35107,0.0859265,1.31831,-0.786228,-0.100076,0,0,3.36388,0
1777223678716,0.424589,1.4009,0.160469,1.46762,-0.982378,-0.122532,0,0,3.48812,0
1777223678730,0.428928,1.43262,0.247999,1.62551,-1.18048,-0.161105,0,0,3.40488,0
1777223678744,0.403967,1.45038,0.340691,1.77148,-1.32798,-0.218618,0,0,3.42119,0
1777223678757,0.324933,1.45106,0.409877,1.89311,-1.38815,-0.296533,0,0,3.42934,0
1777223678771,0.217257,1.49908,0.381539,1.99448,-1.34706,-0.425724,0,0,3.32618,0
1777223678784,0.193293,1.54906,0.217181,2.07895,-1.27821,-0.574973,0,0,3.34673,0
1777223678797,0.217141,1.48836,0.122353,2.14934,-1.26562,-0.662999,0,0,3.42732,0
1777223678811,0.2465,1.32524,0.0392494,2.208,-1.2699,-0.633619,0,0,3.37781,0
1777223678824,0.268645,1.22569,-0.0138904,2.17725,-1.28197,-0.540357,0,0,3.30934,0
1777223678838,0.216451,1.09834,-0.0650786,2.05826,-1.23899,-0.473427,0,0,3.49545,0
1777223678852,0.142309,0.966222,-0.134229,1.85851,-1.14499,-0.454383,0,0,3.42194,0
1777223678865,0.0740766,0.865022,-0.187705,1.59612,-1.05693,-0.420917,0,0,3.32838,0
1777223678878,-0.0186551,0.794562,-0.211903,1.29758,-0.942556,-0.359835,0,0,3.41458,0
1777223678892,-0.109655,0.730106,-0.214382,0.986905,-0.781405,-0.285384,0,0,3.36505,0
1777223678906,-0.1692,0.670829,-0.204341,0.674686,-0.598219,-0.187744,0,0,3.43627,0
1777223678919,-0.189499,0.62123,-0.183237,0.383141,-0.428707,-0.0542523,0,0,3.42658,0
1777223678933,-0.1856,0.584279,-0.156035,0.127592,-0.289139,0.0936574,0,0,3.39656,0
1777223678946,-0.173303,0.55461,-0.13068,-0.0837748,-0.188112,0.213531,0,0,3.43503,0
1777223678960,-0.168193,0.50868,-0.127969,-0.280054,-0.115704,0.280029,0,0,3.36429,0
1777223678973,-0.17196,0.421059,-0.143663,-0.511763,-0.0516233,0.311297,0,0,3.44599,0
1777223678987,-0.160109,0.345982,-0.148282,-0.789917,-0.00742148,0.352836,0,0,3.35564,0
1777223679000,-0.121381,0.295854,-0.128549,-1.07516,-0.0119734,0.420353,0,0,3.47118,0
1777223679014,-0.060539,0.284471,-0.0931752,-1.31286,-0.0874714,0.500307,0,0,3.36281,0
1777223679027,-0.0168512,0.300969,-0.0399749,-1.51095,-0.22171,0.576032,0,0,3.41566,0
1777223679041,-0.0151775,0.329158,0.0116197,-1.67602,-0.364046,0.645777,0,0,3.42468,0
1777223679054,-0.0455421,0.371135,0.0577024,-1.81358,-0.476081,0.70984,0,0,3.39081,0
1777223679068,-0.0944897,0.421188,0.0809833,-1.92821,-0.532141,0.758353,0,0,3.43975,0
1777223679081,-0.120805,0.500839,0.101068,-2.02374,-0.540678,0.794798,0,0,3.34512,0
1777223679095,-0.124929,0.605254,0.119117,-2.10334,-0.537562,0.831237,0,0,3.44203,0
1777223679108,-0.1343,0.701829,0.119892,-2.16968,-0.519355,0.874161,0,0,3.36992,0
1777223679122,-0.148324,0.799318,0.125455,-2.22496,-0.472478,0.924918,0,0,3.46884,0
1777223679135,-0.158602,0.893484,0.129738,-2.27103,-0.391709,0.981248,0,0,3.37173,0
1777223679149,-0.151375,0.987884,0.133264,-2.30942,-0.29664,1.04477,0,0,3.47569,0
1777223679163,-0.129015,1.09201,0.13951,-2.34141,-0.199478,1.11005,0,0,3.45977,0
1777223679176,-0.10529,1.21095,0.145191,-2.36807,-0.103216,1.16834,0,0,3.36595,0
1777223679190,-0.0792868,1.34147,0.13764,-2.39029,-0.0166877,1.21895,0,0,3.44806,0
1777223679203,-0.0674554,1.45421,0.0978511,-2.4088,0.0503303,1.25437,0,0,3.36144,0
1777223679217,-0.0787059,1.55853,0.0380508,-2.42399,0.134257,1.25665,0,0,3.36873,0
1777223679230,-0.0796267,1.64408,-0.0316281,-2.412,0.22281,1.23025,0,0,3.43842,0
1777223679244,-0.0633109,1.7053,-0.107085,-2.34533,0.289403,1.17929,0,0,3.43116,0
1777223679257,-0.0156867,1.74831,-0.187333,-2.2079,0.316716,1.10772,0,0,3.44042,0
1777223679271,0.0303589,1.71694,-0.301531,-2.02666,0.249897,1.03708,0,0,3.36938,0
1777223679284,-0.00745392,1.69527,-0.406151,-1.82149,0.168871,0.947301,0,0,3.44342,0
1777223679298,-0.102857,1.67636,-0.487365,-1.56994,0.148054,0.811911,0,0,3.35325,0
1777223679311,-0.151845,1.65187,-0.556365,-1.27197,0.163175,0.644977,0,0,3.45123,0
1777223679325,-0.153004,1.61033,-0.605495,-0.968142,0.176411,0.477404,0,0,3.35929,0
1777223679339,-0.126794,1.59566,-0.614564,-0.66751,0.17874,0.319809,0,0,3.45447,0
1777223679352,-0.0997589,1.58914,-0.587306,-0.374961,0.1861,0.168657,0,0,3.42642,0
1777223679366,-0.0936587,1.555,-0.505346,-0.127709,0.2439,0.0265784,0,0,3.40762,0
1777223679379,0.0778033,1.50924,-0.257275,0.0416165,0.274662,-0.0254467,0,0,3.45688,0
1777223679393,0.42977,1.60322,0.303709,0.38281,0.0716206,0.0129674,0,0,3.37525,0
1777223679406,0.165985,1.46791,0.149254,0.735891,0.185893,-0.165008,0,0,3.43897,0
1777223679420,0.0990078,1.35443,-0.0662096,0.853319,0.224847,-0.227481,0,0,3.37992,0
1777223679433,0.229542,1.39095,0.0243595,0.836888,0.253772,-0.0953947,0,0,3.51407,0
1777223679447,0.215895,1.286,0.00425946,0.951707,0.298996,-0.0399027,0,0,3.44408,0
1777223679461,0.170523,1.21607,0.00855607,0.885163,0.280664,-0.112425,0,0,3.40645,0
1777223679474,0.133222,1.21443,0.0239969,0.845982,0.307869,-0.124451,0,0,3.46286,0
1777223679488,0.160996,1.16346,0.0590867,0.8323,0.335998,-0.0161393,0,0,3.34279,0
1777223679501,0.16584,1.12889,0.0784855,0.812553,0.325507,0.0353547,0,0,3.49647,0
1777223679515,0.199675,1.09347,0.0976443,0.745385,0.289627,0.00794824,0,0,3.38416,0
1777223679528,0.213706,1.08196,0.108423,0.695798,0.255745,-0.0161755,0,0,3.49986,0
1777223679542,0.203593,1.0664,0.111219,0.656574,0.235628,-0.0150063,0,0,3.37495,0
1777223679555,0.203789,1.05443,0.123877,0.616713,0.21684,-0.0232304,0,0,3.49377,0
1777223679569,0.191251,1.03584,0.123767,0.575632,0.179199,-0.0354019,0,0,3.42868,0
1777223679583,0.16695,1.03494,0.125024,0.536258,0.153416,-0.0306848,0,0,3.38781,0
1777223679596,0.152671,1.0313,0.128559,0.504477,0.135162,-0.00674116,0,0,3.45379,0
1777223679610,0.135674,1.03007,0.132176,0.47826,0.128246,0.0112653,0,0,3.35932,0
1777223679623,0.132787,1.02914,0.135284,0.456095,0.129569,0.0174921,0,0,3.46121,0
1777223679637,0.132662,1.02684,0.1375,0.437255,0.124335,0.0243732,0,0,3.3659,4
1777223679650,0.125765,1.02675,0.137461,0.422012,0.12603,0.0340896,0,0,3.47944,4
1777223679664,0.128785,1.02403,0.133664,0.41085,0.124465,0.0483189,0,0,3.39534,4
1777223679677,0.135846,1.01565,0.1276,0.399411,0.110248,0.0594643,0,0,3.41444,4
1777223679691,0.153205,1.00738,0.121434,0.377639,0.0778528,0.0601388,0,0,3.45242,4
1777223679704,0.162164,1.00711,0.117078,0.35676,0.0377654,0.052762,0,0,3.34682,4
1777223679718,0.165535,1.00949,0.117061,0.343076,-0.000119199,0.053892,0,0,3.44958,4
1777223679731,0.164151,1.01113,0.114954,0.335757,-0.034107,0.057709,0,0,3.36775,4
1777223679745,0.156353,1.0096,0.108428,0.329327,-0.0607253,0.0558262,0,0,3.45573,4
1777223679758,0.146013,1.00995,0.101121,0.325151,-0.0775637,0.0559747,0,0,3.40934,4
1777223679772,0.146944,1.00992,0.0952919,0.322117,-0.0854252,0.0606024,0,0,3.43875,4
1777223679786,0.155119,1.00514,0.0888475,0.317108,-0.0948391,0.0620796,0,0,3.43918,4
1777223679799,0.158807,1.00877,0.0835418,0.314333,-0.10402,0.0566948,0,0,3.39793,4
1777223679813,0.173591,1.01521,0.0813481,0.312924,-0.115156,0.0510243,0,0,3.44557,4
1777223679826,0.172045,1.01906,0.0768054,0.313861,-0.134946,0.0423803,0,0,3.34477,4
1777223679840,0.245567,1.04361,0.0768184,0.29379,-0.140101,0.0651515,0,0,3.45447,4
1777223679853,0.211599,1.01318,0.0655054,0.31723,-0.167387,0.050756,0,0,3.41294,4
1777223679867,0.227598,1.03535,0.0707715,0.314994,-0.184566,0.0227929,0,0,3.46669,4
1777223679880,0.226078,1.02899,0.0634081,0.321121,-0.216616,0.0184852,0,0,3.36808,4
1777223679894,0.204233,1.03054,0.0560499,0.334866,-0.226392,0.0077071,0,0,3.43931,4
1777223679908,0.215379,1.03018,0.0493395,0.347134,-0.248571,-0.000702097,0,0,3.4511,4
1777223679921,0.208713,1.03518,0.0414866,0.36555,-0.272766,-0.0118319,0,0,3.31988,4
1777223679935,0.202411,1.03872,0.0348616,0.381037,-0.286821,-0.0280533,0,0,3.43405,4
1777223679948,0.199739,1.0377,0.0245734,0.400139,-0.301588,-0.0388485,0,0,3.34725,4
1777223679962,0.185129,1.0411,0.0176355,0.422152,-0.308066,-0.0530735,0,0,3.47208,0
1777223679975,0.181774,1.04344,0.00958506,0.445088,-0.30746,-0.0727902,0,0,3.36062,0
1777223679989,0.184137,1.05644,0.00362495,0.475525,-0.306483,-0.091969,0,0,3.37877,0
1777223680002,0.190467,1.07737,5.88127e-05,0.513536,-0.299576,-0.115254,0,0,3.43151,0
1777223680016,0.189787,1.09504,-0.00184706,0.55745,-0.299736,-0.14018,0,0,3.37969,0
1777223680029,0.168188,1.1096,0.0012596,0.605967,-0.297095,-0.168191,0,0,3.4341,0
1777223680043,0.140298,1.12897,0.00225179,0.661843,-0.284399,-0.190884,0,0,3.35927,0
1777223680056,0.123387,1.1483,0.0034993,0.725759,-0.271007,-0.202645,0,0,3.45044,0
1777223680070,0.119739,1.16881,0.00525801,0.796186,-0.265546,-0.207497,0,0,3.35956,0
1777223680083,0.108465,1.20219,0.0187206,0.876682,-0.267879,-0.213983,0,0,3.36503,0
1777223680097,0.123898,1.27135,0.0298301,0.98511,-0.258678,-0.233917,0,0,3.4181,0
1777223680110,0.187132,1.29373,0.0511217,1.08806,-0.287104,-0.244842,0,0,3.40642,0
1777223680124,0.244574,1.33635,0.0870446,1.20917,-0.367383,-0.260752,0,0,3.42734,0
1777223680137,0.295412,1.35676,0.130234,1.33488,-0.463888,-0.295563,0,0,3.35256,0
1777223680151,0.34946,1.37042,0.173136,1.47434,-0.581637,-0.330628,0,0,3.44895,0
1777223680164,0.39571,1.36314,0.224895,1.61818,-0.714761,-0.357419,0,0,3.40175,0
1777223680178,0.422965,1.36223,0.274627,1.76436,-0.832873,-0.393091,0,0,3.45349,0
1777223680192,0.386435,1.38096,0.303585,1.88719,-0.903769,-0.46297,0,0,3.3589,0
1777223680205,0.317819,1.39456,0.199334,1.98954,-0.914833,-0.579104,0,0,3.37936,0
1777223680218,0.248496,1.40614,0.0459894,2.07483,-0.857819,-0.718032,0,0,3.31186,0
1777223680232,0.224823,1.39293,-0.0388267,2.14591,-0.814136,-0.84336,0,0,3.29979,0
1777223680245,0.206361,1.28675,-0.0924555,2.19621,-0.791297,-0.913156,0,0,3.3217,0
1777223680259,0.181548,1.2164,-0.124154,2.15743,-0.758994,-0.894106,0,0,3.35242,0
1777223680272,0.116349,1.15096,-0.15441,2.07532,-0.680994,-0.81477,0,0,3.35132,0
1777223680286,0.060127,1.07335,-0.180937,1.9632,-0.568335,-0.732652,0,0,3.42431,0
1777223680299,0.0173299,0.995125,-0.202263,1.80525,-0.470571,-0.679029,0,0,3.40414,0
1777223680313,-0.047463,0.94381,-0.209583,1.60871,-0.346787,-0.673695,0,0,3.3322,0
1777223680326,-0.119804,0.888577,-0.209793,1.41171,-0.153289,-0.698804,0,0,3.44982,0
1777223680340,-0.151856,0.827077,-0.205537,1.2088,0.0695873,-0.692146,0,0,3.36936,0
1777223680353,-0.130848,0.762905,-0.199139,1.00199,0.2543,-0.629498,0,0,3.31542,0
1777223680367,-0.0893479,0.69744,-0.190559,0.797775,0.369054,-0.543971,0,0,3.43412,0
1777223680380,-0.0525447,0.627766,-0.18369,0.589965,0.422227,-0.469264,0,0,3.37675,0
1777223680394,-0.028441,0.558072,-0.182004,0.371078,0.439731,-0.411218,0,0,3.43477,0
1777223680407,-0.0134975,0.483567,-0.186171,0.134422,0.439191,-0.356855,0,0,3.40881,0
1777223680421,-0.000169346,0.402762,-0.194453,-0.135081,0.427672,-0.30056,0,0,3.37451,0
1777223680434,0.0123999,0.320863,-0.204797,-0.445099,0.404052,-0.248673,0,0,3.33942,0
1777223680448,0.021865,0.255482,-0.21085,-0.787812,0.36213,-0.203385,0,0,3.43418,1
1777223680461,0.038351,0.194309,-0.215687,-1.07341,0.286419,-0.163266,0,0,3.40929,1
1777223680475,0.0650506,0.160275,-0.196627,-1.3114,0.161316,-0.105266,0,0,3.30782,1
1777223680488,0.0974973,0.207616,-0.128475,-1.50973,-0.00814014,-0.0128873,0,0,3.46673,1
1777223680502,0.117175,0.304826,-0.0338837,-1.675,-0.192649,0.101691,0,0,3.37268,1
1777223680515,0.110614,0.384335,0.0275249,-1.81273,-0.357831,0.216447,0,0,3.40431,1
1777223680529,0.0914371,0.452017,0.0591578,-1.92751,-0.480966,0.319647,0,0,3.41744,1
1777223680542,0.0525891,0.538608,0.0666116,-2.02315,-0.554329,0.40893,0,0,3.34244,1
1777223680556,0.00641001,0.622024,0.0701556,-2.10285,-0.570821,0.493218,0,0,3.44401,1
1777223680569,-0.0146062,0.740968,0.0860368,-2.16927,-0.545074,0.591524,0,0,3.40299,1
1777223680583,-0.036231,0.855273,0.0810371,-2.22462,-0.476747,0.701143,0,0,3.36934,1
1777223680596,-0.0533333,0.976811,0.0674309,-2.27075,-0.370343,0.807631,0,0,3.44047,1
1777223680610,-0.0567289,1.10759,0.0387276,-2.30919,-0.245158,0.90169,0,0,3.41121,1
1777223680624,-0.0427227,1.2424,-0.0076196,-2.34122,-0.121067,0.996956,0,0,3.43647,1
1777223680637,-0.0159884,1.37781,-0.0617575,-2.36791,-0.0241462,1.09152,0,0,3.34353,1
1777223680651,-0.0204445,1.50172,-0.122338,-2.39015,0.0469011,1.14739,0,0,3.44997,0
1777223680664,-0.060442,1.60103,-0.179246,-2.36288,0.106056,1.15429,0,0,3.42264,0
1777223680678,-0.11637,1.67677,-0.2311,-2.28252,0.179767,1.11864,0,0,3.47623,0
1777223680691,-0.131277,1.71753,-0.284068,-2.15756,0.256918,1.04979,0,0,3.38845,0
1777223680705,-0.0673933,1.73265,-0.338034,-1.99848,0.281935,0.964915,0,0,3.45697,0
1777223680718,0.0280287,1.72274,-0.395248,-1.80742,0.212821,0.874122,0,0,3.43571,0
1777223680732,0.0720134,1.69558,-0.444408,-1.6014,0.0795267,0.769669,0,0,3.34916,0
1777223680745,0.0374945,1.67016,-0.466887,-1.38408,-0.0251654,0.642039,0,0,3.44608,0
1777223680759,-0.0124221,1.63548,-0.45925,-1.15633,-0.0609712,0.514282,0,0,3.33601,0
1777223680772,-0.0534446,1.59839,-0.429843,-0.918287,-0.0164836,0.402067,0,0,3.44419,0
1777223680786,-0.0405146,1.57304,-0.382852,-0.678954,0.073999,0.322092,0,0,3.36627,0
1777223680799,-0.0239801,1.51931,-0.355404,-0.426177,0.182773,0.267672,0,0,3.47612,0
1777223680813,0.0706434,1.78742,0.020672,0.0561121,0.160758,0.190045,0,0,3.41755,0
1777223680827,-0.0146547,1.62398,-0.0397999,0.370959,0.348329,0.0652789,0,0,3.38894,0
1777223680840,0.0194801,1.51898,-0.0897938,0.533432,0.409409,0.0643355,0,0,3.46771,0
1777223680854,0.075787,1.46163,-0.0531248,0.62585,0.409431,0.08916,0,0,3.35303,0
1777223680867,0.109328,1.35727,-0.00790459,0.661135,0.342172,0.0470735,0,0,3.41842,0
1777223680881,0.0872004,1.29298,0.0358286,0.679063,0.223095,-0.0423624,0,0,3.43455,0
1777223680894,0.0409001,1.25205,0.07663,0.700555,0.135544,-0.0643351,0,0,3.3934,0
1777223680908,0.0097411,1.20427,0.102275,0.753083,0.0919608,-0.000470081,0,0,3.45731,0
1777223680921,0.0311062,1.17391,0.0993175,0.776895,0.0916213,0.0835905,0,0,3.43434,0
1777223680935,0.0847229,1.12754,0.0937903,0.749308,0.0605623,0.126376,0,0,3.45586,0
1777223680948,0.111907,1.09294,0.10141,0.697248,0.0177968,0.101573,0,0,3.32575,0
1777223680962,0.110801,1.08314,0.113462,0.650467,0.0302887,0.0733974,0,0,3.47077,0
1777223680976,0.132779,1.06829,0.118875,0.625084,0.0705205,0.0756429,0,0,3.42925,0
1777223680989,0.149384,1.0471,0.120293,0.596387,0.102635,0.0586973,0,0,3.47145,0
1777223681003,0.145238,1.03378,0.126318,0.556124,0.128646,0.0110391,0,0,3.37568,0
1777223681016,0.133853,1.02569,0.127721,0.519607,0.143426,-0.0182053,0,0,3.43379,0
1777223681030,0.111228,1.02421,0.1291,0.49008,0.153581,-0.0133645,0,0,3.44295,0
1777223681043,0.0971499,1.01819,0.131423,0.460028,0.153454,0.00312502,0,0,3.36723,0
1777223681057,0.0924231,1.01289,0.133311,0.429018,0.142204,0.0180876,0,0,3.45731,0
1777223681070,0.0965229,1.00733,0.131669,0.398431,0.122715,0.0355311,0,0,3.41232,0
1777223681084,0.106452,1.00293,0.130919,0.370131,0.0963464,0.0509069,0,0,3.44918,0
1777223681098,0.118677,0.998326,0.129914,0.345109,0.0682658,0.0548906,0,0,3.36471,4
1777223681111,0.127778,0.994782,0.127722,0.320199,0.040336,0.051162,0,0,3.49092,4
1777223681125,0.130629,0.99296,0.126237,0.298575,0.0169721,0.0461338,0,0,3.38773,4
1777223681138,0.129115,0.990606,0.123243,0.277922,-0.00413904,0.0445517,0,0,3.47123,4
1777223681152,0.128541,0.990171,0.120933,0.259566,-0.0216044,0.0456506,0,0,3.45081,4
1777223681165,0.124664,0.993011,0.11867,0.2446,-0.0384235,0.0494671,0,0,3.49851,4
1777223681179,0.124901,0.994093,0.117606,0.231811,-0.052783,0.0561717,0,0,3.44564,4
1777223681192,0.131606,0.992297,0.113755,0.2217,-0.0702326,0.0634382,0,0,3.37243,4
1777223681206,0.138071,0.992765,0.112245,0.21134,-0.0909572,0.0667965,0,0,3.46203,4
1777223681220,0.14526,0.99404,0.112027,0.203916,-0.113329,0.0689589,0,0,3.40671,4
1777223681233,0.144713,0.99341,0.1083,0.197093,-0.131299,0.0686744,0,0,3.42886,4
1777223681247,0.150995,0.991866,0.104098,0.192526,-0.143716,0.0676231,0,0,3.42868,4
1777223681260,0.15706,0.990943,0.101577,0.191482,-0.15545,0.0637444,0,0,3.35714,4
1777223681274,0.159495,0.991139,0.0978749,0.190802,-0.162086,0.0518481,0,0,3.43695,4
1777223681287,0.160772,0.994977,0.0967201,0.194002,-0.164258,0.0382067,0,0,3.3654,4
1777223681301,0.158857,0.997827,0.0945593,0.200192,-0.161665,0.027068,0,0,3.46982,4
1777223681314,0.155458,1.00149,0.0909781,0.208214,-0.158054,0.0176075,0,0,3.40558,4
1777223681328,0.153278,1.00413,0.0875793,0.216476,-0.154447,0.00960932,0,0,3.4544,4
1777223681342,0.158753,1.00654,0.0835667,0.225753,-0.154393,0.00369479,0,0,3.46932,4
1777223681355,0.159645,1.01073,0.0777666,0.234336,-0.16202,-0.00413475,0,0,3.42364,0
1777223681369,0.161997,1.01321,0.0736637,0.241374,-0.171085,-0.0125678,0,0,3.50358,0
1777223681382,0.162848,1.0133,0.068525,0.249288,-0.183881,-0.020066,0,0,3.39688,0
1777223681396,0.161689,1.01486,0.0630019,0.257498,-0.19284,-0.0306657,0,0,3.47814,0
1777223681409,0.15782,1.02143,0.0586248,0.267126,-0.197049,-0.0419033,0,0,3.37964,0
1777223681423,0.151597,1.02765,0.0514464,0.280315,-0.194055,-0.052095,0,0,3.40697,0
1777223681436,0.147223,1.06563,0.0528065,0.304665,-0.179358,-0.053069,0,0,3.33286,0
1777223681450,0.178944,1.09858,0.0445933,0.321699,-0.177239,-0.015242,0,0,3.53192,0
1777223681463,0.169229,1.09196,0.0314784,0.346619,-0.188462,-0.0426253,0,0,3.38219,0
1777223681477,0.182157,1.09815,0.0296789,0.362157,-0.205843,-0.101882,0,0,3.48194,0
1777223681491,0.168191,1.12868,0.0407921,0.40363,-0.232808,-0.132586,0,0,3.42869,0
1777223681504,0.140687,1.1178,0.0370896,0.443394,-0.235636,-0.154916,0,0,3.4926,0
1777223681518,0.11951,1.13895,0.0425936,0.485716,-0.225129,-0.170395,0,0,3.4384,0
1777223681531,0.0975526,1.15439,0.0469218,0.535603,-0.209121,-0.186016,0,0,3.4649,0
1777223681545,0.0832178,1.18044,0.0511944,0.597277,-0.188644,-0.202736,0,0,3.46007,0
1777223681559,0.0887558,1.20241,0.054325,0.666103,-0.173094,-0.215003,0,0,3.48262,0
1777223681572,0.103762,1.2202,0.0550483,0.742121,-0.175085,-0.225327,0,0,3.51799,0
1777223681586,0.103666,1.24903,0.0703144,0.827671,-0.193156,-0.240342,0,0,3.48314,0
1777223681599,0.11127,1.2893,0.0872042,0.932041,-0.210938,-0.259178,0,0,3.42358,0
1777223681613,0.136661,1.32386,0.104313,1.04634,-0.244624,-0.270498,0,0,3.43936,0
1777223681626,0.174824,1.36901,0.122996,1.18235,-0.304324,-0.287476,0,0,3.37064,0
1777223681640,0.227036,1.37681,0.156268,1.32077,-0.39354,-0.312821,0,0,3.45397,0
1777223681653,0.271853,1.38426,0.197156,1.45981,-0.509197,-0.347223,0,0,3.35951,0
1777223681667,0.300952,1.39337,0.246168,1.60503,-0.629381,-0.387254,0,0,3.48688,0
1777223681681,0.317337,1.39278,0.298726,1.75441,-0.726876,-0.427024,0,0,3.42251,0
1777223681694,0.331177,1.38462,0.350664,1.87889,-0.786303,-0.474111,0,0,3.32995,0
1777223681708,0.317455,1.37235,0.384981,1.98262,-0.801817,-0.545512,0,0,3.42975,0
1777223681721,0.2855,1.40287,0.313435,2.06907,-0.786285,-0.650955,0,0,3.36149,0
1777223681735,0.222559,1.44022,0.174299,2.14111,-0.712032,-0.782513,0,0,3.44521,0
1777223681748,0.206422,1.42973,0.0771434,2.20114,-0.627991,-0.91287,0,0,3.3654,0
1777223681762,0.223392,1.30506,-0.0275098,2.25117,-0.590985,-0.980916,0,0,3.42323,0
1777223681775,0.223166,1.20013,-0.0906084,2.22525,-0.576737,-0.96355,0,0,3.45331,0
1777223681789,0.15541,1.11543,-0.16936,2.13173,-0.489227,-0.935261,0,0,3.35758,0
1777223681802,0.0867062,1.03848,-0.234967,1.98099,-0.345501,-0.953672,0,0,3.4459,0
1777223681816,0.0345836,0.968746,-0.295307,1.80233,-0.195424,-0.991151,0,0,3.34103,0
1777223681829,0.00860012,0.89398,-0.331128,1.58786,-0.0651305,-0.990679,0,0,3.45047,0
1777223681843,0.00643735,0.819479,-0.343215,1.36497,0.0246813,-0.933073,0,0,3.37432,0
1777223681857,0.00603948,0.749552,-0.341484,1.13454,0.0953642,-0.837955,0,0,3.55803,0
1777223681870,0.00958678,0.687874,-0.329975,0.908932,0.160641,-0.741515,0,0,3.39345,0
1777223681884,0.0253422,0.621841,-0.319083,0.691362,0.200368,-0.658018,0,0,3.4096,0
1777223681897,0.043815,0.546171,-0.30702,0.47186,0.20261,-0.572356,0,0,3.42595,0
1777223681911,0.0527437,0.47687,-0.289565,0.248739,0.180152,-0.472599,0,0,3.35383,0
1777223681924,0.0559918,0.41017,-0.272705,0.0201829,0.146323,-0.361021,0,0,3.45131,0
1777223681938,0.0528601,0.34634,-0.25929,-0.222519,0.110676,-0.249986,0,0,3.35003,0
1777223681951,0.0459589,0.29134,-0.246999,-0.483957,0.0779297,-0.14481,0,0,3.45716,0
1777223681965,0.0363316,0.242911,-0.240413,-0.764824,0.0533765,-0.0431559,0,0,3.36953,0
1777223681978,0.0290025,0.188478,-0.240775,-1.05425,0.0373939,0.0581589,0,0,3.53081,0
1777223681992,0.0206767,0.128253,-0.243921,-1.29544,0.0245967,0.160832,0,0,3.43934,0
1777223682006,0.0260914,0.0979046,-0.230149,-1.49643,0.0031563,0.267716,0,0,3.34693,0
1777223682019,0.0549213,0.12747,-0.204904,-1.66392,-0.039558,0.385145,0,0,3.44101,0
1777223682033,0.0891853,0.203584,-0.148498,-1.80349,-0.101413,0.511514,0,0,3.36183,0
1777223682046,0.109058,0.318569,-0.0892945,-1.91981,-0.168925,0.622012,0,0,3.45449,0
1777223682060,0.114858,0.416696,-0.0607343,-2.01673,-0.228837,0.709718,0,0,3.36577,0
1777223682073,0.0884948,0.480177,-0.0652136,-2.09751,-0.249095,0.778035,0,0,3.40318,0
1777223682087,0.0383564,0.582232,-0.0689418,-2.16482,-0.194309,0.836187,0,0,3.4309,0
1777223682100,0.0139669,0.678302,-0.0705058,-2.22091,-0.0936801,0.911148,0,0,3.35405,0
1777223682114,0.030625,0.782173,-0.0505983,-2.26766,0.00698413,1.0097,0,0,3.44971,0
1777223682127,0.0342463,0.89285,-0.0286493,-2.30661,0.118288,1.09958,0,0,3.36393,0
1777223682141,0.0316638,1.03878,-0.00495989,-2.33907,0.255113,1.15708,0,0,3.45638,0
1777223682154,0.0729818,1.18439,0.00354354,-2.36612,0.368065,1.20048,0,0,3.37879,0
1777223682168,0.136909,1.31516,-0.00586709,-2.38866,0.425054,1.23078,0,0,3.56081,0
1777223682182,0.202835,1.44086,-0.0180912,-2.40745,0.431616,1.2203,0,0,3.45032,0
1777223682195,0.280664,1.55231,-0.0414766,-2.4231,0.377238,1.1702,0,0,3.38975,0
1777223682209,0.356923,1.62826,-0.0868421,-2.39775,0.248818,1.11455,0,0,3.45556,0
1777223682222,0.39463,1.67534,-0.135109,-2.31444,0.0590909,1.06218,0,0,3.34479,0
1777223682236,0.361738,1.70069,-0.18879,-2.17512,-0.13731,0.999779,0,0,3.35058,0
1777223682249,0.231839,1.70892,-0.23633,-1.98969,-0.267084,0.92273,0,0,3.42762,0
1777223682263,0.0572249,1.71717,-0.283333,-1.75685,-0.273893,0.834997,0,0,3.38025,0
1777223682276,-0.0759134,1.70203,-0.33627,-1.48498,-0.182952,0.755284,0,0,3.43682,0
1777223682290,-0.148623,1.68564,-0.361963,-1.18583,-0.0518871,0.676884,0,0,3.59894,0
1777223682304,-0.188491,1.64625,-0.352228,-0.883551,0.103389,0.582925,0,0,3.47505,0
1777223682317,-0.192865,1.58235,-0.31199,-0.611954,0.250013,0.49628,0,0,3.37658,0
1777223682331,-0.175718,1.51552,-0.239479,-0.376806,0.367975,0.427816,0,0,3.47464,0
1777223682344,-0.142944,1.43176,-0.158474,-0.176384,0.444572,0.369961,0,0,3.39284,0
1777223682358,-0.105769,1.433,-0.0607011,0.0155703,0.469217,0.300477,0,0,3.61144,0
1777223682371,0.182141,1.58786,0.251383,0.250393,0.389488,0.22812,0,0,3.38882,0
1777223682385,0.172488,1.37569,0.218868,0.621612,0.14568,0.0352397,0,0,3.42894,0
1777223682398,0.116943,1.48592,0.146499,0.779371,-0.0104831,-0.256715,0,0,3.32179,0
1777223682412,0.104396,1.35471,0.140899,0.765698,-0.143469,-0.393547,0,0,3.44186,0
1777223682425,0.0646129,1.30424,0.182589,0.852916,-0.209685,-0.377765,0,0,3.41266,0
1777223682439,-0.00637848,1.25733,0.20225,0.922952,-0.207956,-0.336,0,0,3.32669,0
1777223682452,-0.0209159,1.21209,0.223502,0.980246,-0.186515,-0.288181,0,0,3.33653,0
1777223682466,0.0307409,1.18781,0.177128,1.00953,-0.127529,-0.22566,0,0,3.31821,0
1777223682479,0.0393013,1.12684,0.137315,0.949227,-0.0964521,-0.17679,0,0,3.32647,0
1777223682493,0.0248892,1.12952,0.146598,0.88718,-0.0138627,-0.15104,0,0,3.37895,0
1777223682506,0.0494378,1.1029,0.138734,0.826633,0.0762721,-0.0988185,0,0,3.53973,0
1777223682520,0.097679,1.07515,0.132613,0.769484,0.120965,-0.0642953,0,0,3.41247,0
1777223682533,0.116142,1.05508,0.126816,0.707852,0.139544,-0.0759713,0,0,3.32532,0
1777223682547,0.123712,1.04232,0.125773,0.64274,0.142699,-0.0840728,0,0,3.32755,4
1777223682560,0.118605,1.03272,0.120716,0.581112,0.122555,-0.0611166,0,0,3.31364,4
1777223682573,0.124306,1.02401,0.120863,0.518828,0.080564,-0.0268465,0,0,3.31868,4
1777223682587,0.12607,1.01917,0.125333,0.459939,0.0323021,-0.00299553,0,0,3.43675,4
1777223682600,0.125929,1.02102,0.129793,0.411692,-0.00252182,0.0141195,0,0,3.40201,4
1777223682614,0.132273,1.01777,0.130094,0.374324,-0.0287682,0.0317917,0,0,3.44771,4
1777223682628,0.138457,1.01414,0.131128,0.341466,-0.0448641,0.0400936,0,0,3.42286,4
1777223682641,0.148651,1.00636,0.129323,0.312417,-0.052972,0.0409559,0,0,3.43047,4
1777223682654,0.157277,0.99947,0.124893,0.28718,-0.0644868,0.0424887,0,0,3.32899,4
1777223682668,0.164734,0.994971,0.122366,0.265576,-0.0759655,0.0426718,0,0,3.32682,4
1777223682681,0.172882,0.990712,0.120493,0.244952,-0.0929356,0.0411069,0,0,3.31042,4
1777223682695,0.184717,0.989201,0.120829,0.226862,-0.115767,0.0390777,0,0,3.45386,4
1777223682708,0.195475,0.987343,0.119835,0.21269,-0.148012,0.0353637,0,0,3.35579,4
1777223682722,0.20311,0.984249,0.11807,0.198743,-0.18216,0.0258056,0,0,3.42286,4
1777223682735,0.206651,0.981821,0.114447,0.188558,-0.214815,0.0155505,0,0,3.33303,4
1777223682749,0.203549,0.980774,0.110369,0.180007,-0.239331,0.00702999,0,0,3.42131,4
1777223682762,0.201305,0.976198,0.105316,0.172385,-0.25471,-0.00210605,0,0,3.36879,4
1777223682776,0.201481,0.974283,0.101475,0.164952,-0.263708,-0.0136634,0,0,3.31234,4
1777223682789,0.202534,0.974809,0.0985269,0.161964,-0.26692,-0.0283964,0,0,3.38616,4
1777223682803,0.202193,0.971437,0.0939725,0.157693,-0.267433,-0.0449995,0,0,3.32614,4
1777223682816,0.194305,0.968863,0.0886349,0.152912,-0.264909,-0.063034,0,0,3.32847,4
1777223682829,0.191318,0.971872,0.0881186,0.148953,-0.255173,-0.0775156,0,0,3.29827,4
1777223682843,0.190268,0.974292,0.0849357,0.146927,-0.247173,-0.0862375,0,0,3.29642,4
1777223682856,0.183822,0.979417,0.0827514,0.146014,-0.235927,-0.0965974,0,0,3.30847,4
1777223682870,0.185272,0.985893,0.0831391,0.150419,-0.220969,-0.10621,0,0,3.29831,4
1777223682883,0.186274,0.993414,0.0812558,0.15984,-0.209281,-0.116155,0,0,3.29853,0
1777223682896,0.190231,0.999526,0.080425,0.172271,-0.202467,-0.128424,0,0,3.36756,0
1777223682910,0.186622,1.00654,0.0778378,0.188025,-0.198608,-0.136957,0,0,3.35236,0
1777223682923,0.178952,1.02659,0.0761062,0.211293,-0.191855,-0.135021,0,0,3.29579,0
1777223682937,0.169784,1.0412,0.0770156,0.232439,-0.190846,-0.127963,0,0,3.29953,0
1777223682950,0.162692,1.05208,0.0733656,0.254653,-0.191532,-0.123086,0,0,3.32029,0
1777223682964,0.175838,1.06014,0.0653386,0.278992,-0.187193,-0.100676,0,0,3.30934,0
1777223682977,0.174254,1.06795,0.0608466,0.310611,-0.208462,-0.0899654,0,0,3.42692,0
1777223682991,0.161104,1.06488,0.0539224,0.325967,-0.214253,-0.114017,0,0,3.40049,0
1777223683004,0.148336,1.06547,0.0454334,0.347835,-0.215605,-0.120956,0,0,3.4459,0
1777223683018,0.133486,1.07219,0.0444652,0.375829,-0.205498,-0.135249,0,0,3.34816,0
1777223683031,0.131403,1.07117,0.04163,0.408522,-0.198958,-0.158942,0,0,3.44782,0
1777223683045,0.11621,1.07585,0.0374632,0.440384,-0.184743,-0.185149,0,0,3.3484,0
1777223683058,0.103599,1.09355,0.0368053,0.479773,-0.154067,-0.204214,0,0,3.43686,0
1777223683072,0.101143,1.11292,0.0366846,0.522788,-0.124636,-0.215738,0,0,3.37412,0
1777223683085,0.0937025,1.13442,0.0382848,0.5724,-0.0979216,-0.235393,0,0,3.44025,0
1777223683099,0.0889152,1.15753,0.0407358,0.629621,-0.0738405,-0.258336,0,0,3.42012,0
1777223683112,0.09026,1.1831,0.0457592,0.696579,-0.0566355,-0.275687,0,0,3.43605,0
1777223683126,0.0768862,1.22271,0.059933,0.777849,-0.0437612,-0.293327,0,0,3.38118,0
1777223683139,0.080524,1.26861,0.0765179,0.876846,-0.0230961,-0.314668,0,0,3.33869,0
1777223683153,0.0983204,1.2972,0.0949709,0.980985,-0.0258626,-0.325684,0,0,3.41536,0
1777223683166,0.122394,1.32569,0.111314,1.09479,-0.0524173,-0.337269,0,0,3.40688,0
1777223683180,0.162308,1.33779,0.135123,1.20997,-0.115539,-0.348055,0,0,3.40423,0
1777223683194,0.203783,1.34253,0.161907,1.3226,-0.211651,-0.359155,0,0,3.46427,0
1777223683207,0.237895,1.33307,0.193204,1.4354,-0.318704,-0.37651,0,0,3.40586,0
1777223683221,0.272305,1.33075,0.222597,1.5541,-0.419849,-0.395628,0,0,3.40725,0
1777223683234,0.311607,1.31773,0.261693,1.67587,-0.5092,-0.4181,0,0,3.40316,0
1777223683248,0.323306,1.31974,0.302426,1.79358,-0.559486,-0.473391,0,0,3.34486,0
1777223683261,0.321721,1.3535,0.250703,1.91154,-0.60265,-0.576096,0,0,3.41742,0
1777223683275,0.294447,1.40913,0.0935487,2.00983,-0.598939,-0.711263,0,0,3.34197,0
1777223683288,0.340483,1.45092,-0.0581778,2.09174,-0.610108,-0.809169,0,0,3.44827,0
1777223683302,0.413299,1.3999,-0.101342,2.16,-0.727253,-0.818812,0,0,3.39514,0
1777223683315,0.423212,1.34942,-0.124696,2.18384,-0.873932,-0.78144,0,0,3.5619,0
1777223683329,0.37539,1.28723,-0.154462,2.1472,-0.960351,-0.770042,0,0,3.39484,0
1777223683342,0.285001,1.2332,-0.178826,2.04383,-0.975979,-0.817605,0,0,3.3739,0
1777223683356,0.204593,1.17699,-0.192355,1.92766,-0.931039,-0.890383,0,0,3.4168,0
1777223683369,0.138544,1.07353,-0.20349,1.78949,-0.846502,-0.921744,0,0,3.33951,0
1777223683383,0.0622181,0.965199,-0.199421,1.59957,-0.724375,-0.904278,0,0,3.42436,1
1777223683397,-0.028951,0.866161,-0.186268,1.3671,-0.533964,-0.859621,0,0,3.40966,1
1777223683410,-0.102283,0.764795,-0.170152,1.11303,-0.283774,-0.795435,0,0,3.4566,1
1777223683424,-0.138317,0.620004,-0.169703,0.802015,-0.0386029,-0.699593,0,0,3.36868,1
1777223683437,-0.122471,0.45929,-0.181925,0.402366,0.13264,-0.551671,0,0,3.44964,1
1777223683451,-0.0820107,0.358585,-0.146531,-0.0222264,0.217963,-0.338771,0,0,3.44056,1
1777223683464,-0.0391288,0.323815,-0.0657745,-0.406843,0.284473,-0.0956937,0,0,3.32945,1
1777223683478,0.00389323,0.304887,0.0029893,-0.717051,0.336858,0.103169,0,0,3.44945,1
1777223683491,0.0444954,0.250202,0.053362,-1.00537,0.35317,0.220287,0,0,3.42179,1
1777223683505,0.0953182,0.211119,0.0824589,-1.2547,0.320097,0.282364,0,0,3.46651,1
1777223683518,0.136098,0.190505,0.103475,-1.46248,0.233529,0.338166,0,0,3.37477,1
1777223683532,0.155611,0.195224,0.132981,-1.63563,0.124646,0.414438,0,0,3.40425,1
1777223683545,0.167503,0.237767,0.163844,-1.77992,0.0148891,0.497846,0,0,3.41551,1
1777223683559,0.185483,0.304783,0.189095,-1.90016,-0.109755,0.571157,0,0,3.35555,0
1777223683572,0.189674,0.379087,0.195126,-2.00036,-0.248231,0.633012,0,0,3.43147,0
1777223683586,0.165967,0.482945,0.188202,-2.08387,-0.378132,0.691391,0,0,3.34203,0
1777223683599,0.0951637,0.590586,0.168259,-2.15345,-0.445657,0.753398,0,0,3.44966,0
1777223683613,0.00917606,0.716279,0.146151,-2.21144,-0.429803,0.831076,0,0,3.38477,0
1777223683627,-0.0685369,0.850888,0.122614,-2.25976,-0.350396,0.93811,0,0,3.5451,0
1777223683640,-0.135495,0.987577,0.0972874,-2.30003,-0.213447,1.0678,0,0,3.41864,0
1777223683654,-0.170015,1.13453,0.0820224,-2.33359,-0.0255568,1.19188,0,0,3.38271,0
1777223683667,-0.141241,1.25209,0.0565759,-2.36155,0.152609,1.3005,0,0,3.44199,0
1777223683681,-0.0946403,1.35589,0.029496,-2.38486,0.305571,1.37974,0,0,3.35253,0
1777223683694,-0.0480029,1.45836,0.00241354,-2.39277,0.436169,1.42129,0,0,3.56745,0
1777223683708,-0.00944154,1.55827,-0.0261833,-2.36062,0.52981,1.43521,0,0,3.38055,0
1777223683721,0.00145406,1.64257,-0.0577677,-2.29045,0.59077,1.42519,0,0,3.53936,0
1777223683735,-0.0158528,1.71245,-0.0870561,-2.17019,0.630489,1.37354,0,0,3.41834,0
1777223683748,-0.0440693,1.76044,-0.124775,-2.00482,0.666069,1.27023,0,0,3.3861,0
1777223683762,-0.0576615,1.76277,-0.18548,-1.82121,0.680223,1.14785,0,0,3.43938,0
1777223683775,-0.0404761,1.76153,-0.274571,-1.62027,0.639957,1.02931,0,0,3.36018,0
1777223683789,-0.0394856,1.76207,-0.371902,-1.39717,0.553221,0.896094,0,0,3.43614,0
1777223683802,-0.0795477,1.75312,-0.45705,-1.1521,0.448142,0.732076,0,0,3.41638,0
1777223683816,-0.150459,1.73968,-0.515825,-0.893566,0.368656,0.552099,0,0,3.47758,0
1777223683829,-0.18793,1.70996,-0.563991,-0.589167,0.335076,0.389115,0,0,3.37755,0
1777223683843,0.199665,1.84315,-0.178798,-0.22437,0.15685,0.334899,0,0,3.47923,0
1777223683856,0.187477,1.54554,-0.0254575,0.104145,-0.0711106,0.221067,0,0,3.30993,0
1777223683870,0.0807995,1.62518,-0.105137,0.332856,-0.102923,-0.0294669,0,0,3.46671,0
1777223683883,0.0217019,1.45999,-0.090897,0.413004,-0.0749295,-0.134212,0,0,3.40945,0
1777223683897,0.0493086,1.44721,-0.0249675,0.533292,0.00865294,-0.0493626,0,0,3.50569,0
1777223683911,0.0329343,1.34878,0.0163172,0.648672,0.102274,0.0145006,0,0,3.42306,0
1777223683924,0.0515327,1.28885,0.0438934,0.700725,0.130636,-0.0142012,0,0,3.49636,0
1777223683938,0.0690315,1.24156,0.0688332,0.734917,0.115784,-0.0529921,0,0,3.42421,0
1777223683951,0.0804925,1.1967,0.087012,0.7535,0.10365,-0.0470354,0,0,3.46125,0
1777223683965,0.0628401,1.16547,0.0766077,0.737751,0.125319,-0.0147432,0,0,3.39249,0
1777223683978,0.0684253,1.14514,0.0911561,0.701739,0.168644,0.0168743,0,0,3.46538,0
1777223683992,0.0967597,1.11502,0.114726,0.672314,0.199277,0.0272299,0,0,3.3751,0
1777223684005,0.130014,1.08609,0.124734,0.641992,0.216268,0.00795872,0,0,3.48623,0
1777223684019,0.153997,1.06358,0.125991,0.607195,0.223124,-0.0265484,0,0,3.43092,0
1777223684033,0.171827,1.04806,0.13651,0.57452,0.225491,-0.063027,0,0,3.58829,0
1777223684046,0.170965,1.03375,0.134542,0.5471,0.217731,-0.09681,0,0,3.43282,4
1777223684060,0.144994,1.02348,0.132513,0.512163,0.194827,-0.117698,0,0,3.38668,4
1777223684073,0.120129,1.01611,0.13326,0.474945,0.166236,-0.114965,0,0,3.44053,4
1777223684087,0.092138,1.01784,0.139507,0.44262,0.148416,-0.0838954,0,0,3.35636,4
1777223684100,0.0718571,1.0134,0.139622,0.41586,0.139774,-0.0427627,0,0,3.52292,4
1777223684114,0.0759002,1.00491,0.139336,0.387364,0.128043,-0.0071623,0,0,3.38777,4
1777223684127,0.0822416,0.999696,0.136932,0.359432,0.11786,0.0152782,0,0,3.47927,4
1777223684141,0.0945999,0.992273,0.13507,0.331092,0.108815,0.0285716,0,0,3.37727,4
1777223684154,0.105394,0.989527,0.134451,0.305681,0.0969386,0.0345603,0,0,3.45525,4
1777223684168,0.119399,0.985309,0.133945,0.281273,0.0776524,0.033533,0,0,3.45842,4
1777223684181,0.122903,0.983513,0.132895,0.259674,0.0561989,0.028135,0,0,3.34118,4
1777223684195,0.128874,0.984399,0.131179,0.241408,0.0409545,0.0214866,0,0,3.44636,4
1777223684209,0.130648,0.980374,0.128081,0.225295,0.0265715,0.0142541,0,0,3.42914,4
1777223684222,0.12437,0.982156,0.12568,0.210049,0.0196239,0.00596238,0,0,3.47495,4
1777223684236,0.118791,0.982995,0.124368,0.198043,0.0213787,-0.00218148,0,0,3.38856,4
1777223684249,0.11237,0.981408,0.121588,0.187212,0.0283245,-0.00945149,0,0,3.40931,4
1777223684263,0.110689,0.981155,0.118081,0.178134,0.0412627,-0.0158788,0,0,3.42858,4
1777223684276,0.116274,0.978202,0.11481,0.167669,0.0510905,-0.0235249,0,0,3.38842,4
1777223684290,0.117521,0.977471,0.109365,0.157231,0.0593184,-0.0326194,0,0,3.44618,4
1777223684303,0.119793,0.976129,0.106921,0.145733,0.0637322,-0.040707,0,0,3.43736,4
1777223684317,0.116651,0.975189,0.103513,0.133582,0.0636827,-0.0448385,0,0,3.38064,4
1777223684330,0.115145,0.975402,0.100843,0.122043,0.0622038,-0.0438413,0,0,3.43999,4
1777223684344,0.108626,0.978611,0.101291,0.112046,0.0572818,-0.0399313,0,0,3.40523,4
1777223684357,0.101454,0.980561,0.102614,0.102634,0.0531165,-0.0361005,0,0,3.43264,4
1777223684371,0.0978651,0.980452,0.101575,0.0929837,0.0475207,-0.0323739,0,0,3.4699,4
1777223684384,0.091532,0.981934,0.100608,0.0836951,0.0462546,-0.0292428,0,0,3.4544,4
1777223684398,0.0931755,0.983092,0.0997685,0.0761708,0.0480238,-0.0267736,0,0,3.31088,4
1777223684411,0.0954067,0.980816,0.096273,0.0668854,0.0433914,-0.0269169,0,0,3.45027,4
1777223684425,0.0950597,0.981897,0.0942355,0.0577989,0.0369228,-0.028843,0,0,3.36706,4
1777223684438,0.0948549,0.982834,0.0931742,0.0488528,0.0272576,-0.0294175,0,0,3.44521,4
1777223684452,0.0940016,0.983327,0.0934753,0.0415503,0.0155136,-0.0288912,0,0,3.35399,4
1777223684465,0.0906869,0.98398,0.0935436,0.0343835,0.00231734,-0.0264678,0,0,3.37055,4
1777223684479,0.086297,0.984675,0.0934422,0.0285257,-0.00941748,-0.0229344,0,0,3.42632,4
1777223684492,0.0876652,0.983285,0.0925497,0.023606,-0.0211303,-0.0182214,0,0,3.32362,0
1777223684506,0.0872445,0.983911,0.0920966,0.019061,-0.0296951,-0.0162914,0,0,3.47014,0
1777223684519,0.0911259,0.983457,0.0909633,0.0142938,-0.0355729,-0.0171639,0,0,3.34564,0
1777223684533,0.0923403,0.984157,0.0911375,0.00944335,-0.0412217,-0.0231455,0,0,3.35877,0
1777223684546,0.0960649,0.98158,0.0899697,0.00262772,-0.0457764,-0.0327485,0,0,3.4294,0
1777223684560,0.0936044,0.979793,0.090307,-0.00479496,-0.0500299,-0.0410563,0,0,3.38155,0
1777223684573,0.0910498,0.976182,0.08838,-0.0150772,-0.0541598,-0.0475088,0,0,3.43705,0
1777223684587,0.0925638,0.97279,0.0866748,-0.0295873,-0.0598533,-0.0529494,0,0,3.36362,0
1777223684600,0.0940713,0.96962,0.0818806,-0.0464372,-0.0687836,-0.0572924,0,0,3.48612,0
1777223684614,0.0977609,0.977065,0.0847637,-0.0594101,-0.0832993,-0.0594485,0,0,3.40466,0
1777223684627,0.0900903,0.979444,0.0906771,-0.0703736,-0.0996069,-0.0646041,0,0,3.4334,0
1777223684641,0.0801168,0.97974,0.094267,-0.0826777,-0.108845,-0.0756179,0,0,3.34125,0
1777223684654,0.0764763,0.985241,0.098542,-0.090234,-0.115119,-0.074847,0,0,3.45729,0
1777223684668,0.0725435,0.987282,0.101482,-0.092765,-0.115437,-0.0696753,0,0,3.35171,0
1777223684681,0.0686463,0.986481,0.104323,-0.0958283,-0.110905,-0.0682917,0,0,3.4187,0
1777223684695,0.0681581,0.986589,0.104442,-0.100468,-0.10396,-0.0700396,0,0,3.40247,0
1777223684708,0.0658682,0.986362,0.10654,-0.104156,-0.094992,-0.0689006,0,0,3.4286,0
1777223684722,0.064041,0.985843,0.107846,-0.106529,-0.0855468,-0.0634477,0,0,3.42008,0
1777223684735,0.0631302,0.987547,0.10779,-0.111103,-0.0770651,-0.0602395,0,0,3.32847,0
1777223684749,0.0604412,0.990797,0.113951,-0.112013,-0.0684194,-0.0552251,0,0,3.34101,0
1777223684762,0.0555329,0.992138,0.116308,-0.11239,-0.0570034,-0.046428,0,0,3.29331,0
1777223684775,0.0572875,0.990215,0.116874,-0.114702,-0.0424011,-0.0363109,0,0,3.44005,0
1777223684789,0.0620601,0.988898,0.11772,-0.115852,-0.0305505,-0.0291776,0,0,3.34306,0
1777223684802,0.0659465,0.989332,0.122507,-0.115271,-0.0267692,-0.0269992,0,0,3.32018,1
1777223684816,0.0662001,0.988421,0.124798,-0.112497,-0.0242033,-0.0255146,0,0,3.41986,1
1777223684829,0.063171,0.988017,0.129618,-0.108175,-0.0214544,-0.0216693,0,0,3.32788,1
1777223684843,0.0609271,0.987118,0.132742,-0.101049,-0.016123,-0.017447,0,0,3.45114,1
1777223684856,0.0634507,0.985245,0.136708,-0.0916502,-0.0127488,-0.0148445,0,0,3.35451,1
1777223684870,0.0645801,0.984616,0.140345,-0.0807263,-0.0086647,-0.0158437,0,0,3.55192,1
1777223684883,0.0646599,0.98201,0.142119,-0.0704399,-0.00501956,-0.0180759,0,0,3.42323,1
1777223684897,0.0640536,0.979941,0.142501,-0.0614607,-0.00233818,-0.020534,0,0,3.36464,1
1777223684911,0.063881,0.978659,0.143091,-0.0533419,0.00132123,-0.0236893,0,0,3.48403,1
1777223684924,0.0646963,0.975777,0.143924,-0.0469961,0.00472698,-0.0281634,0,0,3.33779,1
1777223684937,0.0669806,0.969897,0.143296,-0.04368,0.00844297,-0.0335459,0,0,3.43577,1
1777223684951,0.0698969,0.969102,0.142043,-0.0415527,0.00979662,-0.0396979,0,0,3.35014,1
1777223684964,0.0682787,0.970278,0.143561,-0.0442328,0.006001,-0.0493411,0,0,3.35464,1
1777223684978,0.0625307,0.971557,0.142531,-0.0512245,-0.00303988,-0.0623899,0,0,3.28612,1
1777223684991,0.0519744,0.974211,0.143728,-0.0585141,-0.0143907,-0.0656302,0,0,3.56132,1
1777223685005,0.0401711,0.974843,0.147179,-0.0613699,-0.0243969,-0.0523254,0,0,3.41334,1
1777223685018,0.0342985,0.974522,0.147184,-0.0637497,-0.0348345,-0.0370651,0,0,3.45982,1
1777223685032,0.0292319,0.977847,0.147542,-0.067565,-0.0396013,-0.0268418,0,0,3.42068,1
1777223685045,0.0230313,0.97874,0.151521,-0.067322,-0.0365125,-0.0143783,0,0,3.34066,1
1777223685059,0.0178731,0.980898,0.15401,-0.0622976,-0.0252999,0.00183485,0,0,3.52797,1
1777223685073,0.0158396,0.983415,0.153951,-0.0586322,-0.0123555,0.0174705,0,0,3.4229,1
1777223685086,0.0158435,0.987273,0.159048,-0.0524734,0.00266813,0.0281211,0,0,3.39364,1
1777223685100,0.0176163,0.982677,0.178754,-0.0414505,0.0233176,0.031933,0,0,3.43734,1
1777223685113,0.0305764,0.992231,0.195124,-0.0203054,0.0506018,0.0261274,0,0,3.43523,1
1777223685127,0.0380968,0.995313,0.197851,0.00475821,0.0872572,0.005984,0,0,3.44829,1
1777223685140,0.0413447,1.00951,0.202021,0.0328329,0.140641,-0.0260693,0,0,3.36919,1
1777223685154,0.0471565,1.02344,0.216161,0.061521,0.213231,-0.0581366,0,0,3.46949,1
1777223685167,0.0278487,1.03734,0.23722,0.104334,0.315606,-0.103205,0,0,3.38438,1
1777223685181,0.0294551,1.04313,0.26165,0.143917,0.435779,-0.152404,0,0,3.50901,1
1777223685194,0.0426245,1.03288,0.290903,0.189218,0.539268,-0.189535,0,0,3.42521,1
1777223685208,0.019796,0.971956,0.328108,0.204641,0.603105,-0.24016,0,0,3.38101,1
1777223685222,-0.0635309,1.04527,0.330201,0.23799,0.6826,-0.337372,0,0,3.45014,0
1777223685235,-0.071824,0.972067,0.339611,0.191569,0.812727,-0.31767,0,0,3.37112,0
1777223685249,-0.195003,0.946633,0.378602,0.199577,1.06642,-0.163275,0,0,3.4347,0
1777223685262,-0.229949,0.909011,0.465569,0.185068,1.30557,0.0826399,0,0,3.36699,0
1777223685276,-0.105257,0.829055,0.535833,0.157098,1.50485,0.282938,0,0,3.46999,0
1777223685289,-0.0287809,0.788107,0.591754,0.0995157,1.67093,0.317385,0,0,3.37671,0
1777223685302,0.0245236,0.766099,0.636349,0.0182478,1.80932,0.319322,0,0,3.38005,0
1777223685316,0.0522732,0.751816,0.672108,-0.0477578,1.92465,0.359677,0,0,3.53486,0
1777223685330,0.0870148,0.743952,0.70026,-0.117088,2.02076,0.41225,0,0,3.34682,0
1777223685343,0.113382,0.75128,0.716176,-0.189304,2.10085,0.475742,0,0,3.4424,0
1777223685357,0.134666,0.772505,0.723947,-0.24657,2.16759,0.560396,0,0,3.37581,0
1777223685370,0.180041,0.796274,0.719209,-0.282422,2.22321,0.657607,0,0,3.43905,0
1777223685384,0.245013,0.81437,0.703867,-0.310033,2.26956,0.736797,0,0,3.36082,0
1777223685397,0.314936,0.833297,0.682922,-0.328908,2.30818,0.796542,0,0,3.38045,0
1777223685411,0.367794,0.852562,0.65959,-0.336991,2.34037,0.836902,0,0,3.42001,0
1777223685424,0.402878,0.867905,0.633734,-0.338116,2.36719,0.856655,0,0,3.42373,0
1777223685438,0.424008,0.882674,0.605527,-0.338735,2.38954,0.866144,0,0,3.44884,0
1777223685451,0.436113,0.902703,0.574635,-0.331872,2.40817,0.874128,0,0,3.35931,0
1777223685465,0.439706,0.92672,0.542601,-0.311039,2.42369,0.88419,0,0,3.4639,0
1777223685478,0.439673,0.944741,0.508966,-0.281222,2.43662,0.890566,0,0,3.36808,0
1777223685492,0.451483,0.95598,0.477801,-0.249364,2.4474,0.898907,0,0,3.53995,0
1777223685505,0.472611,0.964258,0.446753,-0.212524,2.45638,0.898236,0,0,3.43242,0
1777223685519,0.492788,0.965943,0.418284,-0.183121,2.46387,0.882258,0,0,3.4639,0
1777223685532,0.50606,0.973938,0.395884,-0.15283,2.47011,0.849986,0,0,3.46762,0
1777223685546,0.514785,0.975571,0.375695,-0.128172,2.47531,0.814976,0,0,3.34427,0
1777223685559,0.508493,0.97168,0.360322,-0.107777,2.47964,0.786462,0,0,3.46125,0
1777223685573,0.495438,0.965374,0.345302,-0.0881985,2.47429,0.762204,0,0,3.38777,0
1777223685586,0.486999,0.956007,0.332679,-0.0665013,2.45517,0.743771,0,0,3.40692,0
1777223685600,0.477388,0.942437,0.318149,-0.0473007,2.42301,0.729415,0,0,3.43188,0
1777223685613,0.469848,0.930237,0.303281,-0.0286157,2.38192,0.716879,0,0,3.41808,0
1777223685627,0.460148,0.923151,0.287284,-0.0154368,2.341,0.700541,0,0,3.44432,0
1777223685640,0.461056,0.924334,0.271336,-0.00451792,2.29017,0.668263,0,0,3.35331,0
1777223685654,0.47095,0.923688,0.256364,-0.00169114,2.2185,0.621606,0,0,3.46171,0
1777223685667,0.475582,0.92731,0.249187,-0.00344491,2.1344,0.572509,0,0,3.37751,0
1777223685681,0.465513,0.929553,0.243278,0.00169667,2.05906,0.533108,0,0,3.48466,0
1777223685695,0.452395,0.927544,0.242009,-0.000456336,2.00847,0.514359,0,0,3.37092,0
1777223685708,0.453231,0.925221,0.252005,0.00308028,1.97421,0.509039,0,0,3.42642,0
1777223685722,0.46956,0.915354,0.267216,0.0132412,1.94305,0.511897,0,0,3.46449,0
1777223685735,0.484413,0.889672,0.282931,0.01793,1.91907,0.521771,0,0,3.35993,0
1777223685749,0.503711,0.845143,0.294645,-0.0063942,1.90225,0.54313,0,0,3.44971,0
1777223685762,0.531501,0.817903,0.302531,-0.0702267,1.87808,0.578563,0,0,3.35886,0
1777223685776,0.556529,0.830993,0.287309,-0.122746,1.8427,0.618535,0,0,3.48994,0
1777223685789,0.565777,0.863623,0.237159,-0.160316,1.81033,0.656616,0,0,3.38238,0
1777223685803,0.577152,0.914055,0.174959,-0.162274,1.75956,0.69344,0,0,3.55675,0
1777223685816,0.563286,0.960029,0.0999789,-0.12762,1.69494,0.720805,0,0,3.44469,0
1777223685830,0.538378,1.01098,0.0292172,-0.0600524,1.62037,0.732249,0,0,3.4491,0
1777223685843,0.521128,1.06371,-0.0445093,0.0571065,1.52619,0.721963,0,0,3.45527,0
1777223685857,0.510944,1.12191,-0.128145,0.228225,1.39505,0.673341,0,0,3.35564,0
1777223685870,0.469159,1.08146,-0.331859,0.405518,1.23938,0.557631,0,0,3.44834,0
1777223685884,0.443271,1.03868,-0.359131,0.346227,1.03164,0.362275,0,0,3.36279,0
1777223685897,0.473653,0.978475,-0.356107,0.254057,0.817191,0.176629,0,0,3.45795,0
1777223685911,0.503538,1.02828,-0.275916,0.232999,0.631553,0.142115,0,0,3.37756,0
1777223685924,0.527811,0.968223,-0.211954,0.173084,0.389156,0.18367,0,0,3.43256,0
1777223685938,0.4756,0.997922,-0.187563,0.14028,0.154157,0.0963921,0,0,3.42384,0
1777223685951,0.253293,0.995204,-0.141002,0.0637577,0.0298129,-0.118668,0,0,3.32173,0
1777223685965,0.0745323,1.03891,-0.0788615,-0.000481787,0.035124,-0.226384,0,0,3.42708,0
1777223685978,-0.0266241,1.07838,-0.0250059,0.0043695,0.118736,-0.125905,0,0,3.36799,0
1777223685992,-0.0483703,1.09021,0.0144178,0.0548753,0.209417,0.0216185,0,0,3.46549,0
1777223686005,-0.00226454,1.08692,0.0336546,0.087905,0.263713,0.0856872,0,0,3.38801,0
1777223686019,0.0520176,1.06404,0.0360402,0.0977962,0.262229,0.0697266,0,0,3.3903,0
1777223686032,0.0682944,1.05795,0.037114,0.102031,0.265827,0.0347595,0,0,3.42982,0
1777223686046,0.0895039,1.04047,0.0365022,0.103588,0.282731,0.0204293,0,0,3.3711,0
1777223686059,0.127961,1.02606,0.0393167,0.10869,0.25963,0.0158031,0,0,3.44527,0
1777223686073,0.12651,1.02388,0.0462323,0.110753,0.210086,-0.0102532,0,0,3.34105,0
1777223686086,0.100606,1.0301,0.055132,0.11036,0.179384,-0.0393713,0,0,3.4544,0
1777223686100,0.0817827,1.03839,0.0617651,0.118914,0.165505,-0.0412318,0,0,3.36442,0
1777223686114,0.05566,1.03523,0.0632131,0.130291,0.164562,-0.0325532,0,0,3.58519,4
1777223686127,0.0436284,1.03323,0.0645025,0.139962,0.184514,-0.0368732,0,0,3.43484,4
1777223686141,0.0469195,1.02515,0.0625014,0.143442,0.201179,-0.0477506,0,0,3.39075,4
1777223686154,0.0488439,1.01273,0.0580615,0.138517,0.211937,-0.0570441,0,0,3.43927,4
1777223686168,0.0510295,0.997861,0.0488341,0.123751,0.216232,-0.0617352,0,0,3.35586,4
1777223686181,0.0564659,0.986368,0.0448762,0.101345,0.211173,-0.0631508,0,0,3.4404,4
1777223686195,0.0694219,0.972722,0.0372576,0.0747087,0.189235,-0.0625494,0,0,3.37729,4
1777223686208,0.068928,0.961293,0.0369163,0.0426771,0.15468,-0.0584222,0,0,3.49327,4
1777223686222,0.0578826,0.950179,0.0358801,0.00968637,0.124104,-0.0488887,0,0,3.37405,4
1777223686235,0.042727,0.940111,0.0348839,-0.025325,0.101181,-0.0316566,0,0,3.52886,4
1777223686249,0.0274774,0.940829,0.0346946,-0.0587632,0.0934139,-0.0123729,0,0,3.44625,4
1777223686262,0.0352775,0.961591,0.0436026,-0.0814884,0.0890663,0.00484194,0,0,3.33125,4
1777223686276,0.0513794,0.98499,0.0516585,-0.0972073,0.0738275,0.0086151,0,0,3.44256,4
1777223686289,0.0575419,1.00556,0.0636715,-0.107864,0.0514593,-0.00264263,0,0,3.35556,4
1777223686303,0.0592891,1.01815,0.0710775,-0.111757,0.0266614,-0.0123421,0,0,3.46216,4
1777223686316,0.0599374,1.01939,0.075159,-0.110077,-0.00530127,-0.0129823,0,0,3.37488,4
1777223686330,0.0530686,1.02073,0.0794426,-0.10528,-0.0382727,-0.00945728,0,0,3.44288,4
1777223686343,0.0446922,1.01797,0.0825504,-0.100024,-0.0694512,-0.00475129,0,0,3.43536,4
1777223686357,0.0385133,1.01338,0.0842836,-0.0945236,-0.0961711,0.00231285,0,0,3.34897,4
1777223686370,0.0308324,1.00653,0.0836973,-0.0890496,-0.111504,0.0111004,0,0,3.44081,4
1777223686384,0.0288606,1.00017,0.0826091,-0.0837118,-0.112805,0.0180926,0,0,3.36882,4
1777223686397,0.0365427,0.991558,0.0811496,-0.0798489,-0.108597,0.0190212,0,0,3.45419,0
1777223686411,0.0411858,0.981572,0.0761827,-0.0791616,-0.104276,0.0133064,0,0,3.37795,0
1777223686425,0.0376245,0.976343,0.0748944,-0.080968,-0.0945815,0.00317522,0,0,3.55584,0
1777223686438,0.0320553,0.973734,0.0777651,-0.0820662,-0.0770368,-0.00554737,0,0,3.42953,0
1777223686452,0.0286033,0.972659,0.0785203,-0.082676,-0.0587902,-0.00992815,0,0,3.38367,0
1777223686465,0.02255,0.978836,0.0835192,-0.081912,-0.0412819,-0.0104999,0,0,3.43953,0
1777223686479,0.0170691,0.987029,0.0905617,-0.0755628,-0.020852,-0.00927156,0,0,3.35593,0
1777223686492,0.0231844,0.992696,0.0956145,-0.065857,-0.00694407,-0.00549984,0,0,3.43908,0
1777223686506,0.0259523,0.996972,0.0988112,-0.0572345,-0.00186815,-0.00444325,0,0,3.3933,0
1777223686519,0.0236585,0.999687,0.101554,-0.0497565,0.00330326,-0.00564927,0,0,3.46223,0
1777223686533,0.0227929,0.999728,0.102585,-0.0417309,0.00826162,-0.00274844,0,0,3.41292,0
1777223686546,0.0221057,0.997287,0.103351,-0.0353229,0.0134241,0.00208622,0,0,3.43588,0
1777223686560,0.0226351,0.996325,0.103212,-0.0295375,0.0175481,0.00479195,0,0,3.4208,0
1777223686573,0.0226122,0.994075,0.104539,-0.0236986,0.0221043,0.00609253,0,0,3.34216,0
1777223686587,0.025745,0.992218,0.101412,-0.018731,0.0265882,0.00751986,0,0,3.43525,0
1777223686600,0.0297519,0.988578,0.0980538,-0.0174285,0.030223,0.00864568,0,0,3.40177,0
1777223686614,0.035322,0.985805,0.0952668,-0.0172464,0.0308474,0.00820982,0,0,3.50834,0
1777223686627,0.0409945,0.983911,0.09452,-0.018456,0.0276782,0.0057601,0,0,3.41964,0
1777223686641,0.0440214,0.982492,0.0947081,-0.0211433,0.0210677,0.00210288,0,0,3.46329,0
1777223686655,0.0424028,0.982161,0.0945819,-0.0243624,0.0127345,-0.00147915,0,0,3.46362,0
1777223686668,0.0389385,0.983225,0.0984937,-0.0275158,0.00486148,-0.00319192,0,0,3.38584,0
1777223686682,0.0334535,0.985371,0.101247,-0.0290621,-0.00135589,-0.00262176,0,0,3.47934,0
1777223686695,0.0285948,0.987396,0.104859,-0.0292566,-0.00457775,-0.000212791,0,0,3.39073,0
1777223686709,0.0267249,0.989089,0.108993,-0.0283627,-0.00667739,0.00338502,0,0,3.4891,0
1777223686722,0.023911,0.989658,0.109719,-0.026829,-0.00777823,0.00592517,0,0,3.40084,0
1777223686736,0.0248781,0.990345,0.110092,-0.0254872,-0.0055531,0.00780024,0,0,3.53803,0
1777223686750,0.0290957,0.990459,0.10974,-0.0233132,-0.00388967,0.00929918,0,0,3.4686,0
1777223686763,0.0334332,0.989754,0.109402,-0.0213615,-0.00377575,0.00767298,0,0,3.55682,0
1777223686777,0.0367166,0.98763,0.107726,-0.0206511,-0.00543653,0.00340433,0,0,3.48788,0
1777223686790,0.0373474,0.98749,0.107686,-0.0197029,-0.00795283,-0.00029283,0,0,3.39956,0
1777223686804,0.0360292,0.987337,0.109195,-0.0180857,-0.0119454,-0.00191069,0,0,3.47571,0
1777223686817,0.0338552,0.98788,0.111921,-0.0165727,-0.0162013,-0.00351336,0,0,3.38932,0
1777223686831,0.0299087,0.989348,0.113227,-0.0141923,-0.0208039,-0.00503976,0,0,3.65127,0
1777223686845,0.0258388,0.988178,0.11481,-0.0110763,-0.0219295,-0.00512855,0,0,3.4346,0
1777223686858,0.0253293,0.98668,0.113644,-0.00753811,-0.0222949,-0.00351044,0,0,3.48966,0
1777223686872,0.0228602,0.985121,0.113531,-0.00590008,-0.0209964,-0.00287447,0,0,3.47142,0
1777223686885,0.0235797,0.984315,0.111214,-0.00445872,-0.0182349,-0.00324781,0,0,3.38712,0
1777223686899,0.0246226,0.98442,0.109653,-0.00321941,-0.0152212,-0.00296096,0,0,3.47995,0
1777223686912,0.0254638,0.984124,0.109134,-0.00274646,-0.0120609,-0.00372701,0,0,3.39101,0
1777223686926,0.0248429,0.984382,0.10775,-0.00279762,-0.00856223,-0.00497607,0,0,3.48621,0
1777223686940,0.0256872,0.984639,0.108447,-0.0031456,-0.00508684,-0.00549533,0,0,3.44021,0
1777223686953,0.0261307,0.984186,0.109052,-0.00374093,-0.00413725,-0.00547002,0,0,3.46836,0
1777223686967,0.0247785,0.983825,0.108869,-0.00474594,-0.00483448,-0.00569067,0,0,3.4591,0
1777223686980,0.0215455,0.983318,0.109354,-0.00634681,-0.00521194,-0.00462772,0,0,3.39634,0
1777223686994,0.0202184,0.985291,0.109292,-0.00572157,-0.00737127,-0.000179589,0,0,3.46579,0
1777223687007,0.0159455,0.985878,0.11162,-0.00839393,-0.00778395,0.00327273,0,0,3.40582,0
1777223687021,0.0173832,0.986356,0.111935,-0.00995932,-0.0100617,0.00606061,0,0,3.44886,0
1777223687034,0.0185992,0.986706,0.112531,-0.0109203,-0.0169598,0.0103813,0,0,3.45251,0
1777223687048,0.018336,0.98479,0.11086,-0.0127644,-0.024095,0.0143254,0,0,3.43447,0
1777223687061,0.018783,0.98361,0.110536,-0.0160314,-0.0305245,0.0185027,0,0,3.43019,0
1777223687075,0.0211658,0.983453,0.111251,-0.0186394,-0.0371292,0.0244393,0,0,3.4158,0
1777223687089,0.0239102,0.98351,0.111165,-0.0211944,-0.0442361,0.0293228,0,0,3.45921,0
1777223687102,0.0270651,0.982273,0.111444,-0.0240869,-0.049866,0.0321074,0,0,3.36195,0
1777223687116,0.0302546,0.983419,0.112876,-0.0261666,-0.0524456,0.0344152,0,0,3.46249,0
1777223687129,0.0330882,0.983705,0.113702,-0.0263856,-0.0533611,0.0360585,0,0,3.37655,5
1777223687143,0.0341971,0.984083,0.11474,-0.0266954,-0.0526356,0.0360157,0,0,3.53519,5
1777223687156,0.0341305,0.98454,0.116575,-0.0257704,-0.0501734,0.0347713,0,0,3.41016,1
1777223687170,0.0351021,0.984389,0.118747,-0.024058,-0.0473455,0.0338489,0,0,3.48219,1
1777223687183,0.0367178,0.984902,0.11986,-0.0220331,-0.0444673,0.0323168,0,0,3.44829,1
1777223687197,0.0392466,0.983578,0.119701,-0.0201293,-0.0434047,0.0300096,0,0,3.3684,1
1777223687210,0.0399301,0.983908,0.121011,-0.0191536,-0.0430663,0.0269291,0,0,3.47473,1
1777223687224,0.040234,0.983069,0.122405,-0.0175644,-0.0426188,0.0240694,0,0,3.46908,1
1777223687238,0.0401118,0.983048,0.121557,-0.0159729,-0.0422587,0.0217627,0,0,3.62071,1
1777223687251,0.041003,0.982998,0.123104,-0.015041,-0.0412207,0.0193188,0,0,3.40458,1
1777223687265,0.0392996,0.98408,0.124094,-0.0135901,-0.0392488,0.0170023,0,0,3.39758,1
1777223687278,0.038078,0.984473,0.125082,-0.0119867,-0.0361297,0.015848,0,0,3.45653,1
1777223687292,0.0358271,0.98446,0.124717,-0.0100271,-0.0313422,0.0158657,0,0,3.37832,1
1777223687305,0.0339692,0.98432,0.124819,-0.00913198,-0.0253424,0.0168982,0,0,3.46773,1
1777223687319,0.0334179,0.98362,0.123524,-0.00837334,-0.0192739,0.0187638,0,0,3.37843,1
1777223687332,0.034033,0.982657,0.123911,-0.00823733,-0.0144204,0.0203184,0,0,3.4991,1
1777223687346,0.0361113,0.981854,0.122929,-0.00872195,-0.0114699,0.0211814,0,0,3.44692,1
1777223687360,0.038334,0.98209,0.122623,-0.00908763,-0.00939284,0.0211881,0,0,3.48095,1
1777223687373,0.0402316,0.982134,0.123,-0.00988854,-0.00949404,0.0204939,0,0,3.47534,1
1777223687387,0.0419113,0.982429,0.123103,-0.0108613,-0.0102399,0.0188212,0,0,3.39675,1
1777223687400,0.0421793,0.982943,0.12316,-0.0113793,-0.0114086,0.0171093,0,0,3.46034,1
1777223687414,0.0417364,0.983132,0.123306,-0.0113276,-0.0118227,0.0160644,0,0,3.40673,1
1777223687427,0.0411911,0.984389,0.124462,-0.0100758,-0.0112899,0.0152063,0,0,3.48445,1
1777223687441,0.0399776,0.98487,0.12479,-0.00946518,-0.0100953,0.0148093,0,0,3.47147,1
1777223687454,0.0382163,0.98696,0.12189,-0.00812938,-0.00790382,0.0153309,0,0,3.46273,1
1777223687468,0.0337272,0.98559,0.120498,-0.00827576,-0.00338041,0.0189081,0,0,3.4544,1
1777223687482,0.0307949,0.986073,0.12151,-0.00732903,0.00218299,0.0234412,0,0,3.43362,1
1777223687495,0.0302115,0.984466,0.122613,-0.00608208,0.00656471,0.0272061,0,0,3.47981,1
1777223687509,0.0318925,0.983714,0.123764,-0.00345263,0.00723904,0.0291221,0,0,3.41038,1
1777223687522,0.0353146,0.984927,0.125954,-0.000688893,0.00336077,0.0274109,0,0,3.47295,1
1777223687536,0.0397977,0.986206,0.128434,0.0031791,-0.00415864,0.0230078,0,0,3.38831,1
1777223687549,0.0448804,0.989922,0.132164,0.0117078,-0.0147124,0.0155854,0,0,3.56651,1
1777223687563,0.0498081,0.997234,0.136046,0.0248455,-0.0301611,0.00639752,0,0,3.39197,1
1777223687576,0.0528318,1.00773,0.143952,0.0482746,-0.0514828,-0.00382904,0,0,3.48445,1
1777223687590,0.0489262,1.02138,0.153905,0.0774935,-0.0766937,-0.016944,0,0,3.45086,1
1777223687603,0.044731,1.04199,0.161131,0.116397,-0.106723,-0.0340946,0,0,3.39095,1
1777223687617,0.039287,1.07139,0.175061,0.166705,-0.135081,-0.0532722,0,0,3.45293,1
1777223687631,0.0468821,1.09824,0.183553,0.23303,-0.144603,-0.075564,0,0,3.37292,1
1777223687644,0.0773475,1.13381,0.20981,0.31596,-0.138352,-0.0940641,0,0,3.70621,0
1777223687658,0.139605,1.19583,0.250366,0.429216,-0.148551,-0.122967,0,0,3.38705,0
1777223687671,0.0826353,1.28755,0.215444,0.607515,-0.183932,-0.229444,0,0,3.4009,0
1777223687685,0.0862554,1.3453,0.281542,0.697522,-0.156687,-0.30754,0,0,3.45575,0
1777223687698,0.0771412,1.40902,0.305568,0.9102,-0.137646,-0.34099,0,0,3.3886,0
1777223687712,0.0662681,1.47757,0.344958,1.09389,-0.116397,-0.39954,0,0,3.4616,0
1777223687725,0.0848493,1.51656,0.400745,1.30546,-0.109606,-0.483294,0,0,3.3694,0
1777223687739,0.105003,1.52998,0.440302,1.50477,-0.112089,-0.56291,0,0,3.45927,0
1777223687753,0.121118,1.50451,0.464351,1.67085,-0.112224,-0.63385,0,0,3.43147,0
1777223687766,0.139839,1.43397,0.466378,1.80926,-0.103673,-0.708985,0,0,3.44862,0
1777223687780,0.13753,1.33593,0.424514,1.90798,-0.0647272,-0.796342,0,0,3.45436,0
1777223687793,0.119825,1.23774,0.324434,1.94048,-0.00214548,-0.857499,0,0,3.42301,0
1777223687807,0.0681317,1.23897,0.138776,1.97098,0.0864055,-0.899557,0,0,3.48199,0
1777223687820,0.0597649,1.18165,0.0587521,1.96431,0.166534,-0.926463,0,0,3.38756,0
1777223687834,0.0422701,1.05306,0.00191638,1.86422,0.23458,-0.95737,0,0,3.49277,0
1777223687847,0.0279172,0.976317,-0.0344647,1.71999,0.305865,-0.9759,0,0,3.47805,0
1777223687861,-0.0106677,0.881186,-0.077923,1.5686,0.40387,-0.957589,0,0,3.56316,0
1777223687875,-0.0464844,0.751653,-0.10047,1.37197,0.530858,-0.88822,0,0,3.42486,0
1777223687888,-0.0371096,0.628669,-0.0921848,1.1227,0.629316,-0.766341,0,0,3.53677,0
1777223687902,0.00426299,0.530898,-0.0515654,0.838378,0.657127,-0.615258,0,0,3.50312,0
1777223687915,0.052248,0.443824,0.00210348,0.535073,0.629323,-0.45568,0,0,3.39197,0
1777223687929,0.0910144,0.357447,0.0738583,0.215284,0.576294,-0.295776,0,0,3.56108,0
1777223687943,0.126152,0.293551,0.150635,-0.11206,0.502547,-0.14246,0,0,3.41986,0
1777223687956,0.15637,0.258729,0.232608,-0.43547,0.418153,-0.00414922,0,0,3.49516,0
1777223687970,0.182832,0.234319,0.295286,-0.753897,0.330739,0.117013,0,0,3.46584,0
1777223687983,0.206675,0.22786,0.347259,-1.04514,0.238822,0.225221,0,0,3.45847,0
1777223687997,0.228534,0.251078,0.394732,-1.28785,0.138038,0.321564,0,0,3.47616,0
1777223688010,0.250022,0.303729,0.434084,-1.4901,0.0307062,0.412194,0,0,3.40127,0
1777223688024,0.272024,0.397764,0.471048,-1.65865,-0.0757982,0.501778,0,0,3.47312,0
1777223688038,0.287428,0.509005,0.48918,-1.7991,-0.178598,0.587385,0,0,3.37814,0
1777223688051,0.266667,0.620676,0.487388,-1.91615,-0.2442,0.66581,0,0,3.50729,0
1777223688065,0.232364,0.762768,0.490788,-2.01369,-0.255027,0.748366,0,0,3.40158,0
1777223688078,0.206313,0.932174,0.49287,-2.09497,-0.230118,0.852353,0,0,3.43979,0
1777223688092,0.190482,1.09663,0.48107,-2.1627,-0.184577,0.973819,0,0,3.47944,0
1777223688105,0.172299,1.26361,0.458857,-2.21915,-0.130035,1.08236,0,0,3.44562,0
1777223688119,0.148178,1.41698,0.412482,-2.26618,-0.0715307,1.15175,0,0,3.48279,0
1777223688132,0.13158,1.54602,0.346868,-2.30538,-0.00864197,1.17315,0,0,3.39032,0
1777223688146,0.140461,1.63425,0.263036,-2.28241,0.0257627,1.15298,0,0,3.48308,0
1777223688160,0.166348,1.68817,0.176096,-2.19748,-0.000986528,1.10948,0,0,3.44588,0
1777223688173,0.170262,1.71086,0.0814059,-2.05346,-0.088672,1.04938,0,0,3.52751,0
1777223688187,0.119965,1.70894,-0.0189833,-1.86666,-0.199479,0.958907,0,0,3.41192,0
1777223688200,0.0145912,1.68022,-0.113608,-1.65293,-0.279515,0.828721,0,0,3.51438,0
1777223688214,-0.0880927,1.65177,-0.200106,-1.41174,-0.312445,0.672051,0,0,3.46732,0
1777223688227,-0.150414,1.62643,-0.258734,-1.14429,-0.304099,0.510068,0,0,3.38653,0
1777223688241,-0.177628,1.58754,-0.285026,-0.871564,-0.265579,0.352741,0,0,3.46956,0
1777223688255,-0.163358,1.54338,-0.264131,-0.612169,-0.215972,0.211941,0,0,3.43014,0
1777223688268,-0.136137,1.47683,-0.218934,-0.38827,-0.157928,0.0981694,0,0,3.47523,0
1777223688282,-0.0366432,1.39936,-0.0640684,-0.196192,-0.104788,0.0340979,0,0,3.40375,0
1777223688295,0.298812,1.52323,0.471456,0.0930332,-0.189409,0.0306286,0,0,3.46501,0
1777223688309,0.0675653,1.19044,0.232773,0.412515,-0.209241,-0.157275,0,0,3.44543,0
1777223688322,0.0394555,1.34959,0.132609,0.469526,-0.20293,-0.32633,0,0,3.39086,0
1777223688336,0.0439078,1.19961,0.154223,0.560457,-0.156996,-0.33245,0,0,3.45564,0
1777223688349,0.092363,1.20252,0.170479,0.659414,-0.154507,-0.276469,0,0,3.39464,0
1777223688363,0.0262725,1.1111,0.200808,0.687756,-0.170015,-0.2973,0,0,3.47532,0
1777223688376,0.0101992,1.10566,0.250336,0.722888,-0.142328,-0.29789,0,0,3.40601,0
1777223688390,0.00850132,1.078,0.254699,0.792839,-0.0996629,-0.218101,0,0,3.45693,0
1777223688404,0.0361746,1.05067,0.247002,0.84813,-0.0317928,-0.116802,0,0,3.47729,0
1777223688417,0.0982922,1.04486,0.197499,0.862156,0.0367121,-0.0650577,0,0,3.41892,0
1777223688431,0.148139,1.00179,0.167163,0.808476,0.0369674,-0.0886931,0,0,3.4779,0
1777223688444,0.131159,1.00892,0.166819,0.733985,0.0688469,-0.141137,0,0,3.41971,0
1777223688458,0.112332,1.01994,0.157608,0.698219,0.162754,-0.143645,0,0,3.48305,0
1777223688471,0.157915,0.998011,0.148325,0.661391,0.221303,-0.118979,0,0,3.39003,0
1777223688485,0.181052,0.978166,0.14287,0.606744,0.218999,-0.15205,0,0,3.5344,0
1777223688498,0.173698,0.978437,0.145985,0.544132,0.191736,-0.221136,0,0,3.40999,0
1777223688512,0.153222,0.980732,0.140903,0.490695,0.157706,-0.237753,0,0,3.50814,0
1777223688526,0.12753,0.986198,0.143344,0.454994,0.133903,-0.200621,0,0,3.45716,0
1777223688539,0.116226,0.988274,0.14942,0.423487,0.119359,-0.171904,0,0,3.38062,0
1777223688553,0.117704,0.984383,0.150448,0.394675,0.103792,-0.16464,0,0,3.47701,0
1777223688566,0.116671,0.983256,0.150023,0.369621,0.0902335,-0.160088,0,0,3.44736,0
1777223688580,0.115774,0.983886,0.146243,0.351032,0.0889477,-0.152071,0,0,3.48914,0
1777223688593,0.120239,0.982824,0.138264,0.337782,0.0921638,-0.148444,0,0,3.42958,0
1777223688607,0.11707,0.980197,0.133009,0.322286,0.093279,-0.150306,0,0,3.45253,0
1777223688620,0.110716,0.980137,0.127225,0.308037,0.096333,-0.147965,0,0,3.47819,0
1777223688634,0.105842,0.981242,0.125773,0.294319,0.094018,-0.138431,0,0,3.40634,0
1777223688648,0.101256,0.981462,0.12165,0.281093,0.0838445,-0.128133,0,0,3.48029,0
1777223688661,0.0946051,0.983004,0.119775,0.269842,0.0678857,-0.11805,0,0,3.45105,0
1777223688675,0.0846158,0.985565,0.116893,0.260339,0.0547521,-0.106415,0,0,3.39629,0
1777223688688,0.0775192,0.989687,0.116642,0.256924,0.044698,-0.0943157,0,0,3.52155,0
1777223688702,0.0758618,0.990145,0.112564,0.24624,0.0358234,-0.0899832,0,0,3.45273,0
1777223688715,0.0756453,0.990704,0.109345,0.237796,0.0347892,-0.0934847,0,0,3.49823,0
1777223688729,0.0768407,0.990803,0.104426,0.23226,0.0352378,-0.0966189,0,0,3.58084,0
1777223688743,0.0747901,0.990889,0.0999953,0.228613,0.0394539,-0.10189,0,0,3.48625,0
1777223688756,0.074007,0.991897,0.0950544,0.226796,0.0451938,-0.108051,0,0,3.40729,0
1777223688770,0.0711073,0.994991,0.0907002,0.226821,0.0518218,-0.111874,0,0,3.49836,0
1777223688783,0.0606112,0.999962,0.0898152,0.230621,0.0579049,-0.11403,0,0,3.41025,0
1777223688797,0.0552301,1.00405,0.0843177,0.231472,0.0693991,-0.118397,0,0,3.49564,0
1777223688810,0.0482095,1.00851,0.0819574,0.236582,0.0753008,-0.11832,0,0,3.41116,4
1777223688824,0.0459425,1.01523,0.0816454,0.246834,0.0803843,-0.116005,0,0,3.45449,4
1777223688838,0.0451968,1.01982,0.0770957,0.257756,0.0815543,-0.118999,0,0,3.45921,4
1777223688851,0.0507584,1.03114,0.0740142,0.269097,0.0776311,-0.121761,0,0,3.3928,4
1777223688865,0.0562627,1.04534,0.0715961,0.286449,0.0686112,-0.123033,0,0,3.47593,4
1777223688878,0.0646771,1.05047,0.0692072,0.302638,0.0527867,-0.125479,0,0,3.36288,4
1777223688892,0.0579238,1.06203,0.0673903,0.320596,0.034994,-0.127314,0,0,3.37049,4
1777223688905,0.0419906,1.06994,0.0637861,0.344173,0.0242634,-0.123054,0,0,3.45812,4
1777223688919,0.023074,1.0854,0.0680563,0.384724,0.0161483,-0.127074,0,0,3.42899,4
1777223688932,-0.0607814,0.845405,0.0329328,0.448199,0.00288439,-0.209598,0,0,3.50003,4
1777223688946,0.00468636,1.04394,0.0662659,0.486464,0.022022,-0.186102,0,0,3.44269,4
1777223688959,-0.0317059,1.01528,0.0587241,0.517702,0.0493822,-0.15735,0,0,3.49232,4
1777223688973,-0.00249844,1.03353,0.054396,0.571991,0.0691671,-0.184585,0,0,3.44751,4
1777223688987,0.00889779,1.07248,0.0525684,0.613466,0.0595731,-0.210399,0,0,3.3874,4
1777223689000,0.0131301,1.09227,0.0469281,0.664822,0.0550514,-0.221197,0,0,3.45777,4
1777223689014,0.00490124,1.12621,0.0489801,0.726804,0.0414487,-0.227957,0,0,3.42369,4
1777223689027,0.0104323,1.16376,0.0539788,0.796612,0.0392988,-0.249913,0,0,3.47634,4
1777223689041,0.0359851,1.1915,0.0616969,0.875764,0.015319,-0.267231,0,0,3.42929,4
1777223689054,0.0488089,1.22485,0.0730305,0.962933,-0.0211909,-0.289906,0,0,3.46334,4
1777223689068,0.0638998,1.25252,0.084415,1.06047,-0.0632825,-0.314845,0,0,3.42647,4
1777223689081,0.0873936,1.27174,0.102792,1.16682,-0.125394,-0.3326,0,0,3.46551,4
1777223689095,0.11429,1.29397,0.126083,1.27891,-0.2076,-0.348159,0,0,3.36667,4
1777223689108,0.15035,1.32315,0.159206,1.4045,-0.309806,-0.361825,0,0,3.4456,4
1777223689122,0.205948,1.35485,0.206334,1.54696,-0.431238,-0.37278,0,0,3.34899,4
1777223689136,0.273972,1.37295,0.26694,1.70252,-0.567406,-0.385574,0,0,3.52962,4
1777223689149,0.327789,1.35864,0.327989,1.83565,-0.70878,-0.41051,0,0,3.38742,4
1777223689163,0.327061,1.32303,0.363685,1.94659,-0.840319,-0.450667,0,0,3.36495,4
1777223689176,0.254301,1.32409,0.311289,2.03904,-0.930533,-0.519538,0,0,3.41582,4
1777223689189,0.114978,1.34357,0.188521,2.11608,-0.895788,-0.648368,0,0,3.33845,4
1777223689203,0.0139615,1.39465,0.063111,2.18029,-0.739772,-0.842444,0,0,3.43419,4
1777223689216,0.0398214,1.2728,-0.0228353,2.23379,-0.602584,-0.951273,0,0,3.35075,4
1777223689230,0.0926435,1.17196,-0.0954292,2.20724,-0.523438,-0.917499,0,0,3.44601,4
1777223689243,0.0808215,1.07112,-0.163347,2.10412,-0.461491,-0.831707,0,0,3.33814,5
1777223689257,0.00824116,0.962857,-0.232642,1.90602,-0.344016,-0.78814,0,0,3.44416,5
1777223689270,-0.0577347,0.88832,-0.285632,1.65546,-0.167545,-0.76728,0,0,3.43073,5
1777223689284,-0.0749632,0.816528,-0.311274,1.38389,0.0129108,-0.697389,0,0,3.31955,5
1777223689297,-0.0565595,0.743289,-0.318063,1.09703,0.151217,-0.572023,0,0,3.43199,5
1777223689311,-0.032345,0.677772,-0.306038,0.806141,0.243012,-0.427831,0,0,3.36579,5
1777223689324,-0.0189783,0.624426,-0.280734,0.529876,0.302751,-0.292391,0,0,3.33384,5
1777223689338,-0.0106544,0.572513,-0.254679,0.27552,0.340448,-0.167743,0,0,3.3246,5
1777223689351,7.93469e-05,0.514539,-0.234695,0.0357321,0.356926,-0.0470759,0,0,3.43682,5
1777223689365,0.00972034,0.442747,-0.218535,-0.210096,0.35086,0.073709,0,0,3.3531,5
1777223689378,0.00966197,0.369155,-0.211389,-0.483833,0.329165,0.188956,0,0,3.43018,5
1777223689392,0.00446384,0.297764,-0.193635,-0.789098,0.293579,0.288227,0,0,3.41449,5
1777223689405,0.0119828,0.257755,-0.15702,-1.07448,0.230387,0.381016,0,0,3.40708,5
1777223689419,0.0356906,0.261172,-0.0946987,-1.31229,0.132193,0.478671,0,0,3.46094,5
1777223689432,0.0560169,0.280933,-0.0296516,-1.51047,0.0121962,0.591526,0,0,3.43232,5
1777223689446,0.0496648,0.284031,0.0171725,-1.67562,-0.0993912,0.708282,0,0,3.44768,5
1777223689459,0.0184447,0.306861,0.0531937,-1.81325,-0.175638,0.816736,0,0,3.40199,0
1777223689473,-0.013841,0.358499,0.0788382,-1.92794,-0.214329,0.90499,0,0,3.42521,0
1777223689486,-0.0211216,0.426625,0.103355,-2.02351,-0.241496,0.983471,0,0,3.43512,0
1777223689500,-0.0224563,0.520905,0.119913,-2.10315,-0.270547,1.05634,0,0,3.32984,0
1777223689513,-0.048548,0.638086,0.137441,-2.16952,-0.270583,1.11354,0,0,3.44608,0
1777223689527,-0.102247,0.741401,0.143909,-2.22483,-0.211618,1.15411,0,0,3.36218,0
1777223689540,-0.138929,0.854491,0.153192,-2.27092,-0.110076,1.19027,0,0,3.36629,0
1777223689554,-0.151313,0.996882,0.158581,-2.30933,0.0033972,1.22563,0,0,3.2901,0
1777223689567,-0.156307,1.15246,0.154221,-2.34134,0.124243,1.25076,0,0,3.44016,0
1777223689581,-0.148546,1.31266,0.140011,-2.36801,0.244439,1.25149,0,0,3.43138,0
1777223689594,-0.117165,1.45631,0.112875,-2.39024,0.346358,1.22256,0,0,3.43534,0
1777223689608,-0.0618004,1.56077,0.0661187,-2.39338,0.407741,1.16946,0,0,3.39784,0
1777223689621,0.0176032,1.63374,0.0064463,-2.34456,0.406833,1.10066,0,0,3.43618,0
1777223689635,0.114372,1.67197,-0.0598722,-2.24984,0.310376,1.02933,0,0,3.37512,0
1777223689648,0.1667,1.68511,-0.127425,-2.11755,0.132031,0.954402,0,0,3.42771,0
1777223689662,0.110438,1.69411,-0.186976,-1.94586,-0.0372643,0.853656,0,0,3.39001,0
1777223689675,-0.00255954,1.69456,-0.249297,-1.73597,-0.12571,0.72937,0,0,3.4286,0
1777223689689,-0.0823936,1.68494,-0.31502,-1.49614,-0.136705,0.604907,0,0,3.33338,0
1777223689702,-0.0989142,1.67405,-0.374173,-1.22922,-0.121593,0.483746,0,0,3.42843,0
1777223689716,-0.099038,1.65524,-0.407193,-0.949473,-0.102828,0.358961,0,0,3.37451,0
1777223689729,-0.109247,1.6214,-0.408871,-0.682475,-0.0678659,0.23986,0,0,3.44823,0
1777223689743,-0.12313,1.55833,-0.381212,-0.404021,0.00190563,0.139094,0,0,3.36036,0
1777223689756,0.201588,1.75564,0.162244,0.00301017,-0.034557,0.104029,0,0,3.38229,0
1777223689770,0.00509387,1.36482,-0.0165189,0.414875,0.0261134,-0.0398742,0,0,3.3009,0
1777223689783,0.00374703,1.47725,-0.0747924,0.511849,0.108682,-0.183636,0,0,3.47779,0
1777223689797,0.0337518,1.32212,-0.0428027,0.587584,0.159424,-0.210918,0,0,3.41384,0
1777223689810,0.0811968,1.32874,0.00961499,0.665798,0.186632,-0.170727,0,0,3.47819,0
1777223689824,0.0463042,1.21081,0.0401334,0.707211,0.16559,-0.185695,0,0,3.40892,0
1777223689837,0.0536502,1.2015,0.0851611,0.73461,0.126821,-0.210254,0,0,3.45566,0
1777223689851,0.0641139,1.15095,0.1064,0.7736,0.0657606,-0.186522,0,0,3.41419,0
1777223689864,0.0538637,1.11828,0.102803,0.769984,0.0292407,-0.13597,0,0,3.45193,0
1777223689878,0.0469589,1.09903,0.0836582,0.72729,0.0296726,-0.0827356,0,0,3.57723,0
1777223689892,0.0770604,1.0733,0.0972776,0.671813,0.0369155,-0.0315799,0,0,3.47301,0
1777223689905,0.106316,1.0539,0.111386,0.627567,0.052455,-0.00638018,0,0,3.38897,0
1777223689919,0.128853,1.03727,0.121095,0.589359,0.0875038,-0.0143245,0,0,3.4706,0
1777223689932,0.150093,1.02216,0.127561,0.554835,0.119179,-0.0356139,0,0,3.38373,0
1777223689946,0.158626,1.01136,0.137197,0.520467,0.136581,-0.0597419,0,0,3.46823,0
1777223689959,0.14879,1.00584,0.141445,0.487399,0.145331,-0.081566,0,0,3.36482,4
1777223689973,0.134459,1.00671,0.147321,0.459118,0.156517,-0.0878826,0,0,3.4241,4
1777223689986,0.120698,1.00715,0.148626,0.441377,0.164833,-0.0750549,0,0,3.40719,4
1777223690000,0.123871,1.00427,0.155261,0.430447,0.165961,-0.0566424,0,0,3.45992,4
1777223690015,0.135312,0.998307,0.157546,0.421734,0.156583,-0.0513496,0,0,4.79336,4
1777223690028,0.13968,0.995892,0.156185,0.412857,0.14588,-0.0602977,0,0,3.44036,4
1777223690046,0.143504,0.995468,0.156162,0.407636,0.139506,-0.0706298,0,0,7.32815,4
1777223690059,0.1438,0.995003,0.152827,0.405103,0.138265,-0.0814027,0,0,3.38192,4
1777223690073,0.14232,0.994954,0.150544,0.40265,0.138783,-0.0946931,0,0,3.46229,4
1777223690086,0.142225,0.995233,0.145987,0.398735,0.134978,-0.107639,0,0,3.43036,4
1777223690100,0.137446,0.99673,0.13978,0.394187,0.125777,-0.117892,0,0,3.46695,4
1777223690113,0.131206,0.999767,0.133939,0.390004,0.114115,-0.122798,0,0,3.38397,4
1777223690127,0.127653,0.999379,0.124558,0.383654,0.0983779,-0.122256,0,0,3.37782,4
1777223690140,0.125824,0.998689,0.115897,0.372854,0.0756839,-0.117885,0,0,3.42453,4
1777223690154,0.125812,0.998186,0.105515,0.359427,0.0511488,-0.11311,0,0,3.35438,4
1777223690167,0.127378,0.999744,0.0962436,0.345629,0.023998,-0.106434,0,0,3.44781,4
1777223690181,0.122882,0.999392,0.088033,0.328979,-0.000243361,-0.0992929,0,0,3.41821,4
1777223690194,0.123579,1.00156,0.0803252,0.31495,-0.0235743,-0.0868917,0,0,3.44771,4
1777223690208,0.119616,1.00541,0.0765608,0.304367,-0.0493908,-0.0742291,0,0,3.37784,4
1777223690221,0.117366,1.01145,0.0732924,0.295484,-0.0745814,-0.0641985,0,0,3.39088,4
1777223690235,0.118243,1.02117,0.073704,0.290855,-0.100535,-0.0530407,0,0,3.40475,4
1777223690248,0.116463,1.02491,0.0709729,0.288741,-0.12369,-0.0444551,0,0,3.33308,4
1777223690262,0.115111,1.02465,0.0660602,0.287678,-0.145633,-0.0389288,0,0,3.42884,4
1777223690275,0.102967,1.02597,0.0608618,0.287073,-0.155495,-0.0366137,0,0,3.33892,4
1777223690289,0.0981167,1.03175,0.0561554,0.290576,-0.157226,-0.0332086,0,0,3.4598,4
1777223690302,0.102045,1.03175,0.0486591,0.295429,-0.159584,-0.0297986,0,0,3.36799,4
1777223690316,0.0992792,1.03429,0.0413141,0.302997,-0.155048,-0.034794,0,0,3.52921,4
1777223690329,0.103151,1.04888,0.0350013,0.321213,-0.139155,-0.0440459,0,0,3.39421,4
1777223690343,0.143639,1.03298,0.0386893,0.322118,-0.139144,-0.0285878,0,0,3.35636,4
1777223690356,0.132207,1.01886,0.0276715,0.340009,-0.135342,-0.0575509,0,0,3.4071,4
1777223690370,0.13367,1.04433,0.0254728,0.360504,-0.127047,-0.090122,0,0,3.3174,4
1777223690383,0.123455,1.06342,0.0268132,0.391679,-0.123265,-0.108041,0,0,3.42397,4
1777223690397,0.107863,1.07877,0.0277839,0.428397,-0.116385,-0.126573,0,0,3.35279,4
1777223690410,0.0865391,1.1004,0.0309752,0.471552,-0.109366,-0.145516,0,0,3.44649,4
1777223690424,0.0652266,1.12304,0.0359015,0.524487,-0.0923854,-0.162764,0,0,3.35429,4
1777223690437,0.0610067,1.14611,0.0396317,0.585024,-0.0760209,-0.175777,0,0,3.36662,4
1777223690451,0.0614287,1.17289,0.0454119,0.654886,-0.0664551,-0.192511,0,0,3.40043,4
1777223690464,0.0602509,1.21667,0.0560926,0.737036,-0.0571604,-0.220095,0,0,3.31903,0
1777223690478,0.0907884,1.25021,0.0657198,0.834401,-0.056565,-0.246441,0,0,3.41045,0
1777223690491,0.115404,1.28133,0.0787432,0.939125,-0.0849237,-0.269629,0,0,3.39984,0
1777223690505,0.141633,1.32465,0.0960021,1.06218,-0.127691,-0.301905,0,0,3.42738,0
1777223690518,0.198701,1.36024,0.123051,1.20347,-0.203992,-0.326638,0,0,3.34562,0
1777223690531,0.254619,1.38081,0.158664,1.34832,-0.321393,-0.345621,0,0,3.34893,0
1777223690545,0.300531,1.42123,0.20789,1.50651,-0.477178,-0.369112,0,0,3.40019,0
1777223690558,0.314783,1.44998,0.280388,1.67076,-0.633463,-0.402695,0,0,3.29732,0
1777223690572,0.309979,1.477,0.346968,1.80918,-0.732466,-0.457589,0,0,3.40721,0
1777223690585,0.300048,1.46385,0.406126,1.92453,-0.764523,-0.527317,0,0,3.40014,0
1777223690599,0.287147,1.43435,0.407236,2.02066,-0.743388,-0.608502,0,0,3.41503,0
1777223690612,0.265298,1.45928,0.277809,2.10077,-0.693116,-0.715698,0,0,3.34868,0
1777223690626,0.24607,1.50499,0.151893,2.16752,-0.633678,-0.84069,0,0,3.35851,0
1777223690639,0.240443,1.43831,0.0599737,2.22315,-0.604095,-0.95401,0,0,3.39021,0
1777223690653,0.221499,1.33239,0.00937909,2.23848,-0.572357,-0.999805,0,0,3.30964,0
1777223690666,0.184429,1.24204,-0.0143769,2.16938,-0.525539,-0.953463,0,0,3.40651,0
1777223690679,0.123322,1.12586,-0.0580372,2.08419,-0.44744,-0.827632,0,0,3.33258,0
1777223690693,0.0479721,1.00729,-0.0933062,1.93863,-0.343859,-0.668523,0,0,3.45369,0
1777223690706,-0.0228211,0.876774,-0.121708,1.7248,-0.225163,-0.537166,0,0,3.35819,0
1777223690720,-0.0835777,0.727747,-0.143182,1.42755,-0.0991241,-0.444356,0,0,3.49471,0
1777223690734,-0.134848,0.59691,-0.147349,1.06709,0.0422821,-0.351747,0,0,3.41255,0
1777223690747,-0.161315,0.485663,-0.14479,0.675657,0.190375,-0.224802,0,0,3.3496,0
1777223690761,-0.152701,0.378201,-0.127287,0.259854,0.320465,-0.0706554,0,0,3.42369,0
1777223690774,-0.11556,0.29349,-0.109259,-0.151063,0.400146,0.0702936,0,0,3.32403,0
1777223690788,-0.0726004,0.225443,-0.0719874,-0.542781,0.410503,0.15999,0,0,3.46136,0
1777223690801,-0.0355912,0.194288,-0.0332574,-0.869213,0.348778,0.197536,0,0,3.35538,0
1777223690815,-0.014365,0.178626,0.0428353,-1.14124,0.239707,0.225033,0,0,3.45208,0
1777223690828,-0.0179091,0.193533,0.104654,-1.36793,0.118013,0.2702,0,0,3.35527,0
1777223690841,-0.0539297,0.175751,0.146038,-1.55684,0.0305451,0.323042,0,0,3.34658,0
1777223690855,-0.0970107,0.18872,0.184638,-1.71426,0.00279518,0.354659,0,0,3.3981,0
1777223690868,-0.1099,0.240163,0.229444,-1.84545,0.0037797,0.369748,0,0,3.3376,0
1777223690882,-0.0676218,0.32044,0.265322,-1.95477,-0.0258833,0.407894,0,0,3.42629,0
1777223690895,-0.0219711,0.426911,0.290327,-2.04587,-0.10115,0.473652,0,0,3.41034,0
1777223690909,-0.0420464,0.527298,0.295565,-2.12179,-0.148134,0.535932,0,0,3.44469,0
1777223690922,-0.077074,0.647368,0.307609,-2.18505,-0.129933,0.594778,0,0,3.35943,0
1777223690936,-0.0780489,0.78279,0.319127,-2.23777,-0.0916492,0.678371,0,0,3.3569,0
1777223690949,-0.0720429,0.93878,0.328838,-2.2817,-0.0496059,0.778528,0,0,3.41458,0
1777223690963,-0.0636111,1.11848,0.326621,-2.31832,0.00663889,0.860936,0,0,3.31832,0
1777223690976,-0.0247624,1.28306,0.299956,-2.34883,0.0395273,0.924813,0,0,3.43329,0
1777223690990,0.00912792,1.44471,0.252773,-2.37425,0.0365654,0.962764,0,0,3.42456,0
1777223691003,0.0205041,1.6097,0.186295,-2.39544,0.03626,0.962736,0,0,3.45906,0
1777223691017,0.0371695,1.75449,0.0936067,-2.41309,0.0262217,0.94088,0,0,3.3559,0
1777223691030,0.0609041,1.85852,-0.0173339,-2.35797,-0.0287338,0.905988,0,0,3.37038,0
1777223691044,0.065908,1.92114,-0.134567,-2.22253,-0.131947,0.854608,0,0,3.3938,0
1777223691057,0.0113786,1.92722,-0.266625,-2.04798,-0.242284,0.788153,0,0,3.31351,0
1777223691071,-0.0938096,1.9214,-0.385431,-1.84054,-0.303952,0.695637,0,0,3.40753,0
1777223691084,-0.170595,1.91104,-0.493279,-1.58198,-0.32141,0.567076,0,0,3.34468,0
1777223691098,-0.19367,1.88754,-0.576427,-1.28957,-0.325107,0.417462,0,0,3.45077,0
1777223691111,-0.18742,1.84274,-0.602098,-0.99266,-0.327691,0.266231,0,0,3.37314,0
1777223691125,-0.164653,1.78284,-0.565867,-0.705309,-0.309615,0.126796,0,0,3.35262,0
1777223691138,-0.136136,1.67798,-0.498539,-0.465721,-0.26015,0.0194543,0,0,3.32155,0
1777223691152,0.0890203,1.59951,-0.16537,-0.281256,-0.22482,0.00861648,0,0,3.44767,0
1777223691165,0.292485,1.64904,0.212753,0.102299,-0.393418,0.049674,0,0,3.39669,0
1777223691179,0.0908011,1.7079,0.0908088,0.304715,-0.325648,-0.103859,0,0,3.40369,0
1777223691192,0.0318655,1.65029,0.104033,0.38426,-0.228689,-0.177949,0,0,3.62708,0
1777223691206,0.137403,1.56968,0.161005,0.473194,-0.124047,-0.0682399,0,0,3.4264,0
1777223691219,0.139018,1.41686,0.151113,0.586822,-0.134276,-0.0300091,0,0,3.4743,0
1777223691233,0.100335,1.38441,0.181999,0.581066,-0.147787,-0.105275,0,0,3.38008,0
1777223691246,0.105258,1.30162,0.203667,0.598713,-0.154199,-0.13049,0,0,3.37343,0
1777223691260,0.0952481,1.26223,0.222867,0.632693,-0.166362,-0.0616931,0,0,3.41869,0
1777223691273,0.088166,1.21892,0.236544,0.662308,-0.146727,0.0163244,0,0,3.34992,0
1777223691287,0.122392,1.16961,0.246199,0.687521,-0.137234,0.0502831,0,0,3.44077,0
1777223691300,0.139015,1.13269,0.253263,0.708494,-0.136499,0.0488746,0,0,3.42477,0
1777223691314,0.152803,1.10237,0.249391,0.726239,-0.102591,0.0472555,0,0,3.48786,0
1777223691328,0.184625,1.07672,0.226082,0.723545,-0.0597804,0.0569877,0,0,3.38714,0
1777223691341,0.205626,1.04676,0.208355,0.688756,-0.0407712,0.0453651,0,0,3.38716,0
1777223691354,0.202658,1.03905,0.19129,0.643302,-0.0131872,0.00435642,0,0,3.41647,0
1777223691368,0.192103,1.03201,0.186673,0.604049,0.0323822,-0.0233544,0,0,3.34103,0
1777223691381,0.195389,1.0238,0.184787,0.575601,0.0746315,-0.0245638,0,0,3.43295,0
1777223691395,0.198854,1.0096,0.181477,0.546334,0.10629,-0.0335614,0,0,3.41636,0
1777223691409,0.197293,0.999743,0.178603,0.511563,0.125343,-0.0647617,0,0,3.45216,0
1777223691422,0.193751,0.991927,0.175819,0.473122,0.122773,-0.0958383,0,0,3.37425,0
1777223691436,0.179737,0.99209,0.177165,0.440146,0.118443,-0.113224,0,0,3.58869,0
1777223691449,0.161843,0.993389,0.174956,0.41488,0.118207,-0.116618,0,0,3.43323,0
1777223691463,0.163036,0.98921,0.17352,0.392209,0.105783,-0.113721,0,0,3.38008,0
1777223691476,0.161884,0.988315,0.175523,0.374729,0.0937376,-0.119882,0,0,3.44603,0
1777223691490,0.160981,0.988825,0.171439,0.365442,0.0878729,-0.132612,0,0,3.34201,0
1777223691503,0.165763,0.990008,0.167475,0.360706,0.0857338,-0.146795,0,0,3.46877,0
1777223691517,0.16837,0.988526,0.163004,0.361555,0.0891039,-0.165408,0,0,3.38556,0
1777223691530,0.167834,0.989588,0.156484,0.364884,0.0921285,-0.188005,0,0,3.47001,0
1777223691544,0.159648,0.989319,0.14841,0.367187,0.0936949,-0.208503,0,0,3.3879,0
1777223691557,0.144948,0.991756,0.141626,0.368877,0.0940715,-0.220712,0,0,3.44714,0
1777223691571,0.132829,0.991877,0.132293,0.368835,0.0931766,-0.224754,0,0,3.44158,0
1777223691584,0.124881,0.995103,0.12345,0.367324,0.0877362,-0.225577,0,0,3.33643,0
1777223691598,0.122548,0.993625,0.115483,0.359564,0.0764469,-0.226149,0,0,3.44823,0
1777223691611,0.120008,0.99395,0.104318,0.349586,0.0604487,-0.22473,0,0,3.39364,0
1777223691625,0.11169,0.995037,0.0955907,0.337937,0.0427149,-0.219056,0,0,3.45306,0
1777223691639,0.10421,0.999133,0.0884635,0.328917,0.0305703,-0.211338,0,0,3.38806,0
1777223691652,0.0953682,1.00356,0.0811816,0.321591,0.0258824,-0.200466,0,0,3.39021,0
1777223691666,0.0856966,1.00673,0.0743123,0.316415,0.0276373,-0.184027,0,0,3.43958,0
1777223691679,0.0805165,1.00983,0.0685091,0.315817,0.0307792,-0.164336,0,0,3.33784,0
1777223691693,0.0735419,1.01854,0.0672669,0.320025,0.0320743,-0.148638,0,0,3.5079,0
1777223691706,0.0680976,1.02491,0.0621347,0.322515,0.0427337,-0.139998,0,0,3.43338,0
1777223691720,0.066427,1.03102,0.0577753,0.326523,0.0491992,-0.129553,0,0,3.44547,0
1777223691733,0.0669712,1.03601,0.0532827,0.335576,0.0507576,-0.119373,0,0,3.37458,0
1777223691747,0.06413,1.04101,0.0516984,0.345677,0.0447535,-0.115533,0,0,3.35986,4
1777223691760,0.0457061,1.05645,0.0500011,0.361601,0.0431215,-0.116252,0,0,3.29919,4
1777223691773,0.0652596,1.10692,0.0455677,0.397098,0.0460237,-0.111648,0,0,3.30367,4
1777223691787,0.0292499,0.908136,0.0197776,0.426996,0.0589001,-0.122366,0,0,3.31055,4
1777223691800,0.0507145,0.992402,0.037729,0.478845,0.0393888,-0.130941,0,0,3.38925,4
1777223691814,0.0402032,1.02281,0.0451111,0.492651,0.0367934,-0.138748,0,0,3.34866,4
1777223691827,0.0247714,1.02952,0.0436706,0.533723,0.0377604,-0.148588,0,0,3.29399,4
1777223691841,0.0147512,1.06147,0.0457015,0.580215,0.0421795,-0.160706,0,0,3.30273,4
1777223691854,0.0124535,1.09603,0.0478507,0.635039,0.0501878,-0.173515,0,0,3.30095,4
1777223691867,0.0165068,1.12787,0.0498777,0.70042,0.0532862,-0.188209,0,0,3.31793,4
1777223691881,0.0287444,1.16072,0.0545973,0.773824,0.0462754,-0.208431,0,0,3.31029,4
1777223691894,0.0513694,1.18996,0.0598531,0.856125,0.0233847,-0.231453,0,0,3.29699,4
1777223691908,0.0678281,1.23718,0.0748399,0.952305,-0.0318104,-0.25214,0,0,3.40177,4
1777223691921,0.0983002,1.29594,0.1013,1.07417,-0.101763,-0.276313,0,0,3.31062,4
1777223691934,0.148081,1.33953,0.137785,1.20992,-0.215273,-0.291953,0,0,3.32484,4
1777223691948,0.204589,1.41028,0.18381,1.36814,-0.365896,-0.310444,0,0,3.29867,4
1777223691961,0.257061,1.47863,0.265272,1.55487,-0.532241,-0.339314,0,0,3.33373,4
1777223691975,0.297053,1.54215,0.357651,1.71261,-0.67155,-0.397329,0,0,3.29669,4
1777223691988,0.326563,1.55626,0.448248,1.84406,-0.772653,-0.486464,0,0,3.29523,4
1777223692001,0.348742,1.48302,0.526585,1.9536,-0.8373,-0.589776,0,0,3.37619,4
1777223692015,0.307226,1.45186,0.53328,2.04488,-0.843997,-0.711823,0,0,3.30736,4
1777223692028,0.247986,1.50357,0.383254,2.12095,-0.77833,-0.869535,0,0,3.33256,4
1777223692042,0.213152,1.57285,0.263293,2.18434,-0.6481,-1.02381,0,0,3.30947,4
1777223692055,0.232195,1.48201,0.190699,2.23717,-0.554511,-1.13657,0,0,3.33821,4
1777223692068,0.25748,1.37761,0.150063,2.26842,-0.500197,-1.18125,0,0,3.29556,4
1777223692082,0.249899,1.22992,0.0997259,2.24032,-0.431601,-1.13015,0,0,3.2916,4
1777223692095,0.189494,1.05112,0.0281612,2.11705,-0.331271,-1.00266,0,0,3.31912,4
1777223692109,0.0989259,0.888253,-0.0349384,1.88659,-0.176975,-0.87639,0,0,3.39625,4
1777223692122,0.0280778,0.708888,-0.084286,1.53843,0.00735533,-0.77348,0,0,3.36401,4
1777223692136,0.00571843,0.554316,-0.103517,1.09677,0.168725,-0.653969,0,0,3.31108,4
1777223692149,0.00834289,0.4205,-0.127485,0.586556,0.293772,-0.486742,0,0,3.34086,4
1777223692162,0.0133883,0.321303,-0.103962,0.0719013,0.387215,-0.29025,0,0,3.30729,4
1777223692176,0.0481709,0.249623,-0.0808358,-0.356978,0.431788,-0.0999663,0,0,3.30636,4
1777223692189,0.0883753,0.199807,-0.0428057,-0.714377,0.410536,0.060308,0,0,3.31853,5
1777223692203,0.122445,0.218099,0.00938712,-1.01221,0.331299,0.182954,0,0,3.39797,5
1777223692216,0.137163,0.268276,0.122552,-1.2604,0.217011,0.273327,0,0,3.37832,5
1777223692230,0.155699,0.273878,0.135196,-1.46723,0.0723186,0.365062,0,0,3.30349,5
1777223692243,0.164297,0.246378,0.135011,-1.63959,-0.0675971,0.479549,0,0,3.31317,5
1777223692256,0.131902,0.29093,0.154281,-1.78322,-0.169753,0.570579,0,0,3.30167,5
1777223692270,0.106767,0.347403,0.170852,-1.90291,-0.22627,0.629299,0,0,3.30306,5
1777223692283,0.145427,0.453731,0.187651,-2.00266,-0.316396,0.689492,0,0,3.31034,0
1777223692297,0.14354,0.53009,0.182001,-2.08578,-0.418141,0.757503,0,0,3.45408,0
1777223692310,0.0888822,0.634447,0.18353,-2.15504,-0.454647,0.821647,0,0,3.41519,0
1777223692324,0.0453844,0.745834,0.187206,-2.21276,-0.43232,0.912059,0,0,3.45579,0
1777223692337,0.0164013,0.867026,0.19117,-2.26087,-0.376259,1.04557,0,0,3.43334,0
1777223692351,-0.00390473,1.00503,0.195319,-2.30095,-0.284987,1.18183,0,0,3.38869,0
1777223692364,-0.00139555,1.14007,0.19223,-2.33435,-0.1888,1.28789,0,0,3.45518,0
1777223692378,0.00679905,1.2678,0.184497,-2.36219,-0.112397,1.36428,0,0,3.40692,0
1777223692392,-0.00384486,1.39961,0.1736,-2.38539,-0.0425825,1.41281,0,0,3.44162,0
1777223692405,-0.0310379,1.52312,0.156322,-2.40472,0.0480133,1.42734,0,0,3.51369,0
1777223692419,-0.0466047,1.65046,0.120956,-2.38359,0.153981,1.40133,0,0,3.42058,0
1777223692432,-0.0187154,1.75115,0.0601056,-2.28906,0.229742,1.35098,0,0,3.39525,0
1777223692446,0.0174987,1.81113,-0.0469352,-2.12495,0.221312,1.29299,0,0,3.46386,0
1777223692459,-0.0210001,1.83032,-0.181468,-1.94214,0.185266,1.20082,0,0,3.43429,0
1777223692473,-0.0915517,1.83637,-0.302231,-1.72928,0.142149,1.06889,0,0,3.45173,0
1777223692486,-0.19183,1.83152,-0.413385,-1.46362,0.123076,0.900484,0,0,3.33495,0
1777223692500,-0.266316,1.81119,-0.507448,-1.16868,0.14124,0.710505,0,0,3.43006,0
1777223692513,-0.286525,1.78315,-0.57319,-0.863494,0.159494,0.523792,0,0,3.42805,0
1777223692527,-0.284286,1.7634,-0.597583,-0.561601,0.17267,0.344267,0,0,3.47292,0
1777223692541,-0.215328,1.70395,-0.541839,-0.262429,0.192085,0.194599,0,0,3.40899,0
1777223692554,0.340128,1.81722,0.0566432,0.0910168,0.0293075,0.211517,0,0,3.42295,0
1777223692568,0.0507082,1.11773,-0.174156,0.421674,-0.131773,0.00537365,0,0,3.43851,0
1777223692581,-0.0769709,1.47332,-0.332782,0.548851,-0.192368,-0.325382,0,0,3.35434,0
1777223692595,-0.10775,1.176,-0.221499,0.52492,-0.0596579,-0.373976,0,0,3.43806,0
1777223692608,0.0251292,1.26319,-0.17185,0.72181,-0.0241805,-0.237868,0,0,3.42805,0
1777223692622,-0.0556834,1.13807,-0.107703,0.741814,0.00324649,-0.201926,0,0,3.45953,0
1777223692635,-0.0666513,1.12232,-0.0298753,0.777682,0.0582525,-0.250434,0,0,3.38305,0
1777223692649,-0.010898,1.09851,0.0115092,0.836796,0.0736328,-0.227207,0,0,3.49475,0
1777223692662,0.0071386,1.07099,0.0205448,0.893717,0.0637907,-0.148894,0,0,3.42682,0
1777223692676,0.0363104,1.0542,0.0110493,0.896214,0.0735151,-0.103047,0,0,3.47843,0
1777223692689,0.0509572,1.02757,0.0113949,0.830904,0.0845705,-0.0934938,0,0,3.47634,0
1777223692703,0.0507088,1.03046,0.0382043,0.779621,0.140819,-0.0853797,0,0,3.44867,0
1777223692717,0.0812491,1.01844,0.0499635,0.736885,0.210415,-0.054852,0,0,3.46884,0
1777223692730,0.125749,1.00185,0.0570846,0.697442,0.252305,-0.0397558,0,0,3.38375,0
1777223692744,0.154218,0.989642,0.0671923,0.644192,0.26514,-0.075967,0,0,3.49175,0
1777223692757,0.164459,0.982385,0.0749707,0.591737,0.257349,-0.131041,0,0,3.49642,0
1777223692771,0.155946,0.982711,0.0823998,0.543763,0.238097,-0.157216,0,0,3.40201,0
1777223692784,0.141702,0.985343,0.0896863,0.505961,0.218045,-0.156917,0,0,3.43762,0
1777223692798,0.130718,0.986438,0.0948867,0.471748,0.193701,-0.153525,0,0,3.36479,0
1777223692811,0.119445,0.988322,0.103101,0.440503,0.174039,-0.160965,0,0,3.4438,0
1777223692825,0.12008,0.983748,0.105923,0.41164,0.163989,-0.17826,0,0,3.35669,0
1777223692838,0.113908,0.985375,0.105316,0.390057,0.164177,-0.186629,0,0,3.47382,0
1777223692852,0.111348,0.986273,0.102505,0.374398,0.171458,-0.183628,0,0,3.40094,0
1777223692866,0.110927,0.985347,0.0994533,0.358347,0.18021,-0.18637,0,0,3.60132,4
1777223692879,0.109146,0.983031,0.0941655,0.339119,0.180175,-0.190524,0,0,3.42793,4
1777223692893,0.100008,0.985814,0.0915371,0.322574,0.170375,-0.184356,0,0,3.38355,4
1777223692907,0.0900464,0.988906,0.0910887,0.307246,0.160236,-0.171365,0,0,3.77008,4
1777223692920,0.0828132,0.989274,0.090056,0.294079,0.146978,-0.157741,0,0,3.34806,4
1777223692934,0.0792035,0.991653,0.0870361,0.283018,0.135662,-0.147087,0,0,3.46716,4
1777223692947,0.0772598,0.992174,0.0844141,0.273456,0.129871,-0.138246,0,0,3.39567,4
1777223692961,0.0786607,0.990921,0.0788562,0.266074,0.133926,-0.132864,0,0,3.37153,4
1777223692974,0.0833836,0.990895,0.0719395,0.261181,0.137292,-0.13343,0,0,3.46629,4
1777223692988,0.0807926,0.989778,0.0667707,0.253045,0.13955,-0.140403,0,0,3.43421,4
1777223693001,0.0764518,0.990031,0.062669,0.24638,0.146609,-0.145629,0,0,3.34793,4
1777223693015,0.070817,0.992342,0.0609095,0.240686,0.150546,-0.148316,0,0,3.45118,4
1777223693028,0.0610026,0.995507,0.0599609,0.234121,0.151244,-0.150696,0,0,3.42192,4
1777223693042,0.052964,1.00002,0.0580113,0.229388,0.146609,-0.147667,0,0,3.46771,4
1777223693055,0.0419954,1.00295,0.0572516,0.222735,0.141474,-0.144023,0,0,3.44327,4
1777223693069,0.0397752,1.0108,0.0533749,0.219709,0.132056,-0.140566,0,0,3.47029,4
1777223693082,0.0378797,1.01729,0.0512637,0.220317,0.114563,-0.13654,0,0,3.40597,4
1777223693096,0.0389363,1.02238,0.0481438,0.221002,0.0888534,-0.138173,0,0,3.43236,4
1777223693110,0.0328404,1.03374,0.0482018,0.226764,0.0652277,-0.138948,0,0,3.75994,4
1777223693123,0.0259713,1.04603,0.0476409,0.238474,0.0508958,-0.136808,0,0,3.43284,4
1777223693137,0.029691,1.05814,0.0474113,0.255051,0.0356193,-0.136513,0,0,3.36867,4
1777223693150,0.026068,1.072,0.0459251,0.27809,0.02481,-0.141534,0,0,3.47927,4
1777223693164,0.0240485,1.07229,0.0436052,0.306309,0.014848,-0.151724,0,0,3.36386,4
1777223693178,0.011775,1.08233,0.0460951,0.351263,0.00430718,-0.185851,0,0,3.4646,4
1777223693191,-0.0590097,0.839554,0.0457474,0.334258,0.0119608,-0.23709,0,0,3.37099,4
1777223693204,-0.0497217,0.900557,0.0629469,0.419414,0.0195857,-0.22045,0,0,3.36538,4
1777223693218,-0.0551374,0.975398,0.0580301,0.454791,0.0444512,-0.227258,0,0,3.64805,4
1777223693232,-0.0405688,0.999841,0.053343,0.505176,0.0524879,-0.26026,0,0,3.32527,4
1777223693245,-0.0496679,1.04432,0.0592789,0.565026,0.0606992,-0.286234,0,0,3.43338,4
1777223693259,-0.0578896,1.08812,0.0655586,0.630804,0.0724911,-0.304279,0,0,3.35762,4
1777223693272,-0.0584972,1.1478,0.0746139,0.713736,0.0888189,-0.330894,0,0,3.45027,4
1777223693286,-0.0266279,1.18707,0.0869801,0.803991,0.0809878,-0.359168,0,0,3.3673,4
1777223693300,0.0030042,1.24523,0.109556,0.911278,0.0291819,-0.391215,0,0,4.73188,4
1777223693314,0.0416645,1.30264,0.138486,1.03792,-0.0511525,-0.423659,0,0,3.42186,4
1777223693328,0.0837559,1.35091,0.179369,1.18322,-0.16264,-0.451255,0,0,3.90714,4
1777223693342,0.118435,1.41019,0.232783,1.35306,-0.284732,-0.473069,0,0,3.43832,4
1777223693355,0.145906,1.45301,0.300714,1.53639,-0.379681,-0.508575,0,0,3.36534,4
1777223693369,0.192598,1.48143,0.375393,1.69721,-0.441006,-0.570721,0,0,3.41755,4
1777223693382,0.244784,1.4538,0.427491,1.83123,-0.496106,-0.646186,0,0,3.38403,4
1777223693396,0.252292,1.40046,0.433957,1.9429,-0.53748,-0.722089,0,0,3.43403,4
1777223693409,0.200741,1.38833,0.348398,2.03597,-0.526844,-0.815201,0,0,3.37342,4
1777223693423,0.127125,1.47347,0.223571,2.11352,-0.43396,-0.941726,0,0,3.42679,4
1777223693436,0.102266,1.44881,0.177445,2.17815,-0.287575,-1.06779,0,0,3.42282,4
1777223693450,0.114495,1.33064,0.107575,2.23201,-0.16116,-1.13635,0,0,3.66849,4
1777223693464,0.143225,1.18492,0.0473295,2.17318,-0.0786256,-1.09446,0,0,3.42919,4
1777223693477,0.117467,1.02473,-0.0318723,2.00196,-0.00169185,-0.981901,0,0,3.35942,4
1777223693491,0.0575589,0.896224,-0.0838438,1.79284,0.103094,-0.843416,0,0,3.43477,4
1777223693504,0.0163227,0.753513,-0.116259,1.45528,0.205034,-0.683648,0,0,3.39468,4
1777223693518,0.0145578,0.648911,-0.133336,1.05363,0.280034,-0.512264,0,0,3.49666,4
1777223693531,0.020425,0.556195,-0.141406,0.659459,0.328362,-0.33279,0,0,3.38775,4
1777223693545,0.0209828,0.459417,-0.142494,0.236025,0.351091,-0.152172,0,0,3.84571,4
1777223693559,0.00695778,0.402159,-0.121014,-0.187562,0.359993,0.0107597,0,0,3.4308,4
1777223693572,-0.00599122,0.381883,-0.060317,-0.550602,0.373709,0.144475,0,0,3.34027,4
1777223693586,0.0255864,0.361352,-0.00359679,-0.838224,0.363994,0.252902,0,0,3.46019,4
1777223693599,0.093346,0.315504,0.0117726,-1.09404,0.26058,0.355001,0,0,3.37114,4
1777223693613,0.113699,0.28046,0.028173,-1.3286,0.111171,0.437768,0,0,3.37443,4
1777223693626,0.0853656,0.281593,0.0580154,-1.52406,-0.0201441,0.488102,0,0,3.38316,0
1777223693640,0.0660415,0.306352,0.0857591,-1.68695,-0.137855,0.52992,0,0,3.42019,0
1777223693653,0.0616499,0.344835,0.112903,-1.82268,-0.258289,0.590315,0,0,3.31179,0
1777223693667,0.0503732,0.408038,0.142422,-1.9358,-0.372009,0.652896,0,0,3.29905,0
1777223693680,0.0176764,0.48511,0.156502,-2.03006,-0.448341,0.699347,0,0,3.32292,0
1777223693693,-0.0232265,0.56911,0.157208,-2.10861,-0.48031,0.740219,0,0,3.29592,0
1777223693707,-0.0729271,0.661568,0.153286,-2.17407,-0.461098,0.796099,0,0,3.33827,0
1777223693720,-0.120389,0.78373,0.152422,-2.22862,-0.384846,0.872054,0,0,3.38871,0
1777223693734,-0.153458,0.899832,0.139253,-2.27408,-0.260069,0.960592,0,0,3.3829,0
1777223693747,-0.162416,1.01106,0.123027,-2.31196,-0.103022,1.05365,0,0,3.30347,0
1777223693761,-0.15282,1.12397,0.107683,-2.34353,0.0697973,1.147,0,0,3.68944,0
1777223693774,-0.136414,1.23873,0.085515,-2.36984,0.242694,1.23587,0,0,3.30866,0
1777223693788,-0.129023,1.3449,0.0603804,-2.39176,0.405362,1.30652,0,0,3.30034,0
1777223693801,-0.135892,1.44168,0.0317054,-2.38303,0.571237,1.34926,0,0,3.33243,0
1777223693815,-0.138028,1.52372,-0.00139478,-2.34337,0.750738,1.36068,0,0,3.30536,0
1777223693828,-0.0871854,1.59726,-0.0335433,-2.26676,0.909101,1.3402,0,0,3.42425,0
1777223693841,0.0254185,1.64222,-0.0748711,-2.1524,0.972253,1.30005,0,0,3.31973,0
1777223693855,0.160181,1.67142,-0.147943,-1.9998,0.894041,1.25043,0,0,3.36386,0
1777223693868,0.211105,1.68727,-0.234003,-1.82826,0.736141,1.16698,0,0,3.30349,0
1777223693882,0.184799,1.69181,-0.309269,-1.63538,0.570092,1.04104,0,0,3.29364,0
1777223693895,0.117145,1.68159,-0.371013,-1.42087,0.421565,0.898853,0,0,3.33582,0
1777223693909,0.0266518,1.67236,-0.416321,-1.18326,0.332666,0.750851,0,0,3.30819,0
1777223693922,-0.0349298,1.6548,-0.445654,-0.923923,0.301064,0.607375,0,0,3.43123,0
1777223693935,-0.0672599,1.61822,-0.45185,-0.665903,0.299131,0.480332,0,0,3.32062,0
1777223693949,-0.0861607,1.57494,-0.429884,-0.419028,0.327011,0.36959,0,0,3.37749,0
1777223693962,-0.0813378,1.52504,-0.379445,-0.191544,0.371466,0.291846,0,0,3.30997,0
1777223693976,0.0145706,1.48034,-0.123225,-0.00988709,0.39916,0.275444,0,0,3.56386,0
1777223693989,0.106141,1.419,0.17728,0.253682,0.357316,0.267552,0,0,3.32529,0
1777223694003,0.0377201,1.39651,0.137673,0.446452,0.420193,0.188495,0,0,3.31086,0
1777223694016,0.0125459,1.41153,0.04618,0.599219,0.433736,0.120565,0,0,3.34342,0
1777223694030,0.0675145,1.3148,0.0939176,0.676563,0.427185,0.122634,0,0,3.40936,0
1777223694043,0.110478,1.26151,0.120115,0.747899,0.370923,0.110541,0,0,3.40103,0
1777223694057,0.0796091,1.20794,0.131183,0.772168,0.29965,0.0312266,0,0,3.31086,0
1777223694070,0.0766146,1.17182,0.157714,0.779364,0.238856,-0.0141686,0,0,3.67253,0
1777223694084,0.0744008,1.14332,0.174121,0.810182,0.18322,0.00923606,0,0,3.30773,0
1777223694097,0.0623125,1.11057,0.186758,0.834121,0.144668,0.042315,0,0,3.30395,0
1777223694111,0.085372,1.07982,0.170867,0.826323,0.116778,0.0575526,0,0,3.34143,0
1777223694124,0.101018,1.05428,0.155686,0.784137,0.0814752,0.056103,0,0,3.44408,4
1777223694138,0.103213,1.0468,0.156339,0.740063,0.0694354,0.0490299,0,0,3.43245,4
1777223694151,0.107017,1.03266,0.151309,0.697432,0.0774175,0.0531356,0,0,3.49718,4
1777223694165,0.11315,1.01761,0.147778,0.647694,0.0943619,0.0565188,0,0,3.97332,4
1777223694179,0.114969,1.00811,0.148476,0.596234,0.119844,0.0481804,0,0,3.49477,4
1777223694193,0.119991,1.00331,0.146283,0.550106,0.145455,0.0377331,0,0,3.86825,4
1777223694206,0.125026,0.997793,0.148176,0.506933,0.159686,0.0323094,0,0,3.50627,4
1777223694220,0.116755,0.994609,0.146955,0.465701,0.167817,0.0258558,0,0,3.49256,4
1777223694234,0.114528,0.995577,0.148373,0.428809,0.177061,0.0204905,0,0,3.49103,4
1777223694247,0.113398,0.994777,0.146709,0.3993,0.18222,0.0197726,0,0,3.42344,4
1777223694261,0.117082,0.99273,0.146969,0.36728,0.179191,0.019467,0,0,3.57168,4
1777223694274,0.121439,0.987318,0.145489,0.339158,0.167939,0.0139579,0,0,3.4434,4
1777223694289,0.128472,0.985611,0.144173,0.313586,0.143932,0.00401069,0,0,4.03897,4
1777223694302,0.132003,0.983743,0.142386,0.291411,0.115783,-0.0118232,0,0,3.47427,4
