timestamp,ax,ay,az,gx,gy,gz,roll_k,pitch_k,delay_ms,arquivo_id,arquivo_nome,Fase,tem_rotulo_real,tempo_s,roll,acc_norm,gyro_norm,d_ax,dd_ax,d_ay,dd_ay,d_az,dd_az,d_gx,dd_gx,d_gy,dd_gy,d_gz,dd_gz,d_roll,dd_roll,d_pitch_k,dd_pitch_k,d_acc_norm,dd_acc_norm,d_gyro_norm,dd_gyro_norm,jerk_acc,jerk_gyro,classe_prevista,classe_prevista_nome,confianca_prevista
1777151627440,0.054796,0.713795,0.1369,0.0216794,-0.2143,0.183969,0,-3.923118114658038,3.36915,999,log_newX1.csv,0,False,0.0,72.01298373785833,0.7288672812254642,0.28326503374994944,0.0,0.0,0.0,0.0,0.0,0.0,0.0,0.0,0.0,0.0,0.0,0.0,0.0,0.0,0.0,0.0,0.0,0.0,0.0,0.0,0.0,0.0,5,Swing,1.0
1777151627454,0.0702628,0.889642,0.175378,0.00412214,-0.0843225,0.0712786,0,-4.178235609429197,3.28485,999,log_newX1.csv,0,False,0.014,75.44738753644867,0.9094818261580822,0.11048943326123814,0.015466800000000003,0.015466800000000003,0.1758470000000001,0.1758470000000001,0.03847800000000001,0.03847800000000001,-0.01755726,-0.01755726,0.1299775,0.1299775,-0.1126904,-0.1126904,3.4344037985903384,3.4344037985903384,-0.25511749477115897,-0.25511749477115897,0.18061454493261797,0.18061454493261797,-0.1727756004887113,-0.1727756004887113,0.18061454493261797,-0.1727756004887113,5,Swing,1.0
1777151627467,0.0769252,0.940024,0.182446,-0.00145402,-0.0347692,0.0368884,0,-4.334149935337484,3.27414,999,log_newX1.csv,0,False,0.027,76.78913123898656,0.9606503785910043,0.05071257730938549,0.006662399999999999,-0.008804400000000004,0.05038199999999993,-0.12546500000000016,0.007067999999999991,-0.03141000000000002,-0.00557616,0.011981100000000001,0.049553299999999995,-0.0804242,-0.034390199999999996,0.0783002,1.341743702537883,-2.0926600960524553,-0.15591432590828713,0.09920316886287184,0.051168552432922176,-0.1294459924996958,-0.05977685595185265,0.11299874453685865,0.051168552432922176,-0.05977685595185265,5,Swing,1.0
1777151627481,0.0822093,0.957519,0.183556,-0.00536849,-0.0174282,0.0233338,0,-4.490775522668253,3.31777,999,log_newX1.csv,0,False,0.041,77.54983321449484,0.9784139254443847,0.029614676472318587,0.0052841,-0.001378299999999999,0.01749500000000004,-0.03288699999999989,0.0011099999999999999,-0.005957999999999991,-0.00391447,0.0016616900000000004,0.017341,-0.0322123,-0.013554600000000003,0.020835599999999992,0.7607019755082831,-0.5810417270296,-0.15662558733076892,-0.0007112614224817904,0.01776354685338033,-0.03340500557954185,-0.021097900837066905,0.038678955114785744,0.01776354685338033,-0.021097900837066905,5,Swing,1.0
1777151627494,0.0814263,0.9653,0.183913,-0.00525869,-0.0127428,0.0187256,0,-4.56386524106695,3.30507,999,log_newX1.csv,0,False,0.054,78.04380846754138,0.9860316039056203,0.02325254540294675,-0.0007830000000000059,-0.006067100000000006,0.007781000000000038,-0.009714,0.0003569999999999962,-0.0007530000000000037,0.00010980000000000018,0.00402427,0.004685400000000001,-0.012655599999999998,-0.0046082,0.008946400000000004,0.49397525304654266,-0.26672672246174045,-0.07308971839869738,0.08353586893207154,0.007617678461235622,-0.010145868392144708,-0.006362131069371838,0.014735769767695066,0.007617678461235622,-0.006362131069371838,5,Swing,1.0
1777151627508,0.081671,0.96615,0.176081,-0.00833053,-0.0156711,0.0166353,0,-4.6178766323089,3.57864,999,log_newX1.csv,0,False,0.068,78.50628038221886,0.9854544602882468,0.024325178547770207,0.00024470000000000047,0.0010277000000000064,0.0008499999999999064,-0.0069310000000001315,-0.007832000000000006,-0.008189000000000002,-0.0030718399999999993,-0.0031816399999999995,-0.0029283,-0.007613700000000001,-0.0020903,0.0025179,0.4624719146774794,-0.03150333836906327,-0.05401139124194998,0.0190783271567474,-0.0005771436173734878,-0.00819482207860911,0.0010726331448234587,0.007434764214195297,-0.0005771436173734878,0.0010726331448234587,5,Swing,0.5244514494565643
1777151627522,0.0747964,0.970727,0.185645,-0.00799415,-0.015044,0.013195,0,-4.537398220404155,3.26648,999,log_newX1.csv,0,False,0.082,78.69141136114848,0.9911455372481682,0.021548466191877787,-0.006874599999999995,-0.007119299999999995,0.004577000000000053,0.003727000000000147,0.009564000000000017,0.017396000000000023,0.00033637999999999897,0.0034082199999999983,0.0006271000000000002,0.0035554000000000002,-0.0034402999999999986,-0.0013499999999999988,0.18513097892962094,-0.27734093574785845,0.08047841190474525,0.13448980314669523,0.005691076959921437,0.006268220577294925,-0.0027767123558924203,-0.003849345500715879,0.005691076959921437,-0.0027767123558924203,5,Swing,0.5244514494565643
1777151627535,0.0750669,0.969387,0.184751,-0.00560112,-0.0132476,0.00980502,0,-4.486041547210745,3.28211,999,log_newX1.csv,0,False,0.095,78.83345109710692,0.9896863782257539,0.017407178640285164,0.00027050000000000685,0.0071451000000000015,-0.0013400000000000079,-0.005917000000000061,-0.0008940000000000059,-0.010458000000000023,0.00239303,0.002056650000000001,0.0017964,0.0011692999999999999,-0.0033899800000000008,5.03199999999978e-05,0.14203973595843422,-0.043091242971186716,0.05135667319340964,-0.02912173871133561,-0.0014591590224143358,-0.007150235982335773,-0.004141287551592623,-0.0013645751957002024,-0.0014591590224143358,-0.004141287551592623,5,Swing,0.5244514494565643
1777151627549,0.0814451,0.96763,0.186946,-0.00775364,-0.0146845,0.0107276,0,-4.550896516806151,3.2639,999,log_newX1.csv,0,False,0.109,78.89653783223903,0.988883172134105,0.01976954413383374,0.0063782000000000005,0.006107699999999994,-0.0017570000000000086,-0.0004170000000000007,0.0021950000000000025,0.0030890000000000084,-0.0021525199999999998,-0.00454555,-0.0014368999999999996,-0.0032332999999999997,0.000922580000000001,0.004312560000000002,0.06308673513211716,-0.07895300082631707,-0.06485496959540527,-0.1162116427888149,-0.0008032060916488559,0.0006559529307654799,0.0023623654935485752,0.006503653045141198,-0.0008032060916488559,0.0023623654935485752,5,Swing,0.5244514494565643
1777151627562,0.0753859,0.96392,0.188977,-0.00683024,-0.0110816,0.00796617,0,-4.50688638362779,3.74155,999,log_newX1.csv,0,False,0.122,78.89959771866467,0.9851584171329045,0.015261517011309851,-0.006059200000000001,-0.012437400000000001,-0.003709999999999991,-0.0019529999999999825,0.002031000000000005,-0.00016399999999999748,0.0009234000000000004,0.00307592,0.003602899999999999,0.005039799999999999,-0.0027614300000000005,-0.0036840100000000015,0.0030598864256319303,-0.060026848706485225,0.04401013317836089,0.10886510277376615,-0.003724755001200508,-0.0029215489095516523,-0.004508027122523888,-0.006870392616072463,-0.003724755001200508,-0.004508027122523888,5,Swing,0.5244514494565643
1777151627576,0.0837,0.965374,0.189134,-0.00680777,-0.00899781,0.00747755,0,-4.6033768487109805,3.57055,999,log_newX1.csv,0,False,0.136,78.90380495175054,0.9872812769580915,0.01353588087903776,0.008314099999999991,0.014373299999999992,0.0014539999999999553,0.005163999999999946,0.00015699999999999048,-0.0018740000000000145,2.246999999999926e-05,-0.0009009300000000012,0.0020837900000000003,-0.0015191099999999989,-0.0004886199999999995,0.002272810000000001,0.00420723308587867,0.0011473466602467397,-0.09649046508319081,-0.1405005982615517,0.0021228598251870068,0.005847614826387515,-0.0017256361322720917,0.0027823909902517964,0.0021228598251870068,-0.0017256361322720917,5,Swing,0.4129593333486376
1777151627590,0.0812439,0.963193,0.184715,-0.00731816,-0.0113628,0.00738528,0,-4.639115297555532,3.55287,999,log_newX1.csv,0,False,0.15,78.96876645201286,0.9841041396931576,0.015401657388216373,-0.0024561000000000027,-0.010770199999999994,-0.0021809999999999885,-0.003634999999999944,-0.004419000000000006,-0.004575999999999997,-0.0005103899999999995,-0.0005328599999999987,-0.002364989999999999,-0.004448779999999999,-9.22700000000002e-05,0.0003963499999999993,0.06496150026231362,0.06075426717643495,-0.03573844884455113,0.06075201623863968,-0.00317713726493396,-0.005299997090120967,0.0018657765091786137,0.0035914126414507055,-0.00317713726493396,0.0018657765091786137,5,Swing,0.4129593333486376
1777151627604,0.0786323,0.969114,0.181306,-0.00774899,-0.0152384,0.00536855,0,-4.617715320157109,3.55366,999,log_newX1.csv,0,False,0.164,79.0862461684776,0.9890585671411426,0.017918621868955213,-0.0026115999999999917,-0.00015549999999998898,0.005921000000000065,0.008102000000000054,-0.0034089999999999954,0.0010100000000000109,-0.0004308300000000001,7.955999999999935e-05,-0.0038756,-0.0015106100000000008,-0.0020167300000000004,-0.0019244600000000002,0.11747971646474298,0.05251821620242936,0.021399977398422365,0.057138426242973495,0.0049544274479850214,0.008131564712918982,0.0025169644807388394,0.0006511879715602256,0.0049544274479850214,0.0025169644807388394,5,Swing,0.4129593333486376
1777151627617,0.0749772,0.963073,0.186499,-0.00706435,-0.0157279,0.00558896,0,-4.5509714133660095,3.42179,999,log_newX1.csv,0,False,0.177,79.07383772170617,0.9838257268692662,0.018124799397899554,-0.0036551000000000083,-0.0010435000000000166,-0.006041000000000074,-0.01196200000000014,0.005193000000000003,0.008601999999999999,0.0006846400000000002,0.0011154700000000004,-0.0004895000000000004,0.0033860999999999995,0.00022040999999999988,0.0022371400000000003,-0.012408446771431159,-0.12988816323617414,0.06674390679109976,0.045343929392677396,-0.005232840271876427,-0.010187267719861448,0.00020617752894434155,-0.002310786951794498,-0.005232840271876427,0.00020617752894434155,5,Swing,0.4129593333486376
1777151627631,0.0728073,0.965267,0.182046,-0.00685002,-0.0153016,0.00822078,0,-4.4666856583029935,3.92813,999,log_newX1.csv,0,False,0.191,79.14026096755951,0.9849781877474698,0.018671983300356715,-0.0021698999999999885,0.0014852000000000198,0.0021940000000000293,0.008235000000000103,-0.004452999999999985,-0.009645999999999988,0.00021432999999999956,-0.0004703100000000007,0.00042629999999999925,0.0009157999999999996,0.002631820000000001,0.002411410000000001,0.06642324585334336,0.07883169262477452,0.08428575506301605,0.017541848271916294,0.0011524608782036427,0.006385301150080069,0.0005471839024571608,0.00034100637351281923,0.0011524608782036427,0.0005471839024571608,5,Swing,0.4129593333486376
1777151627645,0.0782344,0.961007,0.186241,-0.010165,-0.0162239,0.00842401,0,-4.494455430089031,3.51863,999,log_newX1.csv,0,False,0.205,79.11105574623707,0.9820085465378394,0.020916646497230382,0.00542709999999999,0.007596999999999979,-0.0042600000000000415,-0.006454000000000071,0.0041949999999999765,0.008647999999999961,-0.0033149800000000004,-0.00352931,-0.0009222999999999992,-0.0013485999999999984,0.0002032299999999987,-0.002428590000000002,-0.0292052213224423,-0.09562846717578566,-0.0277697717860379,-0.11205552684905395,-0.0029696412096303915,-0.004122102087834034,0.0022446631968736676,0.0016974792944165068,-0.0029696412096303915,0.0022446631968736676,2,Foot-flat,0.347997148478274
1777151627659,0.0801469,0.964768,0.176996,-0.00992148,-0.0145475,0.00916214,0,-4.5422237357951305,3.46696,999,log_newX1.csv,0,False,0.219,79.24427221827895,0.9841384066378113,0.019849693474207605,0.0019124999999999975,-0.0035145999999999927,0.0037610000000000143,0.008021000000000056,-0.009245000000000003,-0.01343999999999998,0.00024352000000000054,0.003558500000000001,0.0016763999999999998,0.002598699999999999,0.00073813,0.0005349000000000013,0.13321647204188025,0.16242169336432255,-0.047768305706099135,-0.019998533920061234,0.0021298600999718476,0.005099501309602239,-0.001066953023022777,-0.0033116162198964447,0.0021298600999718476,-0.001066953023022777,2,Foot-flat,0.347997148478274
1777151627672,0.0844047,0.957866,0.180477,-0.0109136,-0.0135769,0.00934972,0,-4.65215024267688,3.58838,999,log_newX1.csv,0,False,0.232,79.26734325822473,0.9783677094360229,0.019770082009147052,0.004257800000000006,0.0023453000000000085,-0.006901999999999964,-0.010662999999999978,0.003481000000000012,0.012726000000000015,-0.0009921200000000008,-0.0012356400000000014,0.0009706000000000003,-0.0007057999999999995,0.00018758000000000143,-0.0005505499999999986,0.023071039945776306,-0.11014543209610395,-0.10992650688174965,-0.06215820117565052,-0.005770697201788355,-0.007900557301760203,-7.961146506055283e-05,0.0009873415579622243,-0.005770697201788355,-7.961146506055283e-05,2,Foot-flat,0.347997148478274
1777151627686,0.0808086,0.964915,0.179114,-0.0140289,-0.0147631,0.0106952,0,-4.667003760321976,3.54929,999,log_newX1.csv,0,False,0.246,79.32589308306972,0.9847196616575501,0.023003183689654788,-0.003596100000000005,-0.007853900000000011,0.007048999999999972,0.013950999999999936,-0.001363000000000003,-0.004844000000000015,-0.0031152999999999997,-0.002123179999999999,-0.0011862,-0.0021568000000000004,0.0013454799999999996,0.0011578999999999982,0.05854982484498805,0.035478784899211746,-0.014853517645096126,0.09507298923665353,0.0063519522215271795,0.012122649423315535,0.0032331016805077356,0.0033127131455682884,0.0063519522215271795,0.0032331016805077356,2,Foot-flat,0.347997148478274
1777151627700,0.0788232,0.963542,0.181821,-0.0144168,-0.0188017,0.00894455,0,-4.647808555247764,3.70157,999,log_newX1.csv,0,False,0.26,79.32265398788988,0.9837098955806229,0.025324948565248858,-0.0019853999999999983,0.0016107000000000066,-0.0013729999999999576,-0.00842199999999993,0.002707000000000015,0.004070000000000018,-0.00038790000000000005,0.0027273999999999996,-0.0040386000000000016,-0.0028524000000000015,-0.0017506499999999994,-0.003096129999999999,-0.0032390951798362266,-0.06178892002482428,0.019195205074212573,0.0340487227193087,-0.0010097660769271544,-0.007361718298454334,0.00232176487559407,-0.0009113368049136657,-0.0010097660769271544,0.00232176487559407,2,Foot-flat,0.347997148478274
1777151627714,0.0839786,0.968398,0.192791,-0.0119229,-0.0317143,0.00497339,0,-4.705487456974718,3.5257,999,log_newX1.csv,0,False,0.274,79.1654156454981,0.9909669325174075,0.0342445174734891,0.005155400000000004,0.007140800000000003,0.0048559999999999715,0.006228999999999929,0.01096999999999998,0.008262999999999965,0.0024939000000000003,0.0028818000000000003,-0.0129126,-0.008873999999999998,-0.0039711600000000005,-0.002220510000000001,-0.15723834239177847,-0.15399924721194225,-0.05767890172695456,-0.07687410680116713,0.007257036936784589,0.008266803013711743,0.00891956890824024,0.006597804032646169,0.007257036936784589,0.00891956890824024,2,Foot-flat,0.43425029171207113
1777151627727,0.0863003,0.968637,0.188541,-0.00776227,-0.0433457,0.00109764,0,-4.784508870477372,3.54229,999,log_newX1.csv,0,False,0.287,79.11676971575247,0.9905821966046482,0.04404892005046775,0.002321699999999996,-0.0028337000000000084,0.00023899999999998922,-0.004616999999999982,-0.004250000000000004,-0.015219999999999984,0.00416063,0.00166673,-0.0116314,0.0012811999999999997,-0.0038757500000000003,9.54100000000002e-05,-0.04864592974563209,0.10859241264614639,-0.07902141350265346,-0.021342511775698902,-0.0003847359127593375,-0.007641772849543926,0.009804402576978656,0.0008848336687384169,-0.0003847359127593375,0.009804402576978656,2,Foot-flat,0.43425029171207113
1777151627741,0.0757899,0.967886,0.195616,-0.00310646,-0.0464204,0.00112693,0,-4.677659815857137,3.54527,999,log_newX1.csv,0,False,0.301,78.97015480346494,0.9903600544216281,0.04653787276097286,-0.010510400000000003,-0.012832099999999999,-0.0007509999999999462,-0.0009899999999999354,0.007075000000000026,0.01132500000000003,0.00465581,0.0004951799999999996,-0.0030746999999999997,0.0085567,2.928999999999996e-05,0.0039050400000000002,-0.1466149122875322,-0.09796898254190012,0.10684905462023497,0.18587046812288843,-0.00022214218302007982,0.00016259372973925768,0.0024889527105051087,-0.007315449866473547,-0.00022214218302007982,0.0024889527105051087,2,Foot-flat,0.43425029171207113
1777151627755,0.0811811,0.965988,0.190112,0.000275961,-0.0452359,0.000336094,0,-4.687427455320151,4.05638,999,log_newX1.csv,0,False,0.315,78.94205795995438,0.9878591800885438,0.045237990256645544,0.005391200000000013,0.015901600000000016,-0.0018980000000000663,-0.0011470000000001201,-0.005504000000000009,-0.012579000000000035,0.003382421,-0.0012733889999999998,0.001184499999999998,0.004259199999999998,-0.000790836,-0.0008201259999999999,-0.028096843510553526,0.11851806877697868,-0.009767639463014177,-0.11661669408324915,-0.002500874333084324,-0.0022787321500642443,-0.0012998825043273182,-0.003788835214832427,-0.002500874333084324,-0.0012998825043273182,2,Foot-flat,0.43425029171207113
1777151627769,0.081592,0.960742,0.192645,-0.00135712,-0.0404902,0.00347803,0,-4.707021083351277,3.4209,999,log_newX1.csv,0,False,0.329,78.86628876991107,0.9832571083155209,0.04066195720099193,0.00041089999999999183,-0.004980300000000021,-0.005245999999999973,-0.0033479999999999066,0.0025330000000000075,0.008037000000000016,-0.0016330810000000002,-0.005015502,0.0047457000000000055,0.0035612000000000074,0.003141936,0.003932772,-0.07576919004331728,-0.047672346532763754,-0.019593628031126187,-0.00982598856811201,-0.004602071773022853,-0.002101197439938529,-0.004576033055653614,-0.0032761505513262956,-0.004602071773022853,-0.004576033055653614,2,Foot-flat,0.43425029171207113
1777151627783,0.0828832,0.960709,0.173428,-0.0058495,-0.0338182,0.00783907,0,-4.746407680317077,3.54677,999,log_newX1.csv,0,False,0.343,79.1096548442005,0.9797492938028789,0.035204237244327564,0.0012912000000000062,0.0008803000000000144,-3.2999999999949736e-05,0.005213000000000023,-0.019217000000000012,-0.02175000000000002,-0.00449238,-0.0028592989999999996,0.006671999999999997,0.001926299999999992,0.00436104,0.001219104,0.24336607428944035,0.31913526433275763,-0.039386596965799825,-0.019792968934673638,-0.003507814512642038,0.0010942572603808154,-0.0054577199566643655,-0.0008816869010107517,-0.003507814512642038,-0.0054577199566643655,5,Swing,0.42520254406676616
1777151627797,0.0912455,0.955897,0.167408,-0.0140289,-0.0308923,0.00941049,0,-4.91525493729149,3.55707,999,log_newX1.csv,0,False,0.357,79.36813234224095,0.9747257328824606,0.035209395855937374,0.00836229999999999,0.007071099999999983,-0.0048120000000000385,-0.004779000000000089,-0.006019999999999998,0.013197000000000014,-0.0081794,-0.00368702,0.0029258999999999986,-0.0037460999999999987,0.0015714200000000005,-0.0027896199999999996,0.25847749804044895,0.015111423751008601,-0.16884725697441283,-0.129460660008613,-0.005023560920418335,-0.0015157464077762972,5.158611609809571e-06,0.005462878568274175,-0.005023560920418335,5.158611609809571e-06,5,Swing,0.42520254406676616
1777151627811,0.101056,0.959812,0.180371,-0.0200781,-0.0468532,0.00826513,0,-5.183373639955361,3.49283,999,log_newX1.csv,0,False,0.371,79.36510302322866,0.9818274227790748,0.05163976010562888,0.009810500000000014,0.0014482000000000245,0.003915000000000002,0.00872700000000004,0.012963000000000002,0.018983,-0.006049200000000001,0.0021301999999999988,-0.015960899999999997,-0.018886799999999995,-0.0011453599999999998,-0.0027167800000000002,-0.00302931901229897,-0.2615068170527479,-0.2681187026638714,-0.09927144568945856,0.007101689896614194,0.012125250817032529,0.016430364249691506,0.016425205638081697,0.007101689896614194,0.016430364249691506,5,Swing,0.42520254406676616
1777151627824,0.0860029,0.964052,0.183053,-0.0304562,-0.0763029,0.000609376,0,-5.136217948864535,3.51431,999,log_newX1.csv,0,False,0.384,79.33366614610183,0.9850386582877902,0.08215889486817222,-0.015053100000000014,-0.024863600000000027,0.0042400000000000215,0.0003250000000000197,0.00268199999999999,-0.010281000000000012,-0.010378099999999998,-0.004328899999999997,-0.02944970000000001,-0.013488800000000013,-0.007655754000000001,-0.006510394000000001,-0.03143687712682208,-0.028407558114523113,0.0471556910908264,0.3152743937546978,0.003211235508715493,-0.003890454387898701,0.030519134762543344,0.014088770512851838,0.003211235508715493,0.030519134762543344,5,Swing,0.42520254406676616
1777151627838,0.0682441,0.964754,0.187393,-0.0352695,-0.0892501,0.000138405,0,-4.821755030224492,3.56527,999,log_newX1.csv,0,False,0.398,79.24562959567325,0.9851515995773493,0.0959663333477112,-0.01775879999999999,-0.0027056999999999776,0.0007019999999999804,-0.003538000000000041,0.0043400000000000105,0.0016580000000000206,-0.004813300000000003,0.005564799999999995,-0.012947199999999992,0.016502500000000017,-0.00047097100000000004,0.007184783000000001,-0.08803655042858338,-0.0565996733017613,0.31446291864004294,0.26730722754921654,0.00011294128955907645,-0.0030982942191564167,0.01380743847953897,-0.016711696283004375,0.00011294128955907645,0.01380743847953897,5,Swing,0.42520254406676616
1777151627852,0.0782556,0.963325,0.185313,-0.0400331,-0.0929217,0.00547836,0,-4.751298891252128,3.55407,999,log_newX1.csv,0,False,0.412,79.20929512802975,0.9841036035526747,0.10132671836583675,0.010011499999999993,0.027770299999999984,-0.0014290000000000136,-0.002130999999999994,-0.0020799999999999985,-0.006420000000000009,-0.0047636,4.9700000000003214e-05,-0.003671599999999997,0.009275599999999995,0.0053399549999999995,0.005810925999999999,-0.036334467643499124,0.05170208278508426,0.07045613897236347,-0.24400677966767947,-0.0010479960246746467,-0.0011609373142337231,0.005360385018125552,-0.008447053461413417,-0.0010479960246746467,0.005360385018125552,2,Foot-flat,0.5507320724847654
1777151627865,0.0935637,0.964852,0.186962,-0.0457212,-0.0976737,-0.00243656,0,-4.936880159026631,3.49483,999,log_newX1.csv,0,False,0.425,79.16181607240446,0.9872427955197698,0.1078726871166358,0.015308100000000005,0.005296600000000012,0.001527000000000056,0.0029560000000000697,0.0016489999999999838,0.0037289999999999823,-0.0056880999999999945,-0.0009244999999999948,-0.004752000000000006,-0.0010804000000000091,-0.007914919999999999,-0.013254875,-0.047479055625288424,-0.0111445879817893,-0.185581267774503,-0.2560374067468665,0.003139191967095112,0.0041871879917697585,0.006545968750799047,0.0011855837326734953,0.003139191967095112,0.006545968750799047,2,Foot-flat,0.5507320724847654
1777151627880,0.105444,0.962032,0.188651,-0.0439781,-0.0931198,-0.0169713,0,-5.26163032492829,3.86022,999,log_newX1.csv,0,False,0.44,79.0925129508259,0.9860087250937488,0.10437143026393765,0.011880299999999996,-0.0034278000000000086,-0.0028200000000000447,-0.004347000000000101,0.0016890000000000238,4.0000000000040004e-05,0.0017430999999999974,0.007431199999999992,0.0045539,0.009305900000000006,-0.01453474,-0.006619820000000002,-0.06930312157855667,-0.021824065953268246,-0.3247501659016585,-0.1391688981271555,-0.0012340704260209723,-0.004373262393116084,-0.0035012568526981425,-0.01004722560349719,-0.0012340704260209723,-0.0035012568526981425,2,Foot-flat,0.5507320724847654
1777151627893,0.116553,0.951356,0.181248,-0.0445861,-0.089965,-0.0305905,0,-5.694094115117003,3.50874,999,log_newX1.csv,0,False,0.453,79.12520712110206,0.9754556258738785,0.10496380437303138,0.011109000000000008,-0.0007712999999999887,-0.010676000000000019,-0.007855999999999974,-0.007403000000000021,-0.009092000000000044,-0.0006079999999999974,-0.002351099999999995,0.0031547999999999993,-0.0013991000000000003,-0.013619199999999998,0.0009155400000000029,0.03269417027615873,0.1019972918547154,-0.43246379018871295,-0.10771362428705444,-0.010553099219870354,-0.009319028793849382,0.0005923741090937268,0.004093630961791869,-0.010553099219870354,0.0005923741090937268,2,Foot-flat,0.5507320724847654
1777151627907,0.118639,0.948086,0.181845,-0.0561411,-0.109188,-0.0456528,0,-6.048579042112815,3.66296,999,log_newX1.csv,0,False,0.467,79.12985299281532,0.972630392154183,0.13098862775466427,0.0020859999999999906,-0.009023000000000017,-0.003269999999999995,0.007406000000000024,0.0005970000000000142,0.008000000000000035,-0.011555000000000003,-0.010947000000000005,-0.01922299999999999,-0.02237779999999999,-0.0150623,-0.0014431000000000027,0.004645871713250926,-0.028048298562907803,-0.3544849269958119,0.07797886319290104,-0.0028252337196954525,0.007727865500174902,0.026024823381632894,0.025432449272539168,-0.0028252337196954525,0.026024823381632894,2,Foot-flat,0.5507320724847654
1777151627922,0.0946425,0.967396,0.190978,-0.0533364,-0.121249,-0.0525856,0,-5.895634223286714,3.53659,999,log_newX1.csv,0,False,0.482,79.04954246067841,0.9905982132561365,0.1425178476308143,-0.02399649999999999,-0.02608249999999998,0.01931000000000005,0.022580000000000044,0.009133000000000002,0.008535999999999988,0.0028047000000000002,0.014359700000000003,-0.012061000000000002,0.007161999999999988,-0.006932800000000003,0.008129499999999998,-0.08031053213690598,-0.0849564038501569,0.1529448188261009,0.5074297458219128,0.017967821101953496,0.02079305482164895,0.01152921987615002,-0.014495603505482874,0.017967821101953496,0.01152921987615002,2,Foot-flat,0.7712748565720376
1777151627935,0.0597674,0.97444,0.194414,-0.0394327,-0.0996713,-0.0508461,0,-5.232816803048633,3.49246,999,log_newX1.csv,0,False,0.495,78.95966856617386,0.9954407361057512,0.11863655321270085,-0.034875100000000006,-0.010878600000000016,0.007043999999999939,-0.01226600000000011,0.0034359999999999946,-0.005697000000000008,0.013903699999999998,0.011098999999999998,0.02157769999999999,0.033638699999999994,0.001739500000000005,0.008672300000000008,-0.08987389450454941,-0.009563362367643435,0.6628174202380812,0.5098726014119803,0.004842522849614728,-0.013125298252338768,-0.023881294418113444,-0.035410514294263465,0.004842522849614728,-0.023881294418113444,2,Foot-flat,0.7712748565720376
1777151627949,0.0631104,0.96578,0.19552,-0.0326594,-0.0783612,-0.0542861,0,-4.809161828897999,3.50514,999,log_newX1.csv,0,False,0.509,78.8504201752725,0.9873915137310832,0.10076752813783814,0.0033429999999999988,0.038218100000000005,-0.008660000000000001,-0.01570399999999994,0.0011059999999999959,-0.0023299999999999987,0.006773300000000003,-0.007130399999999995,0.0213101,-0.00026759999999999284,-0.0034399999999999986,-0.0051795000000000035,-0.10924839090135663,-0.019374496396807217,0.4236549741506339,-0.2391624460874473,-0.008049222374667986,-0.012891745224282714,-0.01786902507486271,0.006012269343250734,-0.008049222374667986,-0.01786902507486271,2,Foot-flat,0.7712748565720376
1777151627963,0.0731264,0.960013,0.19571,-0.0285625,-0.0678154,-0.0534299,0,-4.663092975238746,3.51892,999,log_newX1.csv,0,False,0.523,78.74966549928402,0.9824840124123955,0.09093678627167336,0.010015999999999997,0.006672999999999998,-0.005766999999999967,0.0028930000000000344,0.00018999999999999573,-0.0009160000000000001,0.004096899999999997,-0.002676400000000006,0.010545800000000008,-0.01076429999999999,0.0008561999999999945,0.004296199999999993,-0.1007546759884832,0.008493714912873429,0.14606885365925226,-0.27758612049138165,-0.004907501318687779,0.0031417210559802067,-0.009830741866164783,0.008038283208697927,-0.004907501318687779,-0.009830741866164783,2,Foot-flat,0.7712748565720376
1777151627977,0.0702249,0.960805,0.196931,-0.030253,-0.060815,-0.0490927,0,-4.509741489576576,3.5187,999,log_newX1.csv,0,False,0.537,78.65974548330175,0.9832901928556035,0.08380812268085952,-0.0029014999999999874,-0.012917499999999985,0.0007920000000000149,0.0065589999999999815,0.0012209999999999999,0.0010310000000000041,-0.0016904999999999976,-0.005787399999999995,0.007000399999999997,-0.003545400000000011,0.004337199999999999,0.003481000000000005,-0.08992001598227262,0.010834660006210584,0.15335148566217072,0.007282632002918454,0.0008061804432080155,0.005713681761895795,-0.007128663590813836,0.002702078275350947,0.0008061804432080155,-0.007128663590813836,2,Foot-flat,0.7712748565720376
1777151627990,0.0706154,0.966358,0.197986,-0.0281151,-0.0573863,-0.0467284,0,-4.397597621130036,3.53576,999,log_newX1.csv,0,False,0.55,78.59539639515616,0.9889553958987028,0.07916558369809447,0.0003904999999999881,0.0032919999999999755,0.00555300000000003,0.004761000000000015,0.0010550000000000004,-0.00016599999999999948,0.002137899999999998,0.0038283999999999957,0.0034287,-0.003571699999999997,0.0023642999999999997,-0.0019728999999999997,-0.06434908814559037,0.025570927836682245,0.11214386844654012,-0.0412076172156306,0.005665203043099365,0.0048590225998913494,-0.0046425389827650515,0.002486124608048784,0.005665203043099365,-0.0046425389827650515,2,Foot-flat,0.6108350347668146
1777151628004,0.0619667,0.964503,0.199484,-0.022109,-0.0532459,-0.0405414,0,-4.1821377234014925,3.5229,999,log_newX1.csv,0,False,0.564,78.51951702913118,0.9868636051521457,0.07048076944649512,-0.008648699999999995,-0.009039199999999983,-0.001855000000000051,-0.007408000000000081,0.0014979999999999993,0.00044299999999999895,0.0060061,0.003868200000000002,0.004140400000000002,0.0007117000000000026,0.006187000000000005,0.0038227000000000053,-0.07587936602497791,-0.01153027787938754,0.21545989772854313,0.10331602928200301,-0.0020917907465571872,-0.007756993789656552,-0.008684814251599351,-0.0040422752688343,-0.0020917907465571872,-0.008684814251599351,2,Foot-flat,0.6108350347668146
1777151628018,0.0570306,0.962913,0.191523,-0.0176446,-0.0376053,-0.0368571,0,-3.950450686389899,3.55114,999,log_newX1.csv,0,False,0.578,78.58197370105225,0.9834302183858091,0.055533200138835864,-0.004936099999999999,0.0037125999999999965,-0.0015899999999999803,0.00026500000000007073,-0.007960999999999996,-0.009458999999999995,0.0044644,-0.0015417,0.015640599999999998,0.011500199999999995,0.0036843000000000015,-0.0025027000000000035,0.062456671921069074,0.13833603794604699,0.23168703701159332,0.016227139283050196,-0.0034333867663365325,-0.0013415960197793453,-0.014947569307659253,-0.006262755056059902,-0.0034333867663365325,-0.014947569307659253,2,Foot-flat,0.6108350347668146
1777151628032,0.0612361,0.962236,0.201874,-0.014524,-0.0222899,-0.0377144,0,-3.846041809877164,3.88605,999,log_newX1.csv,0,False,0.592,78.46564451906204,0.9850893825004967,0.04615368008479931,0.004205500000000001,0.0091416,-0.0006770000000000387,0.0009129999999999416,0.010350999999999999,0.018311999999999995,0.0031205999999999994,-0.001343800000000001,0.0153154,-0.0003251999999999977,-0.0008573000000000053,-0.004541600000000007,-0.11632918199020992,-0.178785853911279,0.10440887651273512,-0.1272781604988582,0.0016591641146875835,0.005092550881024116,-0.009379520054036555,0.005568049253622698,0.0016591641146875835,-0.009379520054036555,2,Foot-flat,0.6108350347668146
1777151628046,0.0606032,0.963342,0.199246,-0.0116337,-0.00926883,-0.0393157,0,-3.759385308417755,3.51577,999,log_newX1.csv,0,False,0.606,78.42478569064858,0.9855960254233171,0.04203544280424437,-0.0006328999999999987,-0.0048384,0.0011060000000000514,0.00178300000000009,-0.0026279999999999915,-0.01297899999999999,0.0028903,-0.00023029999999999926,0.013021070000000001,-0.002294329999999999,-0.0016013,-0.0007439999999999947,-0.040858828413462334,0.07547035357674758,0.08665650145940917,-0.01775237505332594,0.0005066429228204328,-0.0011525211918671507,-0.004118237280554937,0.005261282773481618,0.0005066429228204328,-0.004118237280554937,2,Foot-flat,0.6108350347668146
1777151628060,0.0541084,0.964029,0.193433,-0.0078405,-0.000992758,-0.0394556,0,-3.594712500861277,3.59003,999,log_newX1.csv,0,False,0.62,78.4867712100077,0.9847314137776656,0.040239326287309585,-0.006494800000000002,-0.005861900000000003,0.0006869999999999932,-0.0004190000000000582,-0.005813000000000013,-0.003185000000000021,0.0037932,0.0009028999999999999,0.008276072,-0.004744998,-0.00013989999999999836,0.0014614000000000016,0.06198551935912633,0.10284434777258866,0.16467280755647806,0.07801630609706889,-0.0008646116456515474,-0.0013712545684719801,-0.001796116516934787,0.00232212076362015,-0.0008646116456515474,-0.001796116516934787,2,Foot-flat,0.40931902193420877
1777151628073,0.0554944,0.959946,0.195701,-0.0111094,0.00358377,-0.0365839,0,-3.4994364060782663,3.53077,999,log_newX1.csv,0,False,0.633,78.48418643774522,0.9812618573797516,0.03840109262746179,0.0013859999999999983,0.0078808,-0.004083000000000059,-0.004770000000000052,0.00226800000000002,0.008081000000000033,-0.0032689,-0.0070621,0.004576528,-0.003699544000000001,0.002871699999999998,0.0030115999999999962,-0.002584772262480328,-0.06457029162160666,0.09527609478301047,-0.0693967127734676,-0.00346955639791402,-0.0026049447522624725,-0.001838233659847796,-4.2117142913009054e-05,-0.00346955639791402,-0.001838233659847796,2,Foot-flat,0.40931902193420877
1777151628087,0.0524639,0.958632,0.205867,-0.00957456,0.013588,-0.0292124,0,-3.381492299516674,3.49057,999,log_newX1.csv,0,False,0.647,78.32089881465788,0.9818905203311672,0.03361056763807479,-0.0030304999999999985,-0.004416499999999997,-0.0013139999999999263,0.0027690000000001325,0.01016599999999998,0.00789799999999996,0.0015348400000000009,0.004803740000000001,0.01000423,0.0054277019999999995,0.007371500000000003,0.004499800000000005,-0.16328762308734213,-0.1607028508248618,0.11794410656159249,0.02266801177858202,0.000628662951415615,0.004098219349329635,-0.004790524989387,-0.002952291329539204,0.000628662951415615,-0.004790524989387,2,Foot-flat,0.40931902193420877
1777151628101,0.0559584,0.9645,0.206988,-0.00214746,0.0262316,-0.0236603,0,-3.3450790975990543,3.74355,999,log_newX1.csv,0,False,0.661,78.20385924488328,0.9880463676743921,0.03539093413717134,0.0034944999999999976,0.006524999999999996,0.005867999999999984,0.007181999999999911,0.0011210000000000109,-0.00904499999999997,0.007427099999999999,0.005892259999999998,0.012643600000000001,0.002639370000000002,0.005552100000000001,-0.0018194000000000023,-0.1170395697746045,0.046248053312737625,0.03641320191761954,-0.08153090464397295,0.0061558473432249405,0.0055271843918093255,0.0017803664990965543,0.0065708914884835545,0.0061558473432249405,0.0017803664990965543,2,Foot-flat,0.40931902193420877
1777151628115,0.0656921,0.963574,0.198408,0.00116123,0.0379962,-0.0289466,0,-3.4734443297669007,3.55781,999,log_newX1.csv,0,False,0.675,78.24737437516839,0.9859797360708841,0.04778038636420702,0.009733700000000005,0.006239200000000007,-0.0009259999999999824,-0.006793999999999967,-0.008580000000000004,-0.009701000000000015,0.00330869,-0.004118409999999999,0.0117646,-0.0008790000000000013,-0.005286300000000001,-0.010838400000000002,0.04351513028511533,0.16055470005971983,-0.12836523216784634,-0.16477843408546589,-0.0020666316035080623,-0.008222478946733003,0.012389452227035677,0.010609085727939123,-0.0020666316035080623,0.012389452227035677,2,Foot-flat,0.40931902193420877
1777151628129,0.069653,0.960131,0.201276,-7.54104e-05,0.0515481,-0.0353534,0,-3.632256158707884,3.56988,999,log_newX1.csv,0,False,0.689,78.22385412771303,0.9834709480945535,0.0625066011865821,0.003960900000000003,-0.0057728000000000015,-0.003443000000000085,-0.0025170000000001025,0.0028680000000000094,0.011448000000000014,-0.0012366404000000001,-0.0045453304,0.013551899999999999,0.0017872999999999986,-0.006406800000000001,-0.0011205,-0.02352024745536596,-0.0670353777404813,-0.15881182894098345,-0.030446596773137102,-0.0025087879763305843,-0.00044215637282252196,0.014726214822375086,0.002336762595339409,-0.0025087879763305843,0.014726214822375086,3,Heel-off,0.43552534899735784
1777151628142,0.0656302,0.964817,0.197066,0.000254265,0.0727651,-0.0386498,0,-3.6810793687850953,3.56542,999,log_newX1.csv,0,False,0.702,78.28656905649814,0.9869215647644143,0.08239315183157048,-0.004022800000000007,-0.00798370000000001,0.004686000000000079,0.008129000000000164,-0.004210000000000019,-0.007078000000000029,0.0003296754,0.0015663158000000003,0.021217,0.007665100000000001,-0.003296399999999998,0.0031104000000000027,0.06271492878511253,0.0862351762404785,-0.04882321007721124,0.1099886188637722,0.0034506166698607954,0.00595940464619138,0.01988655064498837,0.005160335822613285,0.0034506166698607954,0.01988655064498837,3,Heel-off,0.43552534899735784
1777151628156,0.0803942,0.963676,0.19985,-0.00372431,0.0759155,-0.0488255,0,-3.948220582533077,3.58303,999,log_newX1.csv,0,False,0.716,78.2858499401812,0.9874586993234906,0.09033804888017063,0.014764,0.018786800000000006,-0.0011410000000000586,-0.005827000000000138,0.0027840000000000087,0.006994000000000028,-0.003978575,-0.0043082504,0.0031503999999999976,-0.018066600000000002,-0.010175700000000003,-0.006879300000000005,-0.0007191163169437687,-0.0634340451020563,-0.2671412137479816,-0.21831800367077037,0.0005371345590763354,-0.00291348211078446,0.007944897048600158,-0.011941653596388213,0.0005371345590763354,0.007944897048600158,3,Heel-off,0.43552534899735784
1777151628170,0.074551,0.958342,0.196939,-0.00510246,0.0729672,-0.0524293,0,-4.058784348889442,3.68353,999,log_newX1.csv,0,False,0.73,78.31328434230419,0.9812044691530915,0.08999488247884764,-0.005843199999999993,-0.020607199999999992,-0.00533399999999995,-0.004192999999999891,-0.002910999999999997,-0.005695000000000006,-0.0013781499999999994,0.0026004250000000004,-0.002948300000000001,-0.006098699999999999,-0.0036037999999999973,0.0065719000000000055,0.027434402122992196,0.028153518439935965,-0.110563766356365,0.1565774473916166,-0.0062542301703991665,-0.006791364729475502,-0.0003431664013229946,-0.008288063449923153,-0.0062542301703991665,-0.0003431664013229946,3,Heel-off,0.43552534899735784
1777151628184,0.0683657,0.955136,0.198485,-0.00713856,0.0775496,-0.0536642,0,-4.045259158753928,3.85985,999,log_newX1.csv,0,False,0.744,78.29903939326016,0.9779340175377325,0.09457666657624172,-0.006185300000000005,-0.00034210000000001184,-0.003206000000000042,0.0021279999999999077,0.0015459999999999918,0.004456999999999989,-0.0020361000000000008,-0.0006579500000000013,0.0045824,0.007530700000000001,-0.001234900000000004,0.0023688999999999932,-0.014244949044027067,-0.04167935116701926,0.01352519013551401,0.12408895649187901,-0.0032704516153589935,0.002983778555040173,0.004581784097394084,0.004924950498717079,-0.0032704516153589935,0.004581784097394084,3,Heel-off,0.43552534899735784
1777151628198,0.072997,0.956752,0.199314,-0.0125397,0.0701945,-0.0598445,0,-4.106424701929367,3.76207,999,log_newX1.csv,0,False,0.758,78.28099494638171,0.9800148070866073,0.09309068743214866,0.004631300000000005,0.01081660000000001,0.0016160000000000618,0.004822000000000104,0.0008289999999999964,-0.0007169999999999954,-0.0054011400000000005,-0.0033650399999999997,-0.007355099999999989,-0.01193749999999999,-0.0061803,-0.004945399999999996,-0.01804444687844864,-0.0037994978344215724,-0.061165543175438764,-0.07469073331095277,0.0020807895488748063,0.0053512411642338,-0.0014859791440930692,-0.0060677632414871535,0.0020807895488748063,-0.0014859791440930692,3,Heel-off,0.6244582808609137
1777151628212,0.06174,0.962074,0.196932,-0.0230949,0.061252,-0.0653661,0,-3.9689259012639697,3.58755,999,log_newX1.csv,0,False,0.772,78.32168999799767,0.983961595642838,0.09250896680441308,-0.011257000000000003,-0.015888300000000008,0.005321999999999938,0.003705999999999876,-0.0023819999999999952,-0.0032109999999999916,-0.0105552,-0.00515406,-0.008942500000000006,-0.0015874000000000166,-0.005521599999999995,0.0006587000000000051,0.040695051615955435,0.058739498494404074,0.137498800665397,0.19866434384083576,0.0039467885562307625,0.0018659990073559563,-0.0005817206277355796,0.0009042585163574896,0.0039467885562307625,-0.0005817206277355796,3,Heel-off,0.6244582808609137
1777151628225,0.0471898,0.964945,0.19633,-0.0305234,0.0589213,-0.0688905,0,-3.637908680321315,3.57348,999,log_newX1.csv,0,False,0.785,78.36971181623147,0.9858454235573851,0.09565196564368136,-0.014550200000000006,-0.003293200000000003,0.002871000000000068,-0.00245099999999987,-0.0006019999999999914,0.0017800000000000038,-0.007428499999999998,0.003126700000000003,-0.002330699999999998,0.006611800000000008,-0.003524399999999997,0.0019971999999999976,0.04802181823380636,0.007326766617850922,0.3310172209426545,0.19351842027725752,0.0018838279145471093,-0.0020629606416836532,0.003142998839268288,0.0037247194670038675,0.0018838279145471093,0.003142998839268288,3,Heel-off,0.6244582808609137
1777151628239,0.0421752,0.957592,0.19415,-0.0368992,0.0714297,-0.065802,0,-3.322829197666468,3.4762,999,log_newX1.csv,0,False,0.799,78.41537768816603,0.9779853825385326,0.10389252238120894,-0.005014599999999994,0.009535600000000012,-0.007353000000000054,-0.010224000000000122,-0.0021800000000000153,-0.0015780000000000238,-0.006375800000000001,0.0010526999999999967,0.012508399999999996,0.014839099999999994,0.003088499999999994,0.006612899999999991,0.04566587193455973,-0.002355946299246625,0.3150794826548471,-0.015937738287807424,-0.007860041018852515,-0.009743868933399624,0.008240556737527577,0.005097557898259289,-0.007860041018852515,0.008240556737527577,3,Heel-off,0.6244582808609137
1777151628253,0.0465211,0.958536,0.200733,-0.0386269,0.0802176,-0.0638202,0,-3.159884529450931,3.61711,999,log_newX1.csv,0,False,0.813,78.34969771779915,0.9804331763716536,0.10954414033352035,0.0043459,0.009360499999999994,0.0009440000000000559,0.00829700000000011,0.0065830000000000055,0.00876300000000002,-0.0017276999999999987,0.004648100000000002,0.008787900000000001,-0.0037204999999999946,0.0019818000000000058,-0.0011066999999999882,-0.06567997036688666,-0.1113458423014464,0.1629446682155371,-0.15213481443930998,0.0024477938331209925,0.010307834851973507,0.005651617952311408,-0.002588938785216169,0.0024477938331209925,0.005651617952311408,3,Heel-off,0.6244582808609137
1777151628267,0.0470922,0.961323,0.196229,-0.040938,0.087726,-0.0708948,0,-3.048590890614699,3.5319,999,log_newX1.csv,0,False,0.827,78.38032174351596,0.9822756263243225,0.11999101460959483,0.000571099999999998,-0.0037748000000000018,0.002786999999999984,0.001842999999999928,-0.004504000000000008,-0.011087000000000014,-0.0023111000000000034,-0.0005834000000000047,0.007508399999999998,-0.0012795000000000029,-0.0070746,-0.009056400000000006,0.030624025716818437,0.0963039960837051,0.11129363883623222,-0.05165102937930488,0.001842449952668912,-0.0006053438804520805,0.010446874276074478,0.00479525632376307,0.001842449952668912,0.010446874276074478,3,Heel-off,0.7558668138301783
1777151628280,0.0385016,0.963545,0.202064,-0.0396035,0.0999352,-0.0785036,0,-2.830025903311498,3.55394,999,log_newX1.csv,0,False,0.84,78.31977223749999,0.9852569209721695,0.13311009212020702,-0.008590600000000004,-0.009161700000000002,0.0022219999999999462,-0.0005650000000000377,0.005835000000000007,0.010339000000000015,0.0013345000000000024,0.0036456000000000058,0.012209200000000003,0.004700800000000005,-0.007608800000000013,-0.0005342000000000124,-0.060549506015973975,-0.09117353173279241,0.21856498730320073,0.10727134846696851,0.0029812946478470215,0.0011388446951781095,0.013119077510612198,0.0026722032345377206,0.0029812946478470215,0.013119077510612198,3,Heel-off,0.7558668138301783
1777151628294,0.0469942,0.964757,0.205432,-0.0377255,0.102995,-0.0834858,0,-2.8023732535840318,3.43881,999,log_newX1.csv,0,False,0.854,78.22775711854895,0.9875053572040204,0.13784434038759083,0.008492600000000003,0.017083200000000007,0.0012119999999999909,-0.0010099999999999554,0.00336800000000001,-0.002466999999999997,0.0018779999999999977,0.0005434999999999954,0.0030598000000000014,-0.009149400000000002,-0.004982199999999992,0.0026266000000000206,-0.0920151189510392,-0.031465612935065224,0.027652649727466283,-0.19091233757573445,0.002248436231850892,-0.0007328584159961293,0.004734248267383806,-0.008384829243228392,0.002248436231850892,0.004734248267383806,3,Heel-off,0.7558668138301783
1777151628308,0.0402912,0.957862,0.203206,-0.0429998,0.0995398,-0.0879364,0,-2.6818565462898603,3.73513,999,log_newX1.csv,0,False,0.868,78.17231707466215,0.980007995006898,0.13960646485403175,-0.006703000000000001,-0.015195600000000004,-0.0068949999999999845,-0.008106999999999975,-0.0022260000000000058,-0.005594000000000016,-0.005274299999999996,-0.007152299999999993,-0.0034552000000000055,-0.006515000000000007,-0.004450599999999999,0.0005315999999999932,-0.05544004388680435,0.03657507506423485,0.12051670729417152,0.09286405756670524,-0.007497362197122492,-0.009745798428973385,0.0017621244664409175,-0.0029721238009428885,-0.007497362197122492,0.0017621244664409175,3,Heel-off,0.7558668138301783
1777151628321,0.0404513,0.960941,0.208945,-0.0466185,0.0962859,-0.0986002,0,-2.593688225262104,3.58887,999,log_newX1.csv,0,False,0.881,78.05354548106719,0.9842265624223369,0.1454862829310722,0.0001601000000000033,0.006863100000000004,0.003079000000000054,0.009974000000000038,0.005738999999999994,0.007965,-0.0036187000000000025,0.0016555999999999932,-0.003253900000000004,0.00020130000000000148,-0.010663800000000001,-0.006213200000000002,-0.11877159359495693,-0.06333154970815258,0.0881683210277564,-0.03234838626641512,0.004218567415438912,0.011715929612561404,0.005879818077040466,0.004117693610599549,0.004218567415438912,0.005879818077040466,3,Heel-off,0.7558668138301783
1777151628335,0.0487806,0.95531,0.208475,-0.0495576,0.0897118,-0.113194,0,-2.664561839448296,3.54874,999,log_newX1.csv,0,False,0.895,77.95519114210009,0.9790089727174925,0.1526991958492251,0.008329299999999998,0.008169199999999995,-0.005631000000000053,-0.008710000000000107,-0.0004699999999999982,-0.006208999999999992,-0.0029391,0.0006796000000000024,-0.006574099999999999,-0.0033201999999999954,-0.014593800000000004,-0.003930000000000003,-0.09835433896709844,0.020417254627858483,-0.07087361418619231,-0.15904193521394872,-0.0052175897048443165,-0.009436157120283228,0.007212912918152875,0.0013330948411124088,-0.0052175897048443165,0.007212912918152875,3,Heel-off,0.7602167667066927
1777151628349,0.0466606,0.957967,0.208655,-0.0489818,0.0853608,-0.129384,0,-2.680827679286845,3.59263,999,log_newX1.csv,0,False,0.909,77.88957514885747,0.9815370057753094,0.16256045756542395,-0.002119999999999997,-0.010449299999999995,0.0026570000000000205,0.008288000000000073,0.00018000000000001348,0.0006500000000000117,0.0005758000000000013,0.0035149000000000014,-0.004350999999999994,0.0022231000000000056,-0.016189999999999996,-0.001596199999999992,-0.06561599324261636,0.03273834572448209,-0.01626583983854868,0.054607774347643634,0.002528033057816903,0.0077456227626612195,0.00986126171619886,0.0026483487980459852,0.002528033057816903,0.00986126171619886,3,Heel-off,0.7602167667066927
1777151628363,0.0368727,0.95667,0.202753,-0.0488091,0.0876147,-0.141842,0,-2.5399416105134436,3.61985,999,log_newX1.csv,0,False,0.923,77.92859570817527,0.9786142569543375,0.17371763544010146,-0.009787900000000002,-0.007667900000000005,-0.0012969999999999926,-0.003954000000000013,-0.005902000000000018,-0.006082000000000032,0.00017269999999999786,-0.00040310000000000346,0.002253900000000003,0.006604899999999997,-0.012457999999999997,0.003731999999999999,0.039020559317791026,0.10463655256040738,0.14088606877340126,0.15715190861194994,-0.0029227488209719876,-0.005450781878788891,0.011157177874677515,0.001295916158478655,-0.0029227488209719876,0.011157177874677515,3,Heel-off,0.7602167667066927
1777151628377,0.0277621,0.955756,0.210124,-0.0514322,0.0916365,-0.151083,0,-2.2927726755460465,3.59283,999,log_newX1.csv,0,False,0.937,77.84001795908064,0.9789751585757476,0.18403421480281865,-0.0091106,0.0006773000000000022,-0.0009139999999999704,0.0003830000000000222,0.007371000000000016,0.013273000000000035,-0.0026230999999999963,-0.002795799999999994,0.004021799999999992,0.001767899999999989,-0.009241,0.0032169999999999976,-0.08857774909462535,-0.12759830841241637,0.2471689349673971,0.10628286619399585,0.0003609016214101146,0.0032836504423821022,0.010316579362717182,-0.0008405985119603332,0.0003609016214101146,0.010316579362717182,3,Heel-off,0.7602167667066927
1777151628390,0.0114196,0.956124,0.200908,-0.0559254,0.101476,-0.151357,0,-1.854279943694304,3.4565,999,log_newX1.csv,0,False,0.95,77.9192286600724,0.9770708956386737,0.19061471713946956,-0.016342500000000003,-0.007231900000000003,0.00036799999999992394,0.0012819999999998943,-0.009216000000000002,-0.01658700000000002,-0.004493200000000003,-0.0018701000000000065,0.009839500000000001,0.005817700000000009,-0.00027399999999999647,0.008967000000000003,0.07921070099176575,0.1677884500863911,0.4384927318517424,0.1913237968843453,-0.0019042629370739084,-0.002265164558484023,0.0065805023366509174,-0.0037360770260662646,-0.0019042629370739084,0.0065805023366509174,3,Heel-off,0.7602167667066927
1777151628405,0.00682135,0.954587,0.202411,-0.0653316,0.111132,-0.153585,0,-1.4615366930171314,4.45025,999,log_newX1.csv,0,False,0.965,77.9486946872681,0.9758345578559013,0.20051656192833547,-0.00459825,0.011744250000000003,-0.0015370000000000106,-0.0019049999999999345,0.0015030000000000043,0.010719000000000006,-0.009406200000000003,-0.004913000000000001,0.009655999999999998,-0.0001835000000000031,-0.0022280000000000078,-0.0019540000000000113,0.029466027195695688,-0.04974467379607006,0.39274325067717264,-0.045749481174569784,-0.0012363377827723232,0.0006679251543015852,0.00990184478886591,0.0033213424522149926,-0.0012363377827723232,0.00990184478886591,3,Heel-off,0.7184641698513903
1777151628419,0.00832124,0.955417,0.200909,-0.0804832,0.130389,-0.159248,0,-1.1986182262744216,3.55001,999,log_newX1.csv,0,False,0.979,77.99622518987441,0.9763479467920939,0.22099493728870806,0.0014998900000000003,0.00609814,0.0008299999999999974,0.002367000000000008,-0.0015020000000000033,-0.0030050000000000077,-0.015151600000000001,-0.005745399999999998,0.01925700000000001,0.009601000000000012,-0.005663000000000001,-0.0034349999999999936,0.04753050260630687,0.01806447541061118,0.2629184667427098,-0.12982478393446284,0.0005133889361925714,0.0017497267189648946,0.020478375360372586,0.010576530571506676,0.0005133889361925714,0.020478375360372586,3,Heel-off,0.7184641698513903
1777151628432,0.0167507,0.955849,0.196948,-0.0939606,0.149491,-0.172545,0,-1.1404542058306655,3.60946,999,log_newX1.csv,0,False,0.992,78.09380445708771,0.9760719294475638,0.24687634649427231,0.00842946,0.0069295699999999995,0.00043199999999998795,-0.00039800000000000946,-0.003960999999999992,-0.002458999999999989,-0.0134774,0.0016742000000000007,0.019102000000000008,-0.00015500000000000236,-0.013297000000000003,-0.007634000000000002,0.09757926721330534,0.050048764606998475,0.058164020443756126,-0.20475444629895367,-0.0002760173445300884,-0.0007894062807226598,0.025881409205564254,0.005403033845191668,-0.0002760173445300884,0.025881409205564254,3,Heel-off,0.7184641698513903
1777151628446,0.0308873,0.951519,0.20362,-0.104959,0.17014,-0.19225,0,-1.3235227683725113,3.55468,999,log_newX1.csv,0,False,1.006,78.04717079509642,0.9735520207273415,0.2773518952179704,0.0141366,0.0057071399999999994,-0.004329999999999945,-0.004761999999999933,0.0066719999999999835,0.010632999999999976,-0.010998399999999992,0.002479000000000009,0.020649,0.0015469999999999928,-0.019705,-0.006407999999999997,-0.04663366199129371,-0.14421292920459905,-0.18306856254184578,-0.2412325829856019,-0.0025199087202223414,-0.002243891375692253,0.030475548723698065,0.004594139518133811,-0.0025199087202223414,0.030475548723698065,3,Heel-off,0.7184641698513903
1777151628460,0.0271599,0.968667,0.213549,-0.100667,0.184301,-0.215722,0,-1.3896835415652171,3.4844,999,log_newX1.csv,0,False,1.02,77.91762047636492,0.9922986407619482,0.30105927119755005,-0.0037273999999999988,-0.017863999999999998,0.01714799999999994,0.021477999999999886,0.009928999999999993,0.00325700000000001,0.00429199999999999,0.015290399999999982,0.01416099999999998,-0.0064880000000000215,-0.023471999999999993,-0.0037669999999999926,-0.12955031873150347,-0.08291665674020976,-0.06616077319270586,0.11690778934913992,0.018746620034606698,0.02126652875482904,0.02370737597957967,-0.006768172744118395,0.018746620034606698,0.02370737597957967,3,Heel-off,0.7184641698513903
1777151628473,0.0158613,0.964419,0.220884,-0.0934613,0.189569,-0.23719,0,-1.2623773955858049,3.59007,999,log_newX1.csv,0,False,1.033,77.69669614527076,0.9895177258921085,0.31769563493804887,-0.011298600000000002,-0.007571200000000004,-0.0042479999999999185,-0.02139599999999986,0.007335000000000008,-0.002593999999999985,0.007205700000000009,0.002913700000000019,0.005267999999999995,-0.008892999999999984,-0.021468000000000015,0.002003999999999978,-0.2209243310941531,-0.09137401236264964,0.12730614597941226,0.1934669191721181,-0.002780914869839668,-0.021527534904446366,0.016636363740498816,-0.007071012239080854,-0.002780914869839668,0.016636363740498816,3,Heel-off,0.5420686460472246
1777151628487,-0.00598666,0.964045,0.229039,-0.0829715,0.198091,-0.254637,0,-0.8278200916332514,3.84479,999,log_newX1.csv,0,False,1.047,77.40997386900966,0.990897303278173,0.33311306768460763,-0.02184796,-0.010549359999999997,-0.00037399999999998546,0.003873999999999933,0.008154999999999996,0.0008199999999999874,0.010489799999999994,0.0032840999999999843,0.008522000000000002,0.003254000000000007,-0.01744699999999999,0.0040210000000000246,-0.28672227626110214,-0.06579794516694903,0.43455730395255343,0.3072511579731412,0.0013795773860645344,0.004160492255904202,0.015417432746558768,-0.0012189309939400483,0.0013795773860645344,0.015417432746558768,3,Heel-off,0.5420686460472246
1777151628501,-0.0239458,0.971043,0.235969,-0.0627355,0.211443,-0.26734,0,-0.2333391752053524,3.5912,999,log_newX1.csv,0,False,1.061,77.12133052583303,0.9995895548412057,0.3465754763529151,-0.01795914,0.003888820000000001,0.006997999999999949,0.007371999999999934,0.0069300000000000195,-0.001224999999999976,0.020236000000000004,0.00974620000000001,0.013352000000000003,0.004830000000000001,-0.01270300000000002,0.0047439999999999705,-0.28864334317663065,-0.0019210669155285132,0.594480916427899,0.1599236124753456,0.00869225156303266,0.007312674176968126,0.013462408668307446,-0.0019550240782513217,0.00869225156303266,0.013462408668307446,3,Heel-off,0.5420686460472246
1777151628515,-0.0466133,0.979587,0.263198,-0.0281617,0.228243,-0.285449,0,0.540524417879115,3.56531,999,log_newX1.csv,0,False,1.075,76.53764976756867,1.015399762413745,0.3665638825592205,-0.022667500000000004,-0.004708360000000005,0.008543999999999996,0.0015460000000000473,0.027228999999999975,0.020298999999999956,0.0345738,0.014337799999999998,0.01680000000000001,0.0034480000000000066,-0.018108999999999986,-0.005405999999999966,-0.5836807582643644,-0.29503741508773373,0.7738635930844674,0.17938267665656837,0.01581020757253926,0.007117956009506599,0.01998840620630543,0.006525997537997985,0.01581020757253926,0.01998840620630543,3,Heel-off,0.5420686460472246
1777151628528,-0.0525852,0.984489,0.264347,0.0187295,0.254569,-0.309586,0,1.1922874598587963,3.56322,999,log_newX1.csv,0,False,1.088,76.11411886812812,1.0207169689924038,0.4012476309303894,-0.005971899999999995,0.01669560000000001,0.004901999999999962,-0.003642000000000034,0.0011490000000000111,-0.026079999999999964,0.0468912,0.0123174,0.02632599999999999,0.009525999999999979,-0.024136999999999964,-0.006027999999999978,-0.42353089944055,0.16014985882381438,0.6517630419796813,-0.12210055110478613,0.005317206578658862,-0.010493000993880397,0.03468374837116889,0.014695342164863456,0.005317206578658862,0.03468374837116889,3,Heel-off,0.5420686460472246
1777151628544,-0.0559975,0.990703,0.27018,0.0666929,0.306,-0.345839,0,1.7134312343596012,3.59203,999,log_newX1.csv,0,False,1.104,75.74438137596493,1.0284091533116817,0.4665710630026363,-0.0034123,0.002559599999999995,0.006214000000000053,0.0013120000000000909,0.005832999999999977,0.004683999999999966,0.0479634,0.0010722000000000023,0.051431000000000004,0.025105000000000016,-0.036253000000000035,-0.012116000000000071,-0.36973749216318197,0.05379340727736803,0.521143774500805,-0.1306192674788763,0.007692184319277873,0.002374977740619011,0.06532343207224689,0.030639683701078002,0.007692184319277873,0.06532343207224689,4,Toe-off,0.47583059539082034
1777151628558,-0.039547,1.01787,0.298878,0.139457,0.363482,-0.402665,0,1.8273023450897294,3.6019,999,log_newX1.csv,0,False,1.118,75.17482566596965,1.0615796536261424,0.5600951003160088,0.0164505,0.0198628,0.027167000000000052,0.020953,0.028698,0.022865000000000024,0.0727641,0.024800699999999995,0.05748200000000003,0.006051000000000029,-0.05682599999999999,-0.020572999999999952,-0.569555709995285,-0.19981821783210307,0.11387111073012823,-0.4072726637706767,0.03317050031446067,0.0254783159951828,0.09352403731337255,0.028200605241125665,0.03317050031446067,0.09352403731337255,4,Toe-off,0.47583059539082034
1777151628572,0.00266698,1.01767,0.286428,0.218722,0.385674,-0.497214,0,1.294597596147527,3.54309,999,log_newX1.csv,0,False,1.132,74.93321648507631,1.0572134793249284,0.6661872930009999,0.04221398,0.02576348,-0.00019999999999997797,-0.02736700000000003,-0.012449999999999961,-0.04114799999999996,0.079265,0.006500900000000004,0.02219199999999999,-0.035290000000000044,-0.094549,-0.037723000000000007,-0.2416091808933345,0.32794652910195055,-0.5327047489422025,-0.6465758596723308,-0.004366174301213999,-0.03753667461567467,0.10609219268499104,0.012568155371618484,-0.004366174301213999,0.10609219268499104,4,Toe-off,0.47583059539082034
1777151628587,-0.0259615,1.03052,0.275798,0.277635,0.409012,-0.606266,0,1.3214742534790762,4.54888,999,log_newX1.csv,0,False,1.147,74.95586953554003,1.067103559494696,0.782259849490564,-0.028628479999999998,-0.07084246,0.012850000000000028,0.013050000000000006,-0.010630000000000028,0.0018199999999999328,0.05891300000000002,-0.02035199999999998,0.02333799999999997,0.0011459999999999804,-0.10905199999999998,-0.014502999999999988,0.022653050463716795,0.2642622313570513,0.026876657331549314,0.5595814062737519,0.009890080169767668,0.014256254470981666,0.11607255648956416,0.009980363804573122,0.009890080169767668,0.11607255648956416,4,Toe-off,0.47583059539082034
1777151628600,-0.0229255,1.08184,0.287276,0.355242,0.425286,-0.721188,0,1.2814532119706288,3.53661,999,log_newX1.csv,0,False,1.16,75.00254972554522,1.1195672665482186,0.9094928211393425,0.003035999999999997,0.031664479999999995,0.05131999999999981,0.03846999999999978,0.011477999999999988,0.022108000000000017,0.07760699999999998,0.01869399999999996,0.01627400000000001,-0.007063999999999959,-0.11492200000000008,-0.005870000000000097,0.046680190005190525,0.02402713954147373,-0.04002104150844743,-0.06689769883999674,0.052463707053522546,0.04257362688375488,0.12723297164877845,0.011160415159214288,0.052463707053522546,0.12723297164877845,4,Toe-off,0.47583059539082034
1777151628614,-0.0264182,1.13793,0.329711,0.438433,0.448439,-0.855572,0,1.2803631550757548,3.40242,999,log_newX1.csv,0,False,1.174,74.6888175333994,1.185028248487031,1.0608131218051557,-0.003492699999999998,-0.006528699999999995,0.056090000000000195,0.004770000000000385,0.042435,0.030957000000000012,0.08319100000000001,0.005584000000000033,0.02315299999999998,0.0068789999999999685,-0.13438399999999995,-0.01946199999999987,-0.31373219214582093,-0.36041238215101146,-0.0010900568948739586,0.03893098461357347,0.06546098193881233,0.012997274885289789,0.15132030066581326,0.02408732901703481,0.06546098193881233,0.15132030066581326,4,Toe-off,0.47384952877051517
1777151628627,-0.0391314,1.26177,0.367044,0.546118,0.490543,-1.00022,0,1.3952683517793205,3.61455,999,log_newX1.csv,0,False,1.187,74.4434275825336,1.3146543641969017,1.240692287867141,-0.012713199999999997,-0.0092205,0.12383999999999995,0.06774999999999975,0.037333000000000005,-0.005101999999999995,0.10768499999999998,0.02449399999999996,0.04210400000000003,0.01895100000000005,-0.1446480000000001,-0.010264000000000162,-0.24538995086579973,0.0683422412800212,0.11490519670356569,0.11599525359843965,0.12962611570987081,0.06416513377105848,0.17987916606198517,0.028558865396171917,0.12962611570987081,0.17987916606198517,4,Toe-off,0.47384952877051517
1777151628641,0.00495298,1.39501,0.447104,0.688542,0.540122,-1.08571,0,0.9659929408364936,3.50561,999,log_newX1.csv,0,False,1.201,73.84524634800808,1.4649161815362957,1.3944848743346052,0.04408438,0.05679758,0.13324000000000003,0.009400000000000075,0.08006000000000002,0.042727000000000015,0.142424,0.03473900000000002,0.049578999999999984,0.007474999999999954,-0.08548999999999984,0.059158000000000266,-0.5981812345255264,-0.3527912836597267,-0.42927541094282695,-0.5441806076463926,0.15026181733939392,0.020635701629523107,0.1537925864674643,-0.026086579594520876,0.15026181733939392,0.1537925864674643,4,Toe-off,0.47384952877051517
1777151628655,-0.0411189,1.51339,0.497708,0.856501,0.529101,-1.05001,0,1.1044455124183403,3.74033,999,log_newX1.csv,0,False,1.215,73.29150412823066,1.5936603494161514,1.4546693202587315,-0.04607188,-0.09015626,0.11837999999999993,-0.014860000000000095,0.05060399999999998,-0.029456000000000038,0.16795899999999997,0.025534999999999974,-0.011020999999999948,-0.06059999999999993,0.03569999999999984,0.12118999999999969,-0.5537422197774191,0.0444390147481073,0.13845257158184676,0.5677279825246737,0.12874416787985576,-0.021517649459538157,0.060184445924126306,-0.09360814054333799,0.12874416787985576,0.060184445924126306,4,Toe-off,0.47384952877051517
1777151628669,-0.388549,1.78691,0.41367,1.11314,0.564191,-0.983151,0,4.037325295943223,3.60492,999,log_newX1.csv,0,False,1.229,74.28409108654229,1.8748708068560351,1.5887032551367168,-0.34743009999999996,-0.30135821999999995,0.27352,0.15514000000000006,-0.084038,-0.13464199999999998,0.25663900000000006,0.08868000000000009,0.035089999999999955,0.0461109999999999,0.06685900000000011,0.03115900000000027,0.9925869583116338,1.546329178089053,2.9328797835248825,2.794427211943036,0.2812104574398837,0.15246628956002795,0.13403393487798532,0.07384948895385901,0.2812104574398837,0.13403393487798532,4,Toe-off,0.47384952877051517
1777151628682,-0.549221,1.30114,0.667732,1.11705,0.876326,-1.01701,0,8.507318103304584,3.58513,999,log_newX1.csv,0,False,1.242,71.19065902999557,1.5622019812639465,1.7464413247733233,-0.16067199999999998,0.18675809999999998,-0.48577000000000004,-0.75929,0.254062,0.3381,0.00391000000000008,-0.252729,0.31213500000000005,0.2770450000000001,-0.03385899999999997,-0.10071800000000009,-3.0934320565467175,-4.086019014858351,4.469992807361361,1.5371130238364787,-0.31266882559208864,-0.5938792830319723,0.15773806963660642,0.023704134758621098,-0.31266882559208864,0.15773806963660642,5,Swing,0.593712561874791
1777151628696,-0.486044,1.45801,0.724844,1.20177,1.18455,-0.949837,0,10.699212086292086,3.60185,999,log_newX1.csv,0,False,1.256,69.13078592421219,1.6992441714986108,1.9363884326159873,0.06317699999999998,0.22384899999999996,0.15687000000000006,0.6426400000000001,0.05711200000000005,-0.19694999999999996,0.0847199999999999,0.08080999999999983,0.30822399999999994,-0.003911000000000109,0.06717299999999993,0.1010319999999999,-2.0598731057833817,1.0335589507633358,2.1918939829875015,-2.27809882437386,0.13704219023466435,0.449711015826753,0.189947107842664,0.03220903820605758,0.13704219023466435,0.189947107842664,5,Swing,0.593712561874791
1777151628710,-0.587556,1.47672,0.646874,1.30951,1.592,-1.00509,0,13.218386185722444,4.13822,999,log_newX1.csv,0,False,1.27,68.37799448920629,1.715916659809561,2.293357004088112,-0.10151199999999999,-0.16468899999999997,0.018710000000000004,-0.13816000000000006,-0.0779700000000001,-0.13508200000000015,0.10773999999999995,0.02302000000000004,0.4074500000000001,0.09922600000000015,-0.055253,-0.12242599999999992,-0.7527914350059035,1.3070816707774782,2.5191740994303586,0.32728011644285715,0.01667248831095014,-0.12036970192371421,0.3569685714721247,0.1670214636294607,0.01667248831095014,0.3569685714721247,5,Swing,0.593712561874791
1777151628725,-0.438618,1.45128,0.649093,1.32251,2.05033,-0.990951,0,13.814168585776192,3.82314,999,log_newX1.csv,0,False,1.285,67.70940134608944,1.6492183333243056,2.6334140755682536,0.14893799999999996,0.25044999999999995,-0.02544000000000013,-0.044150000000000134,0.002219000000000082,0.08018900000000018,0.013000000000000123,-0.09473999999999982,0.4583300000000001,0.050880000000000036,0.014139000000000013,0.06939200000000001,-0.6685931431168513,0.08419829188905226,0.5957824000537482,-1.9233916993766105,-0.06669832648525542,-0.08337081479620556,0.34005707148014164,-0.016911499991983048,-0.06669832648525542,0.34005707148014164,5,Swing,0.593712561874791
1777151628739,-0.477924,1.89672,0.0480148,1.55439,2.32904,-0.766692,0,13.901732404966209,3.86644,999,log_newX1.csv,0,False,1.299,73.33958805539937,1.9565948812145655,2.9031658954603334,-0.03930600000000001,-0.18824399999999997,0.44544000000000006,0.4708800000000002,-0.6010782,-0.6032972000000001,0.23187999999999986,0.21887999999999974,0.2787099999999998,-0.17962000000000033,0.224259,0.21011999999999997,5.630186709309939,6.29877985242679,0.08756381919001655,-0.5082185808637316,0.3073765478902599,0.37407487437551534,0.26975181989207986,-0.07030525158806178,0.3073765478902599,0.26975181989207986,5,Swing,0.593712561874791
1777151628752,-0.375681,1.82901,0.0171109,1.66217,2.4355,-0.606774,0,13.28171376647916,3.45577,999,log_newX1.csv,0,False,1.312,77.69569745602764,1.8672724966538252,3.0104225693374014,0.10224300000000003,0.14154900000000004,-0.06770999999999994,-0.51315,-0.030903900000000005,0.5701743,0.10777999999999999,-0.12409999999999988,0.10646000000000022,-0.17224999999999957,0.159918,-0.06434099999999998,4.35610940062827,-1.2740773086816688,-0.6200186384870499,-0.7075824576770664,-0.08932238456074026,-0.3966989324510002,0.10725667387706794,-0.16249514601501192,-0.08932238456074026,0.10725667387706794,5,Swing,0.5601791863720597
1777151628766,0.18684,1.57064,0.15964,1.66753,2.47617,-0.453504,0,7.870169347921274,3.611,999,log_newX1.csv,0,False,1.326,79.45189773645362,1.5897497050793878,3.0195595784511355,0.562521,0.460278,-0.25837,-0.19066000000000005,0.14252910000000002,0.17343300000000003,0.005360000000000031,-0.10241999999999996,0.040669999999999984,-0.06579000000000024,0.15327000000000002,-0.006647999999999987,1.756200280425972,-2.599909120202298,-5.411544418557885,-4.7915257800708355,-0.2775227915744374,-0.1882004070136971,0.009137009113734162,-0.09811966476333378,-0.2775227915744374,0.009137009113734162,5,Swing,0.5601791863720597
1777151628780,0.337612,1.30172,0.246244,1.55729,2.4917,-0.235876,0,1.88160326615475,3.53968,999,log_newX1.csv,0,False,1.34,79.40763035183679,1.3671477346943892,2.9477717892462434,0.15077200000000002,-0.41174900000000003,-0.26892000000000005,-0.01055000000000006,0.08660399999999999,-0.05592510000000003,-0.1102399999999999,-0.11559999999999993,0.0155299999999996,-0.025140000000000384,0.21762800000000002,0.064358,-0.04426738461683044,-1.8004676650428024,-5.988566081766524,-0.5770216632086385,-0.22260197038499863,0.05492082118943875,-0.07178778920489215,-0.08092479831862631,-0.22260197038499863,-0.07178778920489215,5,Swing,0.5601791863720597
1777151628793,0.16165,1.19844,0.338025,1.47027,2.49763,-0.0754241,0,-0.6249864963731726,3.42129,999,log_newX1.csv,0,False,1.353,78.01390598737224,1.255647266044489,2.899230636679464,-0.17596200000000004,-0.3267340000000001,-0.10328000000000004,0.16564,0.09178100000000003,0.005177000000000043,-0.0870200000000001,0.023219999999999796,0.005930000000000213,-0.009599999999999387,0.1604519,-0.05717610000000001,-1.3937243644645463,-1.3494569798477158,-2.5065897625279225,3.4819763192386013,-0.11150046864990015,0.11110150173509847,-0.04854115256677938,0.023246636638112772,-0.11150046864990015,-0.04854115256677938,5,Swing,0.5601791863720597
1777151628807,0.45367,0.993845,0.469385,1.35357,2.4999,0.042005,0,-6.515442630175825,3.58911,999,log_newX1.csv,0,False,1.367,74.42220748327593,1.1890612394447984,2.8431349202816594,0.29202000000000006,0.4679820000000001,-0.20459499999999997,-0.10131499999999993,0.13135999999999998,0.03957899999999995,-0.11670000000000003,-0.02967999999999993,0.002269999999999772,-0.0036600000000004407,0.1174291,-0.043022800000000014,-3.591698504096314,-2.197974139631768,-5.890456133802652,-3.3838663712747294,-0.0665860265996907,0.04491444205020945,-0.05609571639780464,-0.007554563831025263,-0.0665860265996907,-0.05609571639780464,5,Swing,0.5601791863720597
1777151628820,0.87977,0.827332,0.523587,1.22441,2.47609,0.121912,0,-16.086010950843765,3.51253,999,log_newX1.csv,0,False,1.38,69.89699006453907,1.3162890403300485,2.7649708989325728,0.42610000000000003,0.13407999999999998,-0.16651300000000002,0.03808199999999995,0.05420200000000003,-0.07715799999999995,-0.12915999999999994,-0.012459999999999916,-0.023809999999999665,-0.026079999999999437,0.079907,-0.03752209999999999,-4.525217418736858,-0.933518914640544,-9.57056832066794,-3.680112186865288,0.1272278008852501,0.1938138274849408,-0.07816402134908662,-0.02206830495128198,0.1272278008852501,-0.07816402134908662,5,Swing,0.5310369689225358
1777151628834,0.888787,0.764296,0.449979,1.15191,2.00946,0.109172,0,-23.91356755135674,3.53146,999,log_newX1.csv,0,False,1.394,67.0915733058886,1.2556161067085752,2.318780857537857,0.009016999999999942,-0.4170830000000001,-0.06303599999999998,0.10347700000000004,-0.073608,-0.12781000000000003,-0.07250000000000001,0.05665999999999993,-0.4666300000000003,-0.44282000000000066,-0.012740000000000001,-0.09264700000000001,-2.805416758650466,1.719800660086392,-7.827556600512974,1.743011720154966,-0.0606729336214733,-0.1879007345067234,-0.44619004139471574,-0.3680260200456291,-0.0606729336214733,-0.44619004139471574,5,Swing,0.5310369689225358
1777151628848,0.589716,0.630767,0.420491,1.04948,1.6344,0.0477387,0,-27.686616897513808,3.59094,999,log_newX1.csv,0,False,1.408,64.17919150910375,0.9604398211371704,1.9429232135824848,-0.299071,-0.3080879999999999,-0.133529,-0.07049300000000003,-0.029488000000000014,0.04411999999999999,-0.10243000000000002,-0.029930000000000012,-0.3750599999999997,0.0915700000000006,-0.0614333,-0.0486933,-2.9123817967848566,-0.10696503813439051,-3.7730493461570696,4.054507254355904,-0.29517628557140474,-0.23450335194993144,-0.37585764395537224,0.0703323974393435,-0.29517628557140474,-0.37585764395537224,5,Swing,0.5310369689225358
1777151628861,0.3519,0.46246,0.395106,0.852126,1.46457,0.0290384,0,-28.325364234938522,3.58546,999,log_newX1.csv,0,False,1.421,60.21104283287514,0.702717306486755,1.694676144120333,-0.23781600000000003,0.06125499999999995,-0.16830699999999998,-0.034777999999999976,-0.02538499999999999,0.004103000000000023,-0.19735399999999992,-0.0949239999999999,-0.16983000000000015,0.20522999999999958,-0.018700300000000003,0.042733,-3.9681486762286085,-1.0557668794437518,-0.6387473374247143,3.134302008732355,-0.2577225146504154,0.03745377092098934,-0.2482470694621517,0.12761057449322055,-0.2577225146504154,-0.2482470694621517,5,Swing,0.5310369689225358
1777151628875,0.23959,0.260278,0.335448,0.546513,1.3915,0.0663373,0,-28.625372299655496,3.5529,999,log_newX1.csv,0,False,1.435,54.158803241174624,0.487517554645984,1.4964455708579212,-0.11231,0.12550600000000003,-0.20218199999999997,-0.03387499999999999,-0.05965799999999999,-0.034273,-0.305613,-0.1082590000000001,-0.07306999999999997,0.09676000000000018,0.0372989,0.055999200000000006,-6.052239591700513,-2.0840909154719043,-0.30000806471697317,0.3387392727077412,-0.215199751840771,0.0425227628096444,-0.1982305732624119,0.0500164961997398,-0.215199751840771,-0.1982305732624119,5,Swing,0.5310369689225358
1777151628889,0.132416,0.039908,0.173867,0.0908512,1.38722,0.136773,0,-30.77602902961684,3.75359,999,log_newX1.csv,0,False,1.449,43.01985168094187,0.2221629564283839,1.396903762780543,-0.10717399999999999,0.005136000000000002,-0.22037,-0.018188000000000037,-0.16158100000000003,-0.10192300000000004,-0.4556618,-0.15004879999999998,-0.0042800000000000615,0.0687899999999999,0.0704357,0.0331368,-11.138951560232755,-5.086711968532242,-2.1506567299613444,-1.8506486652443712,-0.2653545982176001,-0.0501548463768291,-0.09954180807737822,0.09868876518503367,-0.2653545982176001,-0.09954180807737822,5,Swing,0.5228879781943716
1777151628903,0.0623241,-0.122744,0.103314,-0.540589,1.42437,0.199439,0,-28.19696066339923,3.58803,999,log_newX1.csv,0,False,1.463,17.913578424702397,0.17211672078217735,1.5365032634335665,-0.07009190000000001,0.03708209999999998,-0.16265200000000002,0.05771799999999999,-0.07055299999999999,0.09102800000000004,-0.6314402,-0.1757784,0.037150000000000016,0.04143000000000008,0.062666,-0.007769700000000004,-25.106273256239472,-13.967321696006717,2.5790683662176086,4.729725096178953,-0.050046235646206555,0.21530836257139355,0.1395995006530235,0.23914130873040174,-0.050046235646206555,0.1395995006530235,5,Swing,0.5228879781943716
1777151628917,0.0710522,-0.129406,0.320825,-1.18935,1.42709,0.277252,0,-23.714943942278566,3.76629,999,log_newX1.csv,0,False,1.477,7.139626401443808,0.35316144832900437,1.8782992205993165,0.008728099999999996,0.07882,-0.006661999999999987,0.15599000000000002,0.217511,0.288064,-0.6487609999999999,-0.017320799999999914,0.0027200000000000557,-0.03442999999999996,0.077813,0.015146999999999994,-10.77395202325859,14.332321232980883,4.482016721120665,1.9029483549030566,0.18104472754682702,0.23109096319303357,0.34179595716575006,0.20219645651272655,0.18104472754682702,0.34179595716575006,5,Swing,0.5228879781943716
1777151628930,0.141077,0.08632,0.50623,-1.64601,1.33869,0.384063,0,-21.458114068527177,3.6354,999,log_newX1.csv,0,False,1.49,7.8250440644348105,0.5325623674547423,2.1561410492286908,0.07002480000000001,0.061296700000000016,0.21572599999999997,0.22238799999999997,0.18540499999999993,-0.03210600000000008,-0.45666000000000007,0.19210099999999986,-0.08840000000000003,-0.09112000000000009,0.10681099999999999,0.028997999999999996,0.6854176629910027,11.459369686249591,2.256829873751389,-2.225186847369276,0.1794009191257379,-0.0016438084210891046,0.27784182862937423,-0.06395412853637583,0.1794009191257379,0.27784182862937423,5,Swing,0.5228879781943716
1777151628944,0.240104,0.160229,0.569883,-1.93707,1.17216,0.490486,0,-21.625371543369997,3.68122,999,log_newX1.csv,0,False,1.504,9.953572399032717,0.638819142595148,2.3166302611111687,0.099027,0.029002199999999992,0.07390900000000002,-0.14181699999999997,0.06365300000000007,-0.12175199999999986,-0.2910600000000001,0.16559999999999997,-0.16652999999999984,-0.07812999999999981,0.10642299999999999,-0.00038799999999999946,2.128528334597907,1.4431106716069042,-0.1672574748428204,-2.4240873485942096,0.10625677514040577,-0.07314414398533214,0.1604892118824779,-0.11735261674689634,0.10625677514040577,0.1604892118824779,5,Swing,0.5228879781943716
1777151628958,0.26039,0.0305502,0.594511,-2.28583,1.02349,0.528872,0,-22.16563683487461,3.63307,999,log_newX1.csv,0,False,1.518,8.059265256674207,0.6497534885947439,2.559737518063913,0.020286,-0.078741,-0.1296788,-0.20358780000000004,0.024627999999999983,-0.03902500000000009,-0.34875999999999974,-0.05769999999999964,-0.14867000000000008,0.017859999999999765,0.03838600000000003,-0.06803699999999996,-1.8943071423585103,-4.022835476956417,-0.540265291504614,-0.3730078166617936,0.010934345999595863,-0.0953224291408099,0.24310725695274416,0.08261804507026627,0.010934345999595863,0.24310725695274416,1,Heel-strike,0.6517965688924708
1777151628972,0.290594,0.0992334,0.557242,-2.41904,0.900414,0.479938,0,-23.519318341501886,3.56087,999,log_newX1.csv,0,False,1.532,8.609868459644437,0.6362474259873748,2.6254219426294125,0.03020400000000001,0.00991800000000001,0.0686832,0.198362,-0.037269,-0.06189699999999998,-0.13321000000000005,0.2155499999999997,-0.12307599999999996,0.025594000000000117,-0.04893400000000003,-0.08732000000000006,0.5506032029702297,2.44491034532874,-1.3536815066272752,-0.8134162151226612,-0.013506062607369085,-0.024440408606964947,0.06568442456549972,-0.17742283238724443,-0.013506062607369085,0.06568442456549972,1,Heel-strike,0.6517965688924708
1777151628985,0.342699,0.353946,0.593256,-2.46993,0.77306,0.387884,0,-24.29348242826511,3.58024,999,log_newX1.csv,0,False,1.545,14.61033733455574,0.7711504762710064,2.6169887210219307,0.05210499999999996,0.02190099999999995,0.25471259999999996,0.18602939999999996,0.03601399999999999,0.07328299999999999,-0.050890000000000324,0.08231999999999973,-0.12735400000000008,-0.004278000000000115,-0.09205399999999997,-0.043119999999999936,6.000468874911304,5.449865671941074,-0.7741640867632249,0.5795174198640503,0.1349030502836316,0.14840911289100067,-0.008433221607481833,-0.07411764617298155,0.1349030502836316,-0.008433221607481833,1,Heel-strike,0.6517965688924708
1777151628999,0.390264,0.650826,0.564122,-2.48936,0.607508,0.326445,0,-24.3158303562309,3.63655,999,log_newX1.csv,0,False,1.559,23.923059528661053,0.9455760693122475,2.5831270812116465,0.047565000000000024,-0.004539999999999933,0.29688000000000003,0.04216740000000008,-0.029133999999999993,-0.06514799999999998,-0.019429999999999836,0.03146000000000049,-0.16555199999999992,-0.03819799999999984,-0.06143900000000002,0.030614999999999948,9.312722194105312,3.3122533191940082,-0.022347927965789438,0.7518161587974355,0.17442559304124106,0.03952254275760947,-0.03386163981028423,-0.025428418202802394,0.17442559304124106,-0.03386163981028423,1,Heel-strike,0.6517965688924708
1777151629013,0.383224,0.879659,0.516667,-2.49679,0.423449,0.346664,0,-23.308887028885678,3.53207,999,log_newX1.csv,0,False,1.573,33.55389312677793,1.0897730861725297,2.556060501748149,-0.007039999999999991,-0.054605000000000015,0.22883299999999995,-0.06804700000000008,-0.047455000000000025,-0.01832100000000003,-0.007429999999999826,0.01200000000000001,-0.18405900000000003,-0.018507000000000107,0.020219000000000042,0.08165800000000006,9.630833598116876,0.3181114040115638,1.0069433273452226,1.029291255311012,0.1441970168602822,-0.030228576180958866,-0.027066579463497664,0.006795060346786563,0.1441970168602822,-0.027066579463497664,1,Heel-strike,0.6517965688924708
1777151629026,0.230303,1.19337,0.449738,-2.49962,0.344464,0.45365,0,-19.777312886340873,3.51368,999,log_newX1.csv,0,False,1.586,43.22453857320901,1.2959304369266893,2.5636992636025,-0.152921,-0.145881,0.3137110000000001,0.08487800000000012,-0.06692899999999996,-0.019473999999999936,-0.0028300000000003322,0.004599999999999493,-0.07898500000000003,0.105074,0.10698599999999997,0.08676699999999993,9.670645446431081,0.03981184831420492,3.5315741425448053,2.5246308151995827,0.20615735075415964,0.06196033389387745,0.007638761854351195,0.03470534131784886,0.20615735075415964,0.007638761854351195,1,Heel-strike,0.811046709095469
1777151629040,-0.0117915,1.47597,0.35502,-2.5007,0.467529,0.616895,0,-14.314120562132738,3.42627,999,log_newX1.csv,0,False,1.6,52.2074588936124,1.5181125389022547,2.617755392863512,-0.24209450000000002,-0.08917350000000002,0.28259999999999996,-0.03111100000000011,-0.09471800000000002,-0.027789000000000064,-0.0010799999999999699,0.0017500000000003624,0.12306499999999998,0.20205,0.16324499999999997,0.056259,8.982920320403387,-0.6877251260276935,5.463192324208135,1.93161818166333,0.22218210197556543,0.016024751221405786,0.05405612926101222,0.046417367406661025,0.22218210197556543,0.05405612926101222,1,Heel-strike,0.811046709095469
1777151629056,-0.148491,1.61146,0.255991,-2.50112,0.726508,0.786532,0,-9.042280941708293,5.40753,999,log_newX1.csv,0,False,1.616,59.97881416102529,1.6384090761351389,2.720670453305214,-0.1366995,0.10539500000000002,0.1354899999999999,-0.14711000000000007,-0.09902899999999998,-0.004310999999999954,-0.0004199999999996429,0.000660000000000327,0.25897900000000007,0.1359140000000001,0.16963700000000004,0.006392000000000064,7.771355267412893,-1.211565052990494,5.271839620424444,-0.19135270378369107,0.12029653723288414,-0.10188556474268129,0.10291506044170173,0.04885893118068951,0.12029653723288414,0.10291506044170173,1,Heel-strike,0.811046709095469
1777151629069,-0.169646,1.75176,0.211699,-2.50128,0.997817,0.942052,0,-5.115823328377601,3.68031,999,log_newX1.csv,0,False,1.629,66.22764776432506,1.772641906736101,2.852981313397093,-0.02115499999999998,0.11554450000000002,0.1403000000000001,0.004810000000000203,-0.044292000000000026,0.05473699999999995,-0.00016000000000016001,0.00025999999999948287,0.2713089999999999,0.012329999999999841,0.15552,-0.014117000000000046,6.248833603299765,-1.5225216641131283,3.926457613330692,-1.345382007093752,0.13423283060096214,0.013936293368078001,0.13231086009187898,0.029395799650177246,0.13423283060096214,0.13231086009187898,1,Heel-strike,0.811046709095469
1777151629083,-0.153112,1.87738,0.17029,-2.50134,1.25629,1.07123,0,-2.4792739488419935,3.84474,999,log_newX1.csv,0,False,1.643,71.24970402715186,1.8912952263049785,2.9970819262409227,0.016533999999999993,0.03768899999999997,0.12562000000000006,-0.014680000000000026,-0.041409,0.0028830000000000244,-5.999999999994898e-05,0.00010000000000021103,0.25847299999999995,-0.012835999999999959,0.1291779999999999,-0.026342000000000088,5.022056262826808,-1.2267773404729567,2.636549379535608,-1.2899082337950842,0.11865331956887748,-0.015579511032084659,0.1441006128438298,0.011789752751950822,0.11865331956887748,0.1441006128438298,1,Heel-strike,0.811046709095469
1777151629097,-0.0964678,1.94712,0.0955407,-2.50136,1.46621,1.11902,0,-1.0441487851793694,3.5972,999,log_newX1.csv,0,False,1.657,75.55631197932878,1.9518479336755026,3.1078576824076096,0.05664419999999999,0.0401102,0.06973999999999991,-0.05588000000000015,-0.07474929999999999,-0.03334029999999999,-2.0000000000131024e-05,3.999999999981796e-05,0.2099200000000001,-0.048552999999999846,0.04779,-0.0813879999999999,4.306607952176918,-0.7154483106498901,1.435125163662624,-1.2014242158729838,0.060552707370524095,-0.058100612198353385,0.11077575616668689,-0.03332485667714291,0.060552707370524095,0.11077575616668689,1,Heel-strike,1.0
1777151629111,0.098909,2.02536,0.00923111,-2.50137,1.57291,1.06466,0,-1.5173694935459343,3.61918,999,log_newX1.csv,0,False,1.671,79.38781576467927,2.027794697022564,3.1407640249786355,0.19537680000000002,0.13873260000000004,0.07824000000000009,0.008500000000000174,-0.08630959,-0.011560290000000015,-1.0000000000065512e-05,1.0000000000065512e-05,0.10670000000000002,-0.10322000000000009,-0.054359999999999964,-0.10214999999999996,3.831503785350492,-0.4751041668264264,-0.47322070836656493,-1.908345872029189,0.07594676334706163,0.015394055976537535,0.03290634257102587,-0.07786941359566102,0.07594676334706163,0.03290634257102587,1,Heel-strike,1.0
1777151629125,0.285964,2.15302,-0.0675551,-2.48453,1.59362,0.949874,0,-3.1503806814366007,3.64946,999,log_newX1.csv,0,False,1.685,82.7402811124037,2.172978191614451,3.1007700077845177,0.187055,-0.008321800000000018,0.1276600000000001,0.04942000000000002,-0.07678621000000001,0.009523379999999998,0.016840000000000188,0.016850000000000254,0.020710000000000006,-0.08599000000000001,-0.11478599999999994,-0.06042599999999998,3.3524653477244186,-0.47903843762607323,-1.6330111878906663,-1.1597904795241014,0.14518349459188684,0.06923673124482521,-0.03999401719411777,-0.07290035976514364,0.14518349459188684,-0.03999401719411777,1,Heel-strike,1.0
1777151629138,0.506101,2.20173,-0.182665,-2.22183,1.52505,0.803794,0,-5.785000204074214,3.57574,999,log_newX1.csv,0,False,1.698,85.98279376666163,2.2665215016244606,2.8121861328574966,0.22013700000000003,0.03308200000000003,0.04870999999999981,-0.0789500000000003,-0.11510989999999999,-0.03832368999999998,0.2626999999999997,0.24585999999999952,-0.06857000000000002,-0.08928000000000003,-0.14608,-0.031294000000000044,3.2425126542579363,-0.10995269346648229,-2.634619522637613,-1.0016083347469467,0.0935433100100096,-0.051640184581877246,-0.2885838749270211,-0.24858985773290332,0.0935433100100096,-0.2885838749270211,1,Heel-strike,1.0
1777151629152,0.784732,2.12669,-0.333453,-1.91343,1.25608,0.638732,0,-9.633035115484969,3.71913,999,log_newX1.csv,0,False,1.712,89.47545678836899,2.291245419227936,2.3763269764752493,0.27863099999999996,0.058493999999999935,-0.07504,-0.1237499999999998,-0.150788,-0.03567810000000002,0.30840000000000023,0.04570000000000052,-0.26896999999999993,-0.2003999999999999,-0.16506200000000004,-0.018982000000000054,3.492663021707358,0.25015036744942165,-3.848034911410755,-1.213415388773142,0.024723917603475254,-0.06881939240653434,-0.43585915638224737,-0.14727528145522628,0.024723917603475254,-0.43585915638224737,1,Heel-strike,1.0
1777151629166,0.836673,2.03035,-0.472052,-1.63461,0.816207,0.471797,0,-12.938771035512428,3.56638,999,log_newX1.csv,0,False,1.726,93.1531362207947,2.2461469057327927,1.8869912898998764,0.051941000000000015,-0.22668999999999995,-0.09634000000000009,-0.021300000000000097,-0.13859900000000003,0.012188999999999978,0.27882000000000007,-0.02958000000000016,-0.43987300000000007,-0.17090300000000014,-0.16693499999999994,-0.0018729999999999025,3.6776794324257196,0.1850164107183616,-3.305735920027459,0.5422989913832961,-0.045098513495143155,-0.06982243109861841,-0.48933568657537285,-0.05347653019312548,-0.045098513495143155,-0.48933568657537285,1,Heel-strike,1.0
1777151629180,0.64115,1.90216,-0.571133,-1.36454,0.38187,0.312262,0,-14.276765971524306,3.7522,999,log_newX1.csv,0,False,1.74,96.8163220035208,2.086978411912543,1.450965769804374,-0.195523,-0.24746400000000002,-0.1281899999999998,-0.03184999999999971,-0.09908099999999997,0.03951800000000005,0.2700699999999998,-0.008750000000000258,-0.43433700000000003,0.005536000000000041,-0.15953500000000004,0.007399999999999907,3.6631857827260887,-0.01449364969963085,-1.337994936011878,1.967740984015581,-0.15916849382024978,-0.11406998032510662,-0.43602552009550233,0.053310166479870524,-0.15916849382024978,-0.43602552009550233,1,Heel-strike,1.0
1777151629193,0.434678,1.87116,-0.684809,-1.01677,0.0340492,0.208063,0,-13.74447088316875,3.51327,999,log_newX1.csv,0,False,1.753,100.40544008826927,2.0393989496332,1.0383981860970481,-0.206472,-0.010948999999999987,-0.03100000000000014,0.09718999999999967,-0.113676,-0.014595000000000025,0.34777000000000013,0.07770000000000032,-0.3478208,0.08651620000000004,-0.10419899999999999,0.05533600000000005,3.5891180847484776,-0.07406769797761115,0.5322950883555553,1.8702900243674332,-0.047579462279343065,0.11158903154090671,-0.41256758370732594,0.023457936388176392,-0.047579462279343065,-0.41256758370732594,1,Heel-strike,1.0
1777151629207,0.190411,1.8044,-0.778351,-0.614449,-0.170895,0.15727,0,-11.52647535797039,3.47451,999,log_newX1.csv,0,False,1.767,103.89805451870109,1.9743216526498413,0.6568763411221324,-0.244267,-0.03779500000000002,-0.06675999999999993,-0.03575999999999979,-0.09354200000000001,0.020133999999999985,0.40232099999999993,0.054550999999999794,-0.2049442,0.1428766,-0.050793000000000005,0.05340599999999998,3.4926144304318143,-0.0965036543166633,2.2179955251983596,1.6857004368428044,-0.06507729698335862,-0.017497834704015558,-0.3815218449749157,0.031045738732410233,-0.06507729698335862,-0.3815218449749157,1,Heel-strike,1.0
1777151629223,0.0366231,1.70278,-0.773529,-0.180915,-0.248893,0.0817736,0,-8.715593878790834,5.77962,999,log_newX1.csv,0,False,1.783,106.74361471809534,1.8706009979935887,0.3183785236647723,-0.1537879,0.0904791,-0.10162000000000004,-0.03486000000000011,0.004821999999999993,0.09836400000000001,0.43353400000000003,0.031213000000000102,-0.07799800000000001,0.12694619999999998,-0.07549639999999999,-0.024703399999999986,2.8455601993942565,-0.6470542310375578,2.8108814791795567,0.592885953981197,-0.10372065465625258,-0.03864335767289395,-0.33849781745736013,0.043024027517555574,-0.10372065465625258,-0.33849781745736013,1,Heel-strike,1.0
1777151629237,0.0672494,1.62272,-0.645162,0.213305,-0.308692,0.000191521,0,-6.956821904797312,3.56216,999,log_newX1.csv,0,False,1.797,108.07769856056053,1.7475630708058465,0.3752196830781848,0.030626300000000002,0.1844142,-0.08006000000000002,0.021560000000000024,0.128367,0.12354500000000002,0.39422,-0.039314000000000016,-0.05979900000000002,0.018198999999999993,-0.081582079,-0.0060856790000000105,1.3340838424651906,-1.511476356929066,1.7587719739935217,-1.052109505186035,-0.1230379271877422,-0.019317272531489627,0.0568411594134125,0.39533897687077263,-0.1230379271877422,0.0568411594134125,1,Heel-strike,1.0
1777151629250,0.147469,1.48984,-0.492424,0.53698,-0.380456,-0.0526249,0,-6.52787167675358,3.46994,999,log_newX1.csv,0,False,1.81,108.13500607899842,1.5760240249872464,0.6601997185973424,0.08021959999999999,0.049593299999999986,-0.1328799999999999,-0.05281999999999987,0.15273800000000004,0.02437100000000003,0.32367500000000005,-0.07054499999999997,-0.071764,-0.011964999999999976,-0.052816421,0.028765658,0.057307518437880844,-1.2767763240273098,0.42895022804373273,-1.329821745949789,-0.17153904581860013,-0.04850111863085793,0.28498003551915757,0.22813887610574507,-0.17153904581860013,0.28498003551915757,1,Heel-strike,1.0
1777151629264,0.211368,1.34094,-0.352038,0.751054,-0.468916,-0.096907,0,-7.106197096291482,3.80687,999,log_newX1.csv,0,False,1.824,107.20970665962454,1.402400537816497,0.8907049413924906,0.06389900000000001,-0.016320599999999977,-0.14890000000000003,-0.016020000000000145,0.14038599999999996,-0.012352000000000085,0.214074,-0.10960100000000006,-0.08845999999999998,-0.01669599999999999,-0.04428209999999999,0.008534321000000011,-0.9252994193738715,-0.9826069378117523,-0.5783254195379026,-1.0072756475816353,-0.17362348717074938,-0.0020844413521492466,0.23050522279514818,-0.05447481272400939,-0.17362348717074938,0.23050522279514818,1,Heel-strike,1.0
1777151629278,0.24369,1.23706,-0.166956,0.865187,-0.582153,-0.162415,0,-8.170674138899042,3.52718,999,log_newX1.csv,0,False,1.838,104.63690062886403,1.2718398348990332,1.0553811124911228,0.03232199999999999,-0.03157700000000002,-0.10387999999999997,0.04502000000000006,0.18508200000000002,0.04469600000000007,0.11413300000000004,-0.09994099999999995,-0.11323700000000003,-0.02477700000000005,-0.06550800000000001,-0.02122590000000002,-2.5728060307605176,-1.6475066113866461,-1.0644770426075594,-0.48615162306965676,-0.1305607029174638,0.04306278425328558,0.1646761710986322,-0.06582905169651598,-0.1305607029174638,0.1646761710986322,1,Heel-strike,1.0
1777151629292,0.139034,0.969357,0.0945964,0.894157,-0.675792,-0.256977,0,-8.158103095555509,3.41813,999,log_newX1.csv,0,False,1.852,99.17689194417076,0.9838353142157279,1.1498907541336263,-0.104656,-0.136978,-0.267703,-0.16382300000000005,0.2615524,0.0764704,0.02896999999999994,-0.0851630000000001,-0.09363899999999992,0.019598000000000115,-0.09456200000000001,-0.029053999999999996,-5.460008684693264,-2.8872026539327464,0.01257104334353265,1.077048085951092,-0.2880045206833053,-0.1574438177658415,0.09450964164250353,-0.07016652945612867,-0.2880045206833053,0.09450964164250353,1,Heel-strike,1.0
1777151629305,0.0382964,0.521947,1.91447,0.684051,-0.723731,-0.338576,0,-6.252833496484988,3.54731,999,log_newX1.csv,0,False,1.865,76.50354008882854,1.9847142529749617,1.0518298525607648,-0.10073759999999998,0.003918400000000016,-0.44741,-0.17970699999999995,1.8198736,1.5583212,-0.21010600000000001,-0.23907599999999996,-0.047939000000000065,0.04569999999999985,-0.08159899999999998,0.01296300000000003,-22.67335185534222,-17.213343170648955,1.9052695990705208,1.8926985557269882,1.0008789387592338,1.2888834594425391,-0.09806090157286151,-0.19257054321536504,1.0008789387592338,-0.09806090157286151,1,Heel-strike,1.0
1777151629319,-0.144619,1.46016,1.55113,0.873185,-0.734682,-0.258923,0,-3.514384087551815,3.48855,999,log_newX1.csv,0,False,1.879,67.52519584229833,2.1351782496224994,1.1701499071819814,-0.1829154,-0.08217780000000002,0.9382129999999999,1.3856229999999998,-0.36334,-2.1832136,0.18913400000000002,0.39924000000000004,-0.010950999999999933,0.03698800000000013,0.07965299999999997,0.16125199999999995,-8.978344246530213,13.695007608812006,2.7384494089331732,0.8331798098626524,0.15046399664753762,-0.8504149421116962,0.11832005462121664,0.21638095619407816,0.15046399664753762,0.11832005462121664,1,Heel-strike,1.0
1777151629333,-0.0429087,1.38983,0.3238,1.87941,-0.752405,-0.040965,0,-2.09967320341858,3.57514,999,log_newX1.csv,0,False,1.893,70.05388067271694,1.4276957047759478,2.0248390956690856,0.1017103,0.2846257,-0.07033,-1.008543,-1.2273299999999998,-0.8639899999999998,1.0062250000000001,0.8170910000000001,-0.017723000000000044,-0.006772000000000111,0.217958,0.13830500000000004,2.5286848304186123,11.507029076948825,1.414710884133235,-1.3237385247999383,-0.7074825448465516,-0.8579465414940892,0.8546891884871042,0.7363691338658875,-0.7074825448465516,0.8546891884871042,1,Heel-strike,1.0
1777151629346,-0.368596,0.645537,-0.221917,1.18711,-0.576878,0.0539877,0,6.131344539812825,3.53766,999,log_newX1.csv,0,False,1.906,80.5677150690908,0.7757758596875776,1.320959140448822,-0.32568729999999996,-0.42739759999999993,-0.7442929999999999,-0.6739629999999999,-0.545717,0.6816129999999998,-0.6922999999999999,-1.698525,0.175527,0.19325000000000003,0.0949527,-0.12300530000000001,10.513834396373852,7.98514956595524,8.231017743231405,6.8163068590981695,-0.6519198450883702,0.0555626997581814,-0.7038799552202637,-1.5585691437073679,-0.6519198450883702,-0.7038799552202637,1,Heel-strike,1.0
1777151629360,-0.0804029,0.786901,0.417121,0.685079,-0.369054,0.0627516,0,5.868534218884947,3.53405,999,log_newX1.csv,0,False,1.92,75.57119954899869,0.8942414320363433,0.7806867838381536,0.2881931,0.6138804,0.14136399999999993,0.8856569999999998,0.639038,1.184755,-0.5020310000000001,0.1902689999999998,0.207824,0.03229700000000002,0.008763900000000005,-0.0861888,-4.996515520092103,-15.510349916465955,-0.26281032092787804,-8.493828064159283,0.11846557234876576,0.770385417437136,-0.5402723566106683,0.1636075986095954,0.11846557234876576,-0.5402723566106683,1,Heel-strike,1.0
1777151629373,0.0153426,1.25921,0.366705,0.987843,-0.274527,0.0313288,0,4.1020450721852955,3.42294,999,log_newX1.csv,0,False,1.933,75.08283110497298,1.3116088504198804,1.0257584316433572,0.0957455,-0.1924476,0.472309,0.33094500000000004,-0.050416000000000016,-0.689454,0.30276400000000003,0.8047950000000001,0.09452699999999997,-0.11329700000000004,-0.03142280000000001,-0.04018670000000001,-0.4883684440257099,4.508147076066393,-1.7664891466996515,-1.5036788257717735,0.4173674183835371,0.2989018460347713,0.24507164780520363,0.7853440044158719,0.4173674183835371,0.24507164780520363,1,Heel-strike,0.8487509196513359
1777151629387,-0.192403,0.980128,0.303625,1.11141,-0.118683,0.0679198,0,5.863008908440562,3.60927,999,log_newX1.csv,0,False,1.947,74.46287197624264,1.0439626197417224,1.1197905794482466,-0.2077456,-0.3034911,-0.27908199999999994,-0.7513909999999999,-0.06308000000000002,-0.012664000000000009,0.12356699999999998,-0.17919700000000005,0.15584400000000004,0.061317000000000066,0.036591000000000005,0.06801380000000001,-0.6199591287303434,-0.13159068470463353,1.7609638362552662,3.5274529829549177,-0.26764623067815796,-0.685013649061695,0.09403214780488933,-0.1510395000003143,-0.26764623067815796,0.09403214780488933,1,Heel-strike,0.8487509196513359
1777151629401,-0.115572,0.67044,0.300206,0.884132,0.143238,0.278771,0,6.694560289270879,3.58025,999,log_newX1.csv,0,False,1.961,72.14371740237665,0.743619743699695,0.9380403981220639,0.076831,0.2845766,-0.30968799999999996,-0.030606000000000022,-0.0034190000000000054,0.05966100000000002,-0.22727799999999998,-0.35084499999999996,0.261921,0.10607699999999998,0.2108512,0.17426019999999998,-2.319154573865987,-1.6991954451356435,0.8315513808303177,-0.9294124554249485,-0.3003428760420275,-0.032696645363869514,-0.1817501813261827,-0.27578232913107203,-0.3003428760420275,-0.1817501813261827,1,Heel-strike,0.8487509196513359
1777151629414,0.187292,0.892264,0.219143,0.741271,0.332073,0.516412,0,1.7733007015978952,3.67324,999,log_newX1.csv,0,False,1.974,73.23984279935311,0.9376763798928711,0.962515727930718,0.30286399999999997,0.22603299999999998,0.2218239999999999,0.5315119999999999,-0.08106299999999997,-0.07764399999999996,-0.14286100000000002,0.08441699999999996,0.188835,-0.07308600000000001,0.237641,0.026789800000000003,1.0961253969764613,3.415279970842448,-4.921259587672984,-5.752810968503302,0.19405663619317615,0.4943995122352036,0.02447532980865419,0.2062255111348369,0.19405663619317615,0.02447532980865419,1,Heel-strike,0.8487509196513359
1777151629428,0.415237,0.9635,0.240564,0.713075,0.318148,0.495465,0,-4.8359734054521795,3.58096,999,log_newX1.csv,0,False,1.988,73.98042774754143,1.076394469636945,0.9247592506993374,0.22794500000000004,-0.07491899999999993,0.07123600000000008,-0.15058799999999983,0.021420999999999996,0.10248399999999996,-0.028196,0.11466500000000002,-0.01392500000000002,-0.20276000000000002,-0.020946999999999993,-0.258588,0.7405849481883138,-0.3555404487881475,-6.609274107050075,-1.6880145193770906,0.13871808974407385,-0.0553385464491023,-0.03775647723138065,-0.06223180704003484,0.13871808974407385,-0.03775647723138065,1,Heel-strike,0.8487509196513359
1777151629442,0.423712,0.91193,0.248784,0.628754,0.166907,0.208264,0,-10.0522506699781,3.50376,999,log_newX1.csv,0,False,2.002,74.18575182812755,1.03587724296849,0.683054487475926,0.008474999999999955,-0.21947000000000008,-0.051570000000000005,-0.12280600000000008,0.008220000000000005,-0.01320099999999999,-0.08432099999999998,-0.05612499999999998,-0.151241,-0.13731599999999997,-0.287201,-0.266254,0.20532408058612361,-0.5352608676021902,-5.216277264525921,1.3929968425241537,-0.04051722666845503,-0.17923531641252888,-0.2417047632234114,-0.20394828599203074,-0.04051722666845503,-0.2417047632234114,1,Heel-strike,0.6865419130584491
1777151629456,0.278102,0.919667,0.23951,0.546821,0.144852,-0.0329703,0,-11.74315217817471,3.54677,999,log_newX1.csv,0,False,2.016,74.51450267791941,0.9901985424110662,0.5666412874359669,-0.14560999999999996,-0.15408499999999992,0.007736999999999994,0.059307,-0.009274000000000004,-0.01749400000000001,-0.08193300000000003,0.0023879999999999457,-0.02205499999999999,0.129186,-0.2412343,0.04596669999999997,0.3287508497918594,0.12342676920573581,-1.6909015081966103,3.5253757563293107,-0.045678700557423735,-0.005161473888968704,-0.11641320003995914,0.12529156318345225,-0.045678700557423735,-0.11641320003995914,1,Heel-strike,0.6865419130584491
1777151629469,0.252092,0.889047,0.247286,0.527225,0.167896,-0.0745856,0,-12.698488219296069,3.58716,999,log_newX1.csv,0,False,2.029,74.49876178631355,0.956611368565626,0.5583173642010071,-0.026010000000000033,0.11959999999999993,-0.03061999999999998,-0.038356999999999974,0.007776000000000005,0.01705000000000001,-0.019595999999999947,0.06233700000000009,0.02304399999999998,0.04509899999999997,-0.0416153,0.19961900000000002,-0.015740891605858565,-0.344491741397718,-0.9553360411213578,0.7355654670752525,-0.03358717384544019,0.012091526711983547,-0.008323923234959785,0.10808927680499936,-0.03358717384544019,-0.008323923234959785,1,Heel-strike,0.6865419130584491
1777151629483,0.301499,0.865615,0.209227,0.481243,0.0818694,-0.0375946,0,-14.320880642475524,3.89948,999,log_newX1.csv,0,False,2.043,75.01555747570026,0.9401951461026589,0.4896026732509944,0.049407000000000034,0.07541700000000007,-0.02343200000000001,0.007187999999999972,-0.03805900000000001,-0.045835000000000015,-0.04598200000000008,-0.02638600000000013,-0.0860266,-0.10907059999999998,0.036991,0.0786063,0.5167956893867114,0.53253658099257,-1.6223924231794555,-0.6670563820580977,-0.016416222462967145,0.017170951382473043,-0.0687146909500127,-0.06039076771505292,-0.016416222462967145,-0.0687146909500127,1,Heel-strike,0.6865419130584491
1777151629497,0.228665,0.919824,0.227605,0.411123,-0.0436948,-0.0811641,0,-14.117252443668887,3.40688,999,log_newX1.csv,0,False,2.057,75.30897712016156,0.9747655662906851,0.4213299987003655,-0.07283400000000001,-0.12224100000000004,0.05420899999999995,0.07764099999999996,0.018378000000000005,0.056437000000000015,-0.07011999999999996,-0.024137999999999882,-0.1255642,-0.03953759999999999,-0.043569500000000004,-0.08056050000000001,0.2934196444612951,-0.2233760449254163,0.20362819880663707,1.8260206219860926,0.03457042018802625,0.0509866426509934,-0.06827267455062885,0.00044201639938384885,0.03457042018802625,-0.06827267455062885,1,Heel-strike,0.6865419130584491
1777151629511,0.194459,0.957472,0.216468,0.390189,-0.126568,-0.160364,0,-13.330498965676167,3.71711,999,log_newX1.csv,0,False,2.071,75.83621394266848,1.000712410480154,0.44043561032346146,-0.034206000000000014,0.038627999999999996,0.037648000000000015,-0.016560999999999937,-0.011137000000000008,-0.029515000000000013,-0.020934000000000008,0.04918599999999995,-0.08287320000000001,0.04269099999999998,-0.0791999,-0.0356304,0.5272368225069215,0.2338171780456264,0.7867534779927201,0.583125279186083,0.0259468441894688,-0.008623575998557453,0.01910561162309593,0.08737828617372478,0.0259468441894688,0.01910561162309593,1,Heel-strike,0.6507631992998718
1777151629524,0.131134,0.939127,0.245001,0.366153,-0.176433,-0.161036,0,-11.807963472715747,3.5182,999,log_newX1.csv,0,False,2.084,75.71255368021713,0.9793779342449982,0.43718327529080986,-0.06332499999999999,-0.029118999999999978,-0.018344999999999945,-0.05599299999999996,0.028533000000000003,0.03967000000000001,-0.024036000000000002,-0.0031019999999999937,-0.04986499999999999,0.033008200000000015,-0.0006720000000000059,0.0785279,-0.12366026245135231,-0.6508970849582738,1.5225354929604205,0.7357820149677003,-0.02133447623515572,-0.04728132042462452,-0.0032523350326515987,-0.02235794665574753,-0.02133447623515572,-0.0032523350326515987,1,Heel-strike,0.6507631992998718
1777151629538,0.0390646,0.959049,0.196903,0.348527,-0.150567,-0.0902888,0,-9.23525166899117,3.47979,999,log_newX1.csv,0,False,2.098,76.43798754772806,0.9798325462971517,0.3902480731835072,-0.0920694,-0.028744400000000003,0.019921999999999995,0.03826699999999994,-0.048098,-0.076631,-0.01762600000000003,0.006409999999999971,0.025866,0.07573099999999999,0.07074720000000001,0.07141920000000002,0.7254338675109295,0.8490941299622818,2.5727118037245766,1.0501763107641562,0.0004546120521534691,0.02178908828730919,-0.046935202107302676,-0.04368286707465108,0.0004546120521534691,-0.046935202107302676,1,Heel-strike,0.6507631992998718
1777151629552,0.0410498,0.952218,0.218009,0.323206,-0.0745898,-0.0527924,0,-7.390365041203101,3.57642,999,log_newX1.csv,0,False,2.112,76.61803962783252,0.9777178170029633,0.3358761590196601,0.0019851999999999995,0.09405459999999999,-0.0068310000000000315,-0.026753000000000027,0.021106000000000014,0.06920400000000002,-0.025320999999999982,-0.007694999999999952,0.07597720000000001,0.05011120000000001,0.0374964,-0.03325080000000001,0.18005208010445983,-0.5453817874064697,1.8448866277880693,-0.7278251759365073,-0.0021147292941883222,-0.0025693413463417913,-0.05437191416384707,-0.007436712056544392,-0.0021147292941883222,-0.05437191416384707,1,Heel-strike,0.6507631992998718
1777151629566,0.0880443,0.961938,0.187553,0.314242,-0.0357562,-0.0635688,0,-6.780649879233307,3.60238,999,log_newX1.csv,0,False,2.126,77.25268539629572,0.9839982939088309,0.3225949980019529,0.04699450000000001,0.04500930000000001,0.009719999999999951,0.016550999999999982,-0.03045600000000001,-0.051562000000000024,-0.008963999999999972,0.01635700000000001,0.038833599999999996,-0.03714360000000001,-0.010776399999999992,-0.04827279999999999,0.6346457684632014,0.4545936883587416,0.6097151619697936,-1.2351714658182757,0.006280476905867527,0.00839520620005585,-0.01328116101770721,0.04109075314613986,0.006280476905867527,-0.01328116101770721,1,Heel-strike,0.6507631992998718
1777151629579,0.0927412,0.941062,0.175928,0.283738,-0.0271978,-0.0641467,0,-6.443603269687048,3.55794,999,log_newX1.csv,0,False,2.139,77.8357670871958,0.9618468065162145,0.29216736999488835,0.00469689999999999,-0.04229760000000002,-0.020876000000000006,-0.030595999999999957,-0.011624999999999996,0.018831000000000014,-0.03050400000000003,-0.02154000000000006,0.0085584,-0.030275199999999995,-0.0005779000000000062,0.010198499999999985,0.5830816909000873,-0.0515640775631141,0.33704660954625876,-0.2726685524235348,-0.02215148739261641,-0.028431964298483936,-0.030427628007064556,-0.017146466989357345,-0.02215148739261641,-0.030427628007064556,1,Heel-strike,0.5117733879973682
1777151629594,0.0623009,0.961659,0.17616,0.259396,-0.00199092,-0.0405896,0,-5.6878707864957345,4.07337,999,log_newX1.csv,0,False,2.154,78.31764053875838,0.979643700547199,0.26256002019844227,-0.030440299999999997,-0.035137199999999986,0.020597000000000087,0.04147300000000009,0.00023200000000000998,0.011857000000000006,-0.024341999999999975,0.006162000000000056,0.02520688,0.01664848,0.023557099999999997,0.024135000000000004,0.48187345156257777,-0.10120823933750955,0.7557324831913137,0.41868587364505494,0.0177968940309845,0.03994838142360091,-0.02960734979644608,0.0008202782106184747,0.0177968940309845,-0.02960734979644608,1,Heel-strike,0.5117733879973682
1777151629608,0.100514,0.95521,0.179711,0.235425,0.0199508,-0.025081,0,-5.746295293950579,4.0855,999,log_newX1.csv,0,False,2.168,78.59520237097132,0.9771516012456819,0.23759634173665217,0.03821310000000001,0.0686534,-0.006449000000000038,-0.027046000000000125,0.0035509999999999986,0.0033189999999999886,-0.02397100000000002,0.0003709999999999547,0.02194172,-0.0032651599999999996,0.015508600000000004,-0.008048499999999993,0.27756183221293895,-0.20431161934963882,-0.05842450745484484,-0.8141569906461585,-0.002492099301517059,-0.02028899333250156,-0.024963678461790095,0.0046436713346559855,-0.002492099301517059,-0.024963678461790095,1,Heel-strike,0.5117733879973682
1777151629622,0.172414,0.953465,0.174397,0.203199,-0.029839,-0.0250545,0,-6.918735572063032,3.46696,999,log_newX1.csv,0,False,2.182,78.87602506989262,0.9844980483627177,0.2069007672587272,0.0719,0.0336869,-0.0017449999999999966,0.0047040000000000415,-0.005314000000000013,-0.008865000000000012,-0.032226000000000005,-0.008254999999999985,-0.0497898,-0.07173152000000001,2.6499999999998747e-05,-0.015482100000000006,0.2808226989212983,0.0032608667083593446,-1.172440278112453,-1.1140157706576082,0.007346447117035804,0.009838546418552863,-0.03069557447792498,-0.005731896016134885,0.007346447117035804,-0.03069557447792498,1,Heel-strike,0.5117733879973682
1777151629635,0.158804,0.972273,0.187918,0.190937,-0.0963653,-0.0376882,0,-7.510897783300385,3.71055,999,log_newX1.csv,0,False,2.195,78.92597733433047,1.002919075334097,0.2171718430928144,-0.013610000000000011,-0.08551000000000002,0.018808000000000047,0.020553000000000043,0.013521000000000005,0.01883500000000002,-0.012261999999999995,0.01996400000000001,-0.0665263,-0.016736499999999994,-0.012633699999999998,-0.012660199999999996,0.049952264437848726,-0.23087043448344957,-0.592162211237353,0.5802780668751,0.018421026971379373,0.01107457985434357,0.010271075834087207,0.04096665031201219,0.018421026971379373,0.010271075834087207,1,Heel-strike,0.5117733879973682
1777151629650,0.138364,0.970546,0.183165,0.192151,-0.138713,-0.05077,0,-7.636189820811967,3.52025,999,log_newX1.csv,0,False,2.21,79.0304339382835,0.9973231932713689,0.2423652121695686,-0.020440000000000014,-0.006830000000000003,-0.001727000000000034,-0.02053500000000008,-0.004753000000000007,-0.018274000000000012,0.0012139999999999929,0.013475999999999988,-0.0423477,0.024178599999999995,-0.013081800000000005,-0.0004481000000000068,0.10445660395302525,0.054504339515176525,-0.12529203751158136,0.46687017372577166,-0.005595882062728208,-0.02401690903410758,0.025193369076754207,0.014922293242667,-0.005595882062728208,0.025193369076754207,5,Swing,0.4191926761688593
1777151629664,0.145361,0.97595,0.191237,0.197332,-0.168381,-0.0615697,0,-7.819754100454781,3.52638,999,log_newX1.csv,0,False,2.224,78.99881272499309,1.0050770184368956,0.2666137793571255,0.006997000000000003,0.027437000000000017,0.005403999999999964,0.0071309999999999985,0.008071999999999996,0.012825000000000003,0.005181000000000019,0.003967000000000026,-0.029668,0.012679700000000002,-0.010799699999999995,0.002282100000000009,-0.03162121329040701,-0.13607781724343226,-0.1835642796428143,-0.05827224213123294,0.007753825165526695,0.013349707228254903,0.024248567187556885,-0.000944801889197322,0.007753825165526695,0.024248567187556885,5,Swing,0.4191926761688593
1777151629677,0.129898,0.983815,0.191186,0.211625,-0.173628,-0.0789991,0,-7.702290479746425,3.52577,999,log_newX1.csv,0,False,2.237,78.99986519166113,1.010602558489241,0.2849081971614892,-0.015462999999999977,-0.02245999999999998,0.007865000000000011,0.0024610000000000465,-5.099999999999549e-05,-0.008122999999999991,0.014293,0.009111999999999981,-0.005247000000000002,0.024420999999999998,-0.017429400000000005,-0.006629700000000009,0.0010524666680424843,0.0326736799584495,0.1174636207083557,0.30102790035117,0.005525540052345512,-0.002228285113181183,0.018294417804363694,-0.005954149383193191,0.005525540052345512,0.018294417804363694,5,Swing,0.4191926761688593
1777151629691,0.116147,0.993466,0.172793,0.227841,-0.156006,-0.0970736,0,-7.396521939488748,3.44603,999,log_newX1.csv,0,False,2.251,79.30606433749703,1.015047900157426,0.29269895307971294,-0.013751000000000013,0.0017119999999999636,0.009650999999999965,0.0017859999999999543,-0.018392999999999993,-0.018341999999999997,0.01621599999999998,0.0019229999999999803,0.017622,0.022869,-0.018074499999999993,-0.0006450999999999887,0.3061991458359046,0.3051466791678621,0.3057685402576773,0.1883049195493216,0.004445341668184888,-0.0010801983841606244,0.007790755918223757,-0.010503661886139937,0.004445341668184888,0.007790755918223757,5,Swing,0.4191926761688593
1777151629705,0.110065,0.993261,0.168032,0.237714,-0.145689,-0.10761,0,-7.082828281486686,3.68051,999,log_newX1.csv,0,False,2.265,79.60107551753752,1.0133688723115586,0.29885304518609146,-0.006082000000000004,0.007669000000000009,-0.00020500000000001073,-0.009855999999999976,-0.004761000000000015,0.013631999999999977,0.00987300000000002,-0.00634299999999996,0.010316999999999993,-0.007305000000000006,-0.010536400000000001,0.007538099999999992,0.29501118004048976,-0.011187965795414812,0.3136936580020624,0.00792511774438509,-0.0016790278458673757,-0.006124369514052264,0.006154092106378517,-0.0016366638118452403,-0.0016790278458673757,0.006154092106378517,5,Swing,0.4191926761688593
1777151629719,0.0985048,1.01207,0.174446,0.254366,-0.13203,-0.102199,0,-6.649490274366072,3.53155,999,log_newX1.csv,0,False,2.279,79.76835676346175,1.0317074621417839,0.3042673470108155,-0.011560199999999993,-0.005478199999999989,0.018809000000000076,0.019014000000000086,0.006414000000000003,0.011175000000000018,0.016651999999999972,0.006778999999999952,0.013659000000000004,0.0033420000000000116,0.005410999999999999,0.0159474,0.16728124592422944,-0.12772993411626032,0.43333800712061343,0.11964434911855104,0.018338589830225294,0.02001761767609267,0.0054143018247240216,-0.0007397902816544955,0.018338589830225294,0.0054143018247240216,4,Toe-off,0.4411462288865177
1777151629732,0.0913072,1.01465,0.162935,0.269218,-0.136059,-0.101689,0,-6.22478833363761,3.68459,999,log_newX1.csv,0,False,2.292,80.06791391477884,1.0316973594503573,0.31832536142443946,-0.0071975999999999984,0.004362599999999994,0.0025800000000000267,-0.01622900000000005,-0.011510999999999993,-0.017924999999999996,0.014852000000000032,-0.0017999999999999405,-0.004029000000000005,-0.01768800000000001,0.0005099999999999966,-0.004901000000000003,0.2995571513170887,0.13227590539285927,0.424701940728462,-0.00863606639215142,-1.0102691426538968e-05,-0.018348692521651833,0.014058014413623976,0.008643712588899954,-1.0102691426538968e-05,0.014058014413623976,4,Toe-off,0.4411462288865177
1777151629746,0.107698,1.02276,0.147475,0.282675,-0.125474,-0.106778,0,-6.150574225584521,3.53451,999,log_newX1.csv,0,False,2.306,80.53446840303265,1.0389349125084784,0.32718560723998846,0.016390799999999997,0.023588399999999995,0.00810999999999984,0.005529999999999813,-0.015460000000000002,-0.003949000000000008,0.013456999999999997,-0.001395000000000035,0.010585000000000011,0.014614000000000016,-0.005088999999999996,-0.005598999999999993,0.46655448825380574,0.16699733693671703,0.07421410805308959,-0.3504878326753724,0.007237553058121016,0.007247655749547555,0.008860245815549006,-0.00519776859807497,0.007237553058121016,0.008860245815549006,4,Toe-off,0.4411462288865177
1777151629760,0.148072,1.00981,0.144486,0.302535,-0.165636,-0.118724,0,-6.720204597298263,3.67344,999,log_newX1.csv,0,False,2.32,80.89182661383478,1.0307850200114475,0.36477129670109737,0.04037400000000001,0.02398320000000001,-0.012949999999999795,-0.021059999999999635,-0.0029889999999999917,0.01247100000000001,0.01985999999999999,0.006402999999999992,-0.040162,-0.050747000000000014,-0.011945999999999998,-0.006857000000000002,0.3573582108021327,-0.10919627745167304,-0.5696303717137425,-0.6438444797668321,-0.008149892497030908,-0.015387445555151924,0.037585689461108907,0.0287254436455599,-0.008149892497030908,0.037585689461108907,4,Toe-off,0.4411462288865177
1777151629774,0.183914,1.03428,0.14551,0.331493,-0.217682,-0.127769,0,-7.602618628818494,3.72959,999,log_newX1.csv,0,False,2.334,81.18898427614764,1.0605341285861574,0.4166509084761486,0.035841999999999985,-0.004532000000000022,0.024469999999999992,0.03741999999999979,0.0010239999999999971,0.004012999999999989,0.028957999999999984,0.009097999999999995,-0.05204599999999998,-0.011883999999999978,-0.009044999999999997,0.002901000000000001,0.29715766231285556,-0.06020054848927714,-0.8824140315202307,-0.31278365980648815,0.029749108574709915,0.03789900107174082,0.05187961177505124,0.014293922313942331,0.029749108574709915,0.05187961177505124,4,Toe-off,0.4411462288865177
1777151629788,0.142639,1.06153,0.133754,0.376286,-0.260537,-0.144198,0,-7.600215979073425,3.49862,999,log_newX1.csv,0,False,2.348,81.62921117422876,1.07938962276696,0.4798580471024739,-0.041275000000000006,-0.07711699999999999,0.027249999999999996,0.0027800000000000047,-0.011755999999999989,-0.012779999999999986,0.04479300000000003,0.015835000000000043,-0.04285500000000003,0.00919099999999995,-0.016429,-0.007384000000000002,0.4402268980811215,0.1430692357682659,0.0024026497450684303,0.8848166812652991,0.018855494180802568,-0.010893614393907347,0.06320713862632527,0.011327526851274028,0.018855494180802568,0.06320713862632527,4,Toe-off,0.6288918205290621
1777151629802,0.127201,1.26681,0.164902,0.491809,-0.266527,-0.164343,0,-7.083139067950249,3.504,999,log_newX1.csv,0,False,2.362,81.88700471354332,1.2838147608222146,0.583027748789884,-0.01543799999999998,0.025837000000000027,0.2052799999999999,0.1780299999999999,0.03114799999999998,0.04290399999999997,0.11552299999999999,0.07072999999999996,-0.005989999999999995,0.03686500000000004,-0.020144999999999996,-0.003715999999999997,0.2577935393145623,-0.1824333587665592,0.5170769111231763,0.5146742613781079,0.20442513805525464,0.18556964387445207,0.10316970168741008,0.03996256306108481,0.20442513805525464,0.10316970168741008,4,Toe-off,0.6288918205290621
1777151629815,0.167428,1.06949,0.116984,0.578206,-0.263201,-0.210677,0,-7.559247898653433,3.43194,999,log_newX1.csv,0,False,2.375,82.39236683844776,1.0888187413614812,0.6693143829068668,0.040226999999999985,0.055664999999999965,-0.19731999999999994,-0.40259999999999985,-0.04791799999999999,-0.07906599999999997,0.086397,-0.029125999999999985,0.0033259999999999956,0.009315999999999991,-0.046334000000000014,-0.026189000000000018,0.5053621249044369,0.2475685855898746,-0.47610883070318355,-0.9931857418263599,-0.19499601946073342,-0.39942115751598806,0.0862866341169829,-0.01688306757042718,-0.19499601946073342,0.0862866341169829,4,Toe-off,0.6288918205290621
1777151629829,0.118625,1.02204,0.106526,0.555443,-0.264525,-0.187991,0,-7.296092624264326,3.61005,999,log_newX1.csv,0,False,2.389,82.84008282035497,1.0344010058487956,0.6432969904756278,-0.048803,-0.08902999999999998,-0.04744999999999999,0.14986999999999995,-0.010458000000000009,0.03745999999999998,-0.022762999999999978,-0.10915999999999998,-0.0013239999999999919,-0.0046499999999999875,0.02268600000000001,0.06902000000000003,0.4477159819072085,-0.05764614299722837,0.26315527438910635,0.7392641050922899,-0.05441773551268558,0.14057828394804783,-0.026017392431239017,-0.11230402654822191,-0.05441773551268558,-0.026017392431239017,4,Toe-off,0.6288918205290621
1777151629842,0.0520904,1.14169,0.117398,0.593879,-0.229883,-0.146819,0,-6.027053220572876,3.49976,999,log_newX1.csv,0,False,2.402,83.1882942545077,1.1488915337298644,0.6535245053484988,-0.0665346,-0.0177316,0.11965000000000003,0.16710000000000003,0.010872000000000007,0.021330000000000016,0.038436000000000026,0.061199,0.034642000000000006,0.035966,0.041171999999999986,0.018485999999999975,0.3482114341527307,-0.09950454775447781,1.2690394036914503,1.005884129302344,0.11449052788106884,0.16890826339375442,0.01022751487287099,0.03624490730411001,0.11449052788106884,0.01022751487287099,4,Toe-off,0.6288918205290621
1777151629856,0.00766167,1.14577,0.129341,0.663664,-0.192307,-0.153644,0,-4.501658120218227,3.68822,999,log_newX1.csv,0,False,2.416,83.28854910535011,1.1530727159933103,0.7078406359350953,-0.04442873,0.02210587,0.0040799999999998615,-0.11557000000000017,0.01194300000000001,0.0010710000000000025,0.06978499999999999,0.03134899999999996,0.037576,0.002933999999999992,-0.006824999999999998,-0.047996999999999984,0.10025485084241836,-0.24795658331031234,1.5253951003546486,0.25635569666319835,0.004181182263445882,-0.11030934561762296,0.054316130586596456,0.044088615713725465,0.004181182263445882,0.054316130586596456,4,Toe-off,0.8458358330148028
1777151629870,0.0729926,1.28184,0.113815,0.706785,-0.120633,-0.129549,0,-4.162532869812335,3.71175,999,log_newX1.csv,0,False,2.43,83.73091522542089,1.2889513410054547,0.7286153308262187,0.06533093000000001,0.10975966000000001,0.13607000000000014,0.13199000000000027,-0.015526000000000012,-0.02746900000000002,0.043120999999999965,-0.02666400000000002,0.071674,0.034098,0.024095000000000005,0.030920000000000003,0.4423661200707727,0.34211126922835433,0.3391252504058926,-1.186269849948756,0.13587862501214443,0.13169744274869855,0.02077469489112338,-0.033541435695473076,0.13587862501214443,0.02077469489112338,4,Toe-off,0.8458358330148028
1777151629884,-0.0276612,1.16141,0.246559,0.825444,-0.192896,-0.143179,0,-2.6774432254316753,3.57037,999,log_newX1.csv,0,False,2.444,82.1865790750421,1.1876151188690889,0.8596899964481383,-0.1006538,-0.16598473000000002,-0.12043000000000004,-0.2565000000000002,0.132744,0.14827,0.11865899999999996,0.075538,-0.07226300000000001,-0.143937,-0.013630000000000003,-0.03772500000000001,-1.5443361503787827,-1.9867022704495554,1.4850896443806594,1.1459643939747668,-0.10133622213636584,-0.23721484714851027,0.1310746656219196,0.11029997073079623,-0.10133622213636584,0.1310746656219196,4,Toe-off,0.8458358330148028
1777151629897,0.000532882,1.28655,0.246906,0.836469,-0.178981,-0.19981,0,-1.960411644011884,3.52981,999,log_newX1.csv,0,False,2.457,81.36251861110794,1.3100281521017882,0.8784296343031694,0.028194082,0.128847882,0.12514000000000003,0.24557000000000007,0.0003469999999999862,-0.13239700000000001,0.011025000000000063,-0.1076339999999999,0.01391500000000001,0.08617800000000002,-0.05663099999999999,-0.043000999999999984,-0.8240604639341598,0.7202756864446229,0.7170315814197914,-0.768058062960868,0.12241303323269936,0.2237492553690652,0.018739637855031188,-0.11233502776688842,0.12241303323269936,0.018739637855031188,4,Toe-off,0.8458358330148028
1777151629911,-0.0100929,1.32219,0.184769,0.946217,-0.184659,-0.159165,0,-1.313776517289348,3.42216,999,log_newX1.csv,0,False,2.471,81.54682453549269,1.335075970157283,0.9771177281141714,-0.010625782,-0.038819863999999996,0.035639999999999894,-0.08950000000000014,-0.062137,-0.062483999999999984,0.10974799999999996,0.0987229999999999,-0.005677999999999989,-0.019593,0.04064499999999999,0.09727599999999997,0.1843059243847449,1.0083663883189047,0.6466351267225359,-0.07039645469725553,0.02504781805549472,-0.09736521517720464,0.09868809381100196,0.07994845595597078,0.02504781805549472,0.09868809381100196,4,Toe-off,0.8458358330148028
1777151629925,-0.133872,1.29956,0.234797,1.00286,-0.199283,-0.14883,0,0.6049253071943796,3.58785,999,log_newX1.csv,0,False,2.485,81.06372797224174,1.3273686515783776,1.03324356402012,-0.12377909999999999,-0.11315331799999999,-0.022629999999999928,-0.05826999999999982,0.05002800000000002,0.11216500000000001,0.05664300000000011,-0.05310499999999985,-0.014623999999999998,-0.00894600000000001,0.01033500000000001,-0.030309999999999976,-0.4830965632509532,-0.6674024876356981,1.9187018244837277,1.2720666977611919,-0.007707318578905387,-0.032755136634400106,0.05612583590594866,-0.0425622579050533,-0.007707318578905387,0.05612583590594866,4,Toe-off,0.7582075378926411
