timestamp,ax,ay,az,gx,gy,gz,roll,pitch,delay_ms,arquivo_id,arquivo_nome,Fase,tem_rotulo_real,tempo_s,pitch_k,acc_norm,gyro_norm,d_ax,dd_ax,d_ay,dd_ay,d_az,dd_az,d_gx,dd_gx,d_gy,dd_gy,d_gz,dd_gz,d_roll,dd_roll,d_pitch_k,dd_pitch_k,d_acc_norm,dd_acc_norm,d_gyro_norm,dd_gyro_norm,jerk_acc,jerk_gyro,classe_prevista,classe_prevista_nome,confianca_prevista
1777250994672,0.0157789,0.775043,-0.0946733,0.0268999,-0.27546,0.210148,88.22878704474763,0,3.27814,999,log_newX9.csv,0,False,0.0,-1.0534081738920262,0.7809632893210154,0.34751114820104695,0.0,0.0,0.0,0.0,0.0,0.0,0.0,0.0,0.0,0.0,0.0,0.0,0.0,0.0,0.0,0.0,0.0,0.0,0.0,0.0,0.0,0.0,2,Foot-flat,1.0
1777250994686,0.0145412,0.879913,-0.110766,0.0130779,-0.165136,0.101141,92.72385738881488,0,3.32973,999,log_newX9.csv,0,False,0.014,-0.9961008892660513,0.8869765728712569,0.19408872158219292,-0.0012376999999999978,-0.0012376999999999978,0.10486999999999991,0.10486999999999991,-0.0160927,-0.0160927,-0.013822000000000001,-0.013822000000000001,0.11032399999999998,0.11032399999999998,-0.109007,-0.109007,4.495070344067244,4.495070344067244,0.0573072846259749,0.0573072846259749,0.10601328355024142,0.10601328355024142,-0.15342242661885402,-0.15342242661885402,0.10601328355024142,-0.15342242661885402,2,Foot-flat,1.0
1777250994699,0.0122641,0.918052,-0.116898,0.00729283,-0.120982,0.0697619,94.42798420742994,0,3.24734,999,log_newX9.csv,0,False,0.027,-0.9070463881196822,0.925545798573366,0.13984474385910578,-0.0022771000000000007,-0.0010394000000000028,0.038139000000000034,-0.06673099999999987,-0.0061319999999999986,0.009960700000000003,-0.00578507,0.008036930000000001,0.044154,-0.06616999999999998,-0.03137909999999999,0.07762790000000001,1.704126818615066,-2.790943525452178,0.08905450114636915,0.03174721652039425,0.03856922570210919,-0.06744405784813223,-0.054243977723087144,0.09917844889576688,0.03856922570210919,-0.054243977723087144,2,Foot-flat,1.0
1777250994712,0.011157,0.939676,-0.120478,0.00361153,-0.0968489,0.0555634,95.35612636683365,0,3.26727,999,log_newX9.csv,0,False,0.04,-0.8321306847135923,0.947433592453318,0.11171411728027439,-0.0011070999999999998,0.001170000000000001,0.021623999999999977,-0.016515000000000057,-0.00358,0.0025519999999999987,-0.0036813,0.0021037699999999996,0.024133100000000005,-0.020020899999999994,-0.014198500000000003,0.01718059999999999,0.9281421594037056,-0.7759846592113604,0.07491570340608988,-0.014138797740279263,0.02188779387995199,-0.0166814318221572,-0.02813062657883139,0.026113351144255753,0.02188779387995199,-0.02813062657883139,2,Foot-flat,1.0
1777250994726,0.0120192,0.953578,-0.120126,0.00113222,-0.0820783,0.0477727,95.89780394020092,0,3.26051,999,log_newX9.csv,0,False,0.054,-0.7977805994893419,0.9611897414811709,0.09497557643051398,0.0008622000000000005,0.0019693000000000002,0.013902000000000081,-0.007721999999999896,0.0003520000000000051,0.003932000000000005,-0.00247931,0.00120199,0.014770599999999995,-0.00936250000000001,-0.007790699999999998,0.006407800000000005,0.5416775733672665,-0.3864645860364391,0.034350085224250426,-0.04056561818183946,0.013756149027852826,-0.008131644852099162,-0.01673854084976041,0.01139208572907098,0.013756149027852826,-0.01673854084976041,2,Foot-flat,1.0
1777250994739,0.0124907,0.962758,-0.122888,-0.000268596,-0.072017,0.0433908,96.28889011474784,0,3.24432,999,log_newX9.csv,0,False,0.067,-0.7806002988780192,0.970649496313932,0.0840790221009451,0.0004714999999999997,-0.00039070000000000077,0.009179999999999966,-0.004722000000000115,-0.0027620000000000006,-0.0031140000000000057,-0.001400816,0.0010784940000000002,0.010061300000000009,-0.004709299999999986,-0.004381900000000001,0.0034087999999999966,0.3910861745469276,-0.1505913988203389,0.017180300611322696,-0.01716978461292773,0.00945975483276118,-0.004296394195091646,-0.010896554329568875,0.005841986520191536,0.00945975483276118,-0.010896554329568875,2,Foot-flat,1.0
1777250994752,0.0129052,0.969605,-0.124347,-0.000908828,-0.0644695,0.0403318,96.5717470193526,0,3.25227,999,log_newX9.csv,0,False,0.08,-0.7738706531446365,0.9776311045691213,0.07605127539905944,0.00041449999999999994,-5.699999999999976e-05,0.0068470000000000475,-0.0023329999999999185,-0.001459000000000002,0.0013029999999999986,-0.0006402319999999999,0.0007605840000000001,0.007547499999999999,-0.0025138000000000105,-0.0030589999999999992,0.0013229000000000019,0.2828569046047562,-0.10822926994217141,0.006729645733382639,-0.010450654877940058,0.006981608255189231,-0.002478146577571949,-0.008027746701885663,0.002868807627683212,0.006981608255189231,-0.008027746701885663,2,Foot-flat,1.0
1777250994766,0.0130033,0.9759,-0.124649,-0.000665535,-0.0587495,0.0381207,96.76553704068053,0,3.25382,999,log_newX9.csv,0,False,0.094,-0.7693116948774397,0.9839142589737634,0.07003666508034363,9.810000000000027e-05,-0.00031639999999999967,0.0062949999999999395,-0.000552000000000108,-0.0003019999999999967,0.0011570000000000052,0.000243293,0.0008835249999999999,0.005719999999999996,-0.0018275000000000027,-0.0022111000000000006,0.0008478999999999987,0.19379002132792778,-0.08906688327682843,0.004558958267196878,-0.002170687466185761,0.006283154404642111,-0.0006984538505471205,-0.006014610318715807,0.0020131363831698557,0.006283154404642111,-0.006014610318715807,2,Foot-flat,1.0
1777250994779,0.0131092,0.980057,-0.124095,-0.000154165,-0.0540749,0.0367175,96.88827861870259,0,3.26225,999,log_newX9.csv,0,False,0.107,-0.7668503555476757,0.9879692016447881,0.06536278285926346,0.00010589999999999905,7.79999999999878e-06,0.004156999999999966,-0.0021379999999999733,0.0005539999999999989,0.0008559999999999957,0.0005113699999999999,0.0002680769999999999,0.004674600000000001,-0.001045399999999995,-0.0014032000000000003,0.0008079000000000003,0.1227415780220582,-0.07104844330586957,0.0024613393297640007,-0.002097618937432877,0.004054942671024686,-0.0022282117336174245,-0.004673882221080172,0.001340728097635635,0.004054942671024686,-0.004673882221080172,2,Foot-flat,1.0
1777250994792,0.0128828,0.982523,-0.124868,0.000236812,-0.0501392,0.0357079,96.98445883807592,0,3.26895,999,log_newX9.csv,0,False,0.12,-0.7609837321763079,0.9905096816734504,0.06155525630661726,-0.00022639999999999987,-0.0003322999999999989,0.0024660000000000792,-0.001690999999999887,-0.0007730000000000098,-0.0013270000000000087,0.00039097700000000003,-0.00012039299999999989,0.0039357,-0.0007389000000000007,-0.0010095999999999994,0.0003936000000000009,0.09618021937333765,-0.026561358648720557,0.005866623371367785,0.0034052840416037844,0.002540480028662362,-0.0015144626423623242,-0.003807526552646198,0.000866355668433974,0.002540480028662362,-0.003807526552646198,2,Foot-flat,1.0
1777250994806,0.0137835,0.985924,-0.124543,0.000992484,-0.0467441,0.0347641,97.04268912386705,0,3.24245,999,log_newX9.csv,0,False,0.134,-0.7700973787685768,0.9938546561229413,0.05826266864906083,0.0009007000000000008,0.0011271000000000007,0.0034009999999999874,0.0009349999999999081,0.00032500000000000584,0.0010980000000000156,0.0007556720000000001,0.00036469500000000006,0.003395100000000005,-0.0005405999999999953,-0.0009438000000000016,6.57999999999978e-05,0.05823028579112588,-0.03794993358221177,-0.009113646592268876,-0.014980269963636661,0.0033449744494908895,0.0008044944208285276,-0.0032925876575564325,0.0005149388950897657,0.0033449744494908895,-0.0032925876575564325,2,Foot-flat,1.0
1777250994819,0.0138412,0.988139,-0.12488,0.00177973,-0.0435146,0.0336831,97.08599357653378,0,3.24094,999,log_newX9.csv,0,False,0.147,-0.7771511103001266,0.9960950138106505,0.05505668967203622,5.769999999999907e-05,-0.0008430000000000017,0.002214999999999967,-0.0011860000000000204,-0.00033700000000000396,-0.0006620000000000098,0.0007872459999999999,3.157399999999982e-05,0.0032294999999999963,-0.0001656000000000088,-0.0010809999999999986,-0.00013719999999999705,0.04330445266673166,-0.014925833124394217,-0.007053731531549867,0.0020599150607190087,0.002240357687709138,-0.0011046167617817515,-0.003205978977024612,8.66086805318203e-05,0.002240357687709138,-0.003205978977024612,2,Foot-flat,1.0
1777250994832,0.0140621,0.989416,-0.125941,0.00242771,-0.040981,0.032589,97.13142801232829,0,3.24455,999,log_newX9.csv,0,False,0.16,-0.7854217264183018,0.9974983203962852,0.052415446748492946,0.00022089999999999957,0.0001632000000000005,0.0012769999999999726,-0.0009379999999999944,-0.0010609999999999925,-0.0007239999999999885,0.00064798,-0.00013926599999999987,0.002533600000000004,-0.0006958999999999924,-0.0010941000000000006,-1.3100000000001999e-05,0.04543443579450468,0.0021299831277730163,-0.008270616118175145,-0.0012168845866252775,0.0014033065856347005,-0.0008370511020744376,-0.0026412429235432716,0.0005647360534813406,0.0014033065856347005,-0.0026412429235432716,2,Foot-flat,1.0
1777250994846,0.014682,0.990219,-0.126494,0.00269673,-0.0384637,0.0316333,97.17150700447172,0,3.24155,999,log_newX9.csv,0,False,0.174,-0.8008785656982733,0.9983736580664576,0.04987378308563428,0.0006199000000000014,0.0003990000000000018,0.0008029999999999982,-0.00047399999999997444,-0.0005529999999999979,0.0005079999999999946,0.00026902,-0.00037896,0.002517299999999993,-1.630000000001075e-05,-0.0009556999999999968,0.0001384000000000038,0.040078992143435244,-0.005355443651069436,-0.015456839279971546,-0.007186223161796401,0.0008753376701724491,-0.0005279689154622513,-0.0025416636628586634,9.957926068460826e-05,0.0008753376701724491,-0.0025416636628586634,2,Foot-flat,1.0
1777250994859,0.0151866,0.991254,-0.127175,0.00281674,-0.0362257,0.0307097,97.20918313475723,0,3.24742,999,log_newX9.csv,0,False,0.187,-0.81971807259724,0.9994941750508404,0.04757437376159144,0.0005045999999999991,-0.0001153000000000022,0.0010350000000000081,0.00023200000000000998,-0.0006810000000000149,-0.000128000000000017,0.00012000999999999982,-0.0001490100000000002,0.002238000000000004,-0.0002792999999999893,-0.0009236000000000036,3.2099999999993245e-05,0.03767613028550443,-0.002402861857930816,-0.01883950689896674,-0.0033826676189951943,0.0011205169843827578,0.0002451793142103087,-0.0022994093240428434,0.00024225433881581993,0.0011205169843827578,-0.0022994093240428434,2,Foot-flat,1.0
1777250994873,0.0147512,0.99217,-0.127627,0.00282319,-0.0341107,0.0302035,97.2418107542091,0,3.32371,999,log_newX9.csv,0,False,0.201,-0.8265025391486854,1.0004536760542388,0.04564823839444519,-0.000435399999999999,-0.0009399999999999981,0.0009160000000000279,-0.00011899999999998023,-0.0004519999999999802,0.00022900000000003473,6.450000000000292e-06,-0.00011355999999999953,0.002114999999999999,-0.00012300000000000505,-0.0005061999999999983,0.00041740000000000527,0.03262761945187265,-0.005048510833631781,-0.006784466551445378,0.012055040347521362,0.0009595010033984774,-0.00016101598098428038,-0.0019261353671462464,0.00037327395689659704,0.0009595010033984774,-0.0019261353671462464,2,Foot-flat,1.0
1777250994886,0.0147798,0.993349,-0.127069,0.00274962,-0.0320603,0.0301714,97.25474219596586,0,3.25892,999,log_newX9.csv,0,False,0.214,-0.8316454204802012,1.0015523995528341,0.044110504692129744,2.859999999999842e-05,0.0004639999999999974,0.0011790000000000411,0.0002630000000000132,0.0005580000000000029,0.0010099999999999831,-7.357000000000023e-05,-8.002000000000052e-05,0.002050400000000001,-6.459999999999799e-05,-3.2100000000000184e-05,0.00047409999999999813,0.012931441756762752,-0.019696177695109895,-0.005142881331515747,0.001641585219929631,0.0010987234985952998,0.0001392224951968224,-0.0015377337023154483,0.0003884016648307981,0.0010987234985952998,-0.0015377337023154483,2,Foot-flat,1.0
1777250994899,0.015157,0.995269,-0.127289,0.00277149,-0.0301537,0.0301151,97.263787900436,0,3.25068,999,log_newX9.csv,0,False,0.227,-0.8407767123568733,1.0034902124739433,0.04270651037628923,0.00037720000000000115,0.00034860000000000273,0.0019199999999999218,0.0007409999999998806,-0.00022000000000002573,-0.0007780000000000287,2.1870000000000223e-05,9.544000000000046e-05,0.0019066000000000013,-0.00014379999999999948,-5.630000000000218e-05,-2.4200000000001998e-05,0.009045704470139526,-0.0038857372866232254,-0.009131291876672165,-0.003988410545156418,0.0019378129211091721,0.0008390894225138723,-0.0014039943158405122,0.00013373938647493616,0.0019378129211091721,-0.0014039943158405122,2,Foot-flat,1.0
1777250994913,0.0158908,0.995788,-0.12771,0.00286609,-0.0285337,0.0299894,97.27581318445907,0,3.24925,999,log_newX9.csv,0,False,0.241,-0.8586198397299888,1.0040697697713241,0.04149398293654274,0.0007337999999999997,0.0003565999999999986,0.0005190000000000472,-0.0014009999999998746,-0.00042099999999997695,-0.00020099999999995122,9.45999999999998e-05,7.272999999999958e-05,0.00162,-0.00028660000000000144,-0.00012569999999999942,-6.939999999999724e-05,0.012025284023067684,0.0029795795529281577,-0.01784312737311544,-0.008711835496443276,0.000579557297380795,-0.0013582556237283772,-0.0012125274397464941,0.00019146687609401802,0.000579557297380795,-0.0012125274397464941,2,Foot-flat,1.0
1777250994926,0.0167238,0.99631,-0.128026,0.00286324,-0.0270633,0.029244,97.28839628301922,0,3.24597,999,log_newX9.csv,0,False,0.254,-0.8843390928937602,1.0046412087220193,0.03994786460109726,0.0008330000000000004,9.920000000000068e-05,0.0005220000000000224,2.9999999999752447e-06,-0.0003160000000000107,0.00010499999999996623,-2.849999999999988e-06,-9.74499999999998e-05,0.0014704000000000002,-0.00014959999999999973,-0.0007454000000000002,-0.0006197000000000008,0.012583098560156714,0.0005578145370890297,-0.02571925316377144,-0.007876125790655997,0.0005714389506952244,-8.118346685570543e-06,-0.001546118335445476,-0.0003335908956989819,0.0005714389506952244,-0.001546118335445476,2,Foot-flat,1.0
1777250994939,0.0171892,0.996883,-0.12833,0.00279426,-0.025687,0.0282835,97.30109872172432,0,3.25051,999,log_newX9.csv,0,False,0.267,-0.9101196074338793,1.0052560734388227,0.03830908808882822,0.00046540000000000123,-0.0003675999999999992,0.0005729999999999347,5.099999999991223e-05,-0.0003039999999999987,1.2000000000012001e-05,-6.898000000000017e-05,-6.613000000000018e-05,0.001376299999999997,-9.410000000000321e-05,-0.0009604999999999995,-0.00021509999999999932,0.012702438705090913,0.00011934014493419909,-0.025780514540119093,-6.126137634765438e-05,0.0006148647168033872,4.342576610816273e-05,-0.0016387765122690412,-9.265817682356514e-05,0.0006148647168033872,-0.0016387765122690412,2,Foot-flat,1.0
1777250994953,0.0181599,0.997584,-0.128688,0.0026109,-0.0241868,0.0270487,97.3144562636927,0,3.23808,999,log_newX9.csv,0,False,0.281,-0.9436736470376703,1.0060140259300614,0.03637925596737789,0.000970699999999998,0.0005052999999999967,0.0007010000000000627,0.000128000000000128,-0.0003579999999999972,-5.3999999999998494e-05,-0.0001833599999999996,-0.00011437999999999943,0.0015002000000000001,0.00012390000000000317,-0.0012348000000000012,-0.0002743000000000016,0.013357541968389341,0.0006551032632984288,-0.033554039603791,-0.0077735250636719044,0.000757952491238667,0.00014308777443527987,-0.0019298321214503283,-0.00029105560918128714,0.000757952491238667,-0.0019298321214503283,2,Foot-flat,1.0
1777250994966,0.0183114,0.998701,-0.127978,0.00241787,-0.0229467,0.0257274,97.31118288572415,0,3.24597,999,log_newX9.csv,0,False,0.294,-0.9702088209976785,1.0070339434472704,0.034558591507567266,0.00015149999999999886,-0.0008191999999999991,0.0011169999999999236,0.0004159999999998609,0.0007099999999999884,0.0010679999999999856,-0.00019303000000000028,-9.670000000000685e-06,0.001240100000000001,-0.0002600999999999992,-0.0013212999999999975,-8.64999999999963e-05,-0.003273377968554314,-0.016630919936943656,-0.02653517396000815,0.007018865643782846,0.0010199175172089792,0.0002619650259703121,-0.0018206644598106267,0.00010916766163970165,0.0010199175172089792,-0.0018206644598106267,2,Foot-flat,1.0
1777250994979,0.0183578,0.999435,-0.128207,0.00223517,-0.0217023,0.024544,97.31084995745192,0,3.25358,999,log_newX9.csv,0,False,0.307,-0.9900764182687812,1.0077918251776208,0.03283890598389203,4.6400000000001995e-05,-0.00010509999999999686,0.0007340000000000124,-0.0003829999999999112,-0.00022899999999997922,-0.0009389999999999676,-0.00018270000000000005,1.0330000000000235e-05,0.0012443999999999997,4.299999999998749e-06,-0.0011834000000000011,0.00013789999999999636,-0.0003329282722290827,0.0029404496963252313,-0.019867597271102766,0.006667576688905386,0.0007578817303504071,-0.0002620357868585721,-0.0017196855236752337,0.000100978936135393,0.0007578817303504071,-0.0017196855236752337,2,Foot-flat,1.0
1777250994993,0.0183702,1.00007,-0.1277,0.0021525,-0.0206054,0.0234842,97.30164577153552,0,3.25329,999,log_newX9.csv,0,False,0.321,-1.0046088417678434,1.008357456038304,0.03131650387655046,1.2399999999999217e-05,-3.400000000000278e-05,0.0006350000000000522,-9.899999999996023e-05,0.0005069999999999797,0.0007359999999999589,-8.266999999999997e-05,0.00010003000000000008,0.0010969000000000013,-0.00014749999999999833,-0.0010597999999999996,0.0001236000000000015,-0.009204185916402707,-0.008871257644173625,-0.014532423499062141,0.0053351737720406245,0.000565630860683175,-0.00019225086966723204,-0.0015224021073415722,0.00019728341633366148,0.000565630860683175,-0.0015224021073415722,2,Foot-flat,1.0
1777250995006,0.0185176,1.0007,-0.127639,0.00225555,-0.0195895,0.0228005,97.29277534325203,0,3.25562,999,log_newX9.csv,0,False,0.334,-1.0173036400839652,1.0089772573406992,0.030144631633219537,0.00014739999999999892,0.0001349999999999997,0.0006299999999999084,-5.000000000143778e-06,6.1000000000005494e-05,-0.0004459999999999742,0.00010304999999999993,0.0001857199999999999,0.0010159000000000001,-8.100000000000121e-05,-0.0006836999999999989,0.00037610000000000074,-0.008870428283486831,0.00033375763291587646,-0.012694798316121858,0.0018376251829402834,0.0006198013023952509,5.4170441712075856e-05,-0.0011718722433309223,0.00035052986401064995,0.0006198013023952509,-0.0011718722433309223,2,Foot-flat,1.0
1777250995021,0.0183853,1.0016,-0.127761,0.002599,-0.018427,0.0223625,97.28641088519645,0,4.19831,999,log_newX9.csv,0,False,0.349,-1.0242859160444722,1.0098828904269495,0.029092791826327014,-0.0001322999999999984,-0.0002796999999999973,0.0009000000000001229,0.0002700000000002145,-0.00012200000000001099,-0.00018300000000001648,0.00034345000000000035,0.00024040000000000042,0.0011625000000000003,0.0001466000000000002,-0.0004380000000000009,0.000245699999999998,-0.006364458055585942,0.002505970227900889,-0.006982275960506934,0.005712522355614924,0.000905633086250246,0.0002858317838549951,-0.0010518398068925239,0.0001200324364383984,0.000905633086250246,-0.0010518398068925239,2,Foot-flat,1.0
1777250995035,0.0186326,1.00208,-0.127727,0.00288592,-0.0174433,0.021983,97.28031841224293,0,4.63898,999,log_newX9.csv,0,False,0.363,-1.0330383198067,1.0103591869784527,0.028210805343633846,0.0002472999999999989,0.0003795999999999973,0.00048000000000003595,-0.00042000000000008697,3.400000000000625e-05,0.00015600000000001724,0.00028691999999999997,-5.653000000000038e-05,0.0009837000000000005,-0.0001787999999999998,-0.00037950000000000136,5.8499999999999525e-05,-0.006092472953511674,0.00027198510207426807,-0.008752403762227745,-0.001770127801720811,0.00047629655150327466,-0.0004293365347469713,-0.000881986482693168,0.00016985332419935592,0.00047629655150327466,-0.000881986482693168,2,Foot-flat,1.0
1777250995049,0.0191713,1.00247,-0.127578,0.00333222,-0.0165685,0.0216433,97.27285261672873,0,3.24881,999,log_newX9.csv,0,False,0.377,-1.0475707142871578,1.0107372486099886,0.027459994851936884,0.0005386999999999996,0.0002914000000000007,0.00038999999999989043,-9.000000000014552e-05,0.00014900000000001024,0.00011500000000000399,0.00044629999999999974,0.00015937999999999976,0.0008747999999999985,-0.00010890000000000205,-0.00033969999999999834,3.980000000000303e-05,-0.00746579551420723,-0.0013733225606955557,-0.014532394480457844,-0.005779990718230099,0.00037806163153586425,-9.82349199674104e-05,-0.000750810491696962,0.00013117599099620597,0.00037806163153586425,-0.000750810491696962,2,Foot-flat,1.0
1777250995062,0.0189741,1.00267,-0.128094,0.00369836,-0.0156843,0.0213082,97.27485546841106,0,3.56082,999,log_newX9.csv,0,False,0.39,-1.055081848778789,1.0109971405532312,0.026715435995311777,-0.00019719999999999807,-0.0007358999999999977,0.00019999999999997797,-0.00018999999999991246,-0.0005160000000000164,-0.0006650000000000267,0.00036614000000000004,-8.01599999999997e-05,0.0008841999999999982,9.399999999999686e-06,-0.00033510000000000137,4.599999999996968e-06,0.0020028516823344944,0.009468647196541724,-0.007511134491631211,0.007021259988826634,0.0002598919432426072,-0.00011816968829325702,-0.000744558856625107,6.2516350718549996e-06,0.0002598919432426072,-0.000744558856625107,2,Foot-flat,1.0
1777250995076,0.019094,1.00309,-0.128302,0.00406294,-0.0148267,0.0209093,97.27866064365693,0,3.32849,999,log_newX9.csv,0,False,0.404,-1.0622711623426897,1.0114423029219215,0.02595259795904063,0.00011989999999999917,0.00031709999999999725,0.00042000000000008697,0.000220000000000109,-0.00020799999999998597,0.00030800000000003047,0.0003645800000000002,-1.5599999999998428e-06,0.0008576000000000018,-2.6599999999996418e-05,-0.00039890000000000064,-6.379999999999927e-05,0.0038051752458727606,0.0018023235635382662,-0.007189313563900734,0.0003218209277304762,0.00044516236869029946,0.00018527042544769223,-0.0007628380362711476,-1.8279179646040616e-05,0.00044516236869029946,-0.0007628380362711476,2,Foot-flat,1.0
1777250995091,0.0195371,1.00341,-0.12897,0.00451181,-0.01371,0.0201854,97.29095467754429,0,5.67896,999,log_newX9.csv,0,False,0.419,-1.0741791529038884,1.0118530462850868,0.02481473156486082,0.0004431000000000018,0.00032320000000000265,0.00031999999999987594,-0.00010000000000021103,-0.0006680000000000019,-0.00046000000000001595,0.00044886999999999965,8.428999999999945e-05,0.0011167,0.0002590999999999982,-0.0007238999999999995,-0.0003249999999999989,0.012294033887357614,0.008488858641484853,-0.011907990561198734,-0.004718676997297999,0.00041074336316526683,-3.441900552503263e-05,-0.0011378663941798081,-0.0003750283579086605,0.00041074336316526683,-0.0011378663941798081,2,Foot-flat,1.0
1777250995105,0.0197228,1.00401,-0.129081,0.00512437,-0.0125036,0.0192751,97.3004412531404,0,3.42694,999,log_newX9.csv,0,False,0.433,-1.0855287756137852,1.0124657888051527,0.023539937571431663,0.00018569999999999698,-0.00025740000000000485,0.000600000000000156,0.00028000000000028,-0.00011099999999999999,0.0005570000000000019,0.0006125599999999998,0.0001636900000000002,0.0012063999999999998,8.969999999999985e-05,-0.0009102999999999993,-0.00018639999999999976,0.009486575596113767,-0.0028074582912438473,-0.011349622709896812,0.0005583678513019219,0.0006127425200659342,0.0002019991569006674,-0.0012747939934291581,-0.00013692759924935002,0.0006127425200659342,-0.0012747939934291581,2,Foot-flat,1.0
1777250995119,0.0198825,1.00451,-0.129185,0.00613913,-0.0112977,0.0175183,97.30796703279088,0,4.23994,999,log_newX9.csv,0,False,0.447,-1.0961004955416236,1.0129779948899433,0.021730572411625515,0.0001597000000000022,-2.5999999999994777e-05,0.0004999999999999449,-0.00010000000000021103,-0.00010399999999999299,7.000000000007001e-06,0.00101476,0.0004022000000000001,0.0012058999999999993,-5.000000000005e-07,-0.0017567999999999993,-0.0008465,0.007525779650478626,-0.001960795945635141,-0.010571719927838341,0.0007779027820584705,0.000512206084790634,-0.0001005364352753002,-0.0018093651598061478,-0.0005345711663769896,0.000512206084790634,-0.0018093651598061478,2,Foot-flat,1.0
1777250995133,0.0206421,1.00483,-0.129807,0.00739214,-0.00973244,0.0149886,97.32226104768839,0,3.45718,999,log_newX9.csv,0,False,0.461,-1.1152973274962146,1.0133899952345147,0.019339654911430037,0.0007595999999999992,0.000599899999999997,0.00031999999999987594,-0.000180000000000069,-0.0006220000000000114,-0.0005180000000000184,0.0012530100000000006,0.00023825000000000061,0.0015652600000000006,0.0003593600000000013,-0.002529700000000001,-0.0007729000000000017,0.014294014897501484,0.006768235247022858,-0.019196831954590987,-0.008625112026752646,0.0004120003445713394,-0.00010020574021929463,-0.002390917500195478,-0.0005815523403893304,0.0004120003445713394,-0.002390917500195478,2,Foot-flat,1.0
1777250995146,0.0210723,1.00477,-0.130037,0.00853695,-0.00817093,0.0124118,97.3362958493491,0,3.37249,999,log_newX9.csv,0,False,0.474,-1.1358871261656824,1.0133688450393026,0.017137572512097507,0.00043019999999999864,-0.0003294000000000005,-5.999999999994898e-05,-0.0003799999999998249,-0.00023000000000000798,0.00039200000000000346,0.0011448099999999996,-0.000108200000000001,0.0015615100000000003,-3.750000000000281e-06,-0.002576799999999999,-4.709999999999784e-05,0.01403480166071347,-0.000259213236788014,-0.020589798669467863,-0.0013929667148768754,-2.1150195212094047e-05,-0.00043315053978343343,-0.00220208239933253,0.00018883510086294825,-2.1150195212094047e-05,-0.00220208239933253,2,Foot-flat,1.0
1777250995160,0.0206033,1.00488,-0.129747,0.00966028,-0.0065771,0.010252,97.34192974065334,0,3.46503,999,log_newX9.csv,0,False,0.488,-1.1437298206747346,1.0134310999667862,0.015546149300981258,-0.0004689999999999972,-0.0008991999999999958,0.0001100000000000545,0.00017000000000000348,0.00029000000000001247,0.0005200000000000204,0.0011233300000000005,-2.147999999999907e-05,0.00159383,3.2319999999999745e-05,-0.0021598,0.00041699999999999897,0.005633891304242411,-0.008400910356471059,-0.007842694509052173,0.01274710416041569,6.225492748357375e-05,8.34051226956678e-05,-0.0015914232111162493,0.0006106591882162806,6.225492748357375e-05,-0.0015914232111162493,2,Foot-flat,1.0
1777250995173,0.0198959,1.00533,-0.129951,0.0107112,-0.00498755,0.00879349,97.34825107043808,0,3.38192,999,log_newX9.csv,0,False,0.501,-1.1385096524556981,1.0138893027041018,0.014728575179649931,-0.0007074000000000004,-0.0002384000000000032,0.00045000000000006146,0.00034000000000000696,-0.00020400000000000973,-0.0004940000000000222,0.0010509200000000003,-7.241000000000018e-05,0.0015895499999999995,-4.280000000000603e-06,-0.0014585100000000014,0.0007012899999999985,0.00632132978473976,0.0006874384804973488,0.005220168219036481,0.013062862728088653,0.0004582027373156716,0.0003959478098320979,-0.0008175741213313267,0.0007738490897849226,0.0004582027373156716,-0.0008175741213313267,2,Foot-flat,1.0
1777250995187,0.019231,1.00523,-0.130997,0.0114321,-0.00332272,0.00798722,97.3689001719443,0,3.47405,999,log_newX9.csv,0,False,0.515,-1.1245404292288217,1.01391192826103,0.014336284802444461,-0.0006648999999999995,4.250000000000087e-05,-9.999999999998899e-05,-0.0005500000000000504,-0.0010459999999999914,-0.0008419999999999817,0.0007209,-0.0003300200000000003,0.0016648300000000004,7.528000000000092e-05,-0.0008062699999999996,0.0006522400000000018,0.020649101506222678,0.014327771721482918,0.013969223226876437,0.008749055007839956,2.26255569282241e-05,-0.0004355771803874475,-0.00039229037720547,0.0004252837441258567,2.26255569282241e-05,-0.00039229037720547,2,Foot-flat,1.0
1777250995201,0.0192063,1.0052,-0.131646,0.0120227,-0.00188812,0.00778796,97.3938560608176,0,3.46044,999,log_newX9.csv,0,False,0.529,-1.1139523563765548,1.0139657742131587,0.014448620466535897,-2.4700000000002498e-05,0.000640199999999997,-2.999999999997449e-05,7.00000000000145e-05,-0.0006490000000000107,0.0003969999999999807,0.0005906000000000002,-0.00013029999999999986,0.0014345999999999999,-0.00023023000000000054,-0.00019925999999999972,0.0006070099999999998,0.024955888873293475,0.004306787367070797,0.010588072852266928,-0.0033811503746095095,5.384595212865051e-05,3.122039520042641e-05,0.00011233566409143622,0.0005046260412969062,5.384595212865051e-05,0.00011233566409143622,2,Foot-flat,1.0
1777250995214,0.0183747,1.00561,-0.132562,0.0124737,-0.00048619,0.00800573,97.42511768508149,0,3.42819,999,log_newX9.csv,0,False,0.542,-1.0933865199915063,1.0144761138361464,0.014829743262747337,-0.0008315999999999983,-0.0008068999999999958,0.0004099999999997994,0.0004399999999997739,-0.0009160000000000001,-0.00026699999999998947,0.000451,-0.00013960000000000014,0.00140193,-3.2669999999999835e-05,0.0002177700000000008,0.0004170300000000005,0.03126162426389101,0.006305735390597533,0.020565836385048497,0.00997776353278157,0.0005103396229877433,0.00045649367085909276,0.0003811227962114399,0.00026878713212000367,0.0005103396229877433,0.0003811227962114399,2,Foot-flat,1.0
1777250995228,0.0181485,1.00551,-0.132187,0.0126198,0.000676629,0.00875867,97.44245884800081,0,3.33242,999,log_newX9.csv,0,False,0.556,-1.07496630743006,1.0143239773963986,0.01537632852837572,-0.00022619999999999932,0.000605399999999999,-9.999999999998899e-05,-0.0005099999999997884,0.0003750000000000142,0.0012910000000000144,0.0001460999999999997,-0.0003049000000000003,0.001162819,-0.00023911099999999997,0.0007529399999999988,0.000535169999999998,0.017341162919322528,-0.01392046134456848,0.018420212561446325,-0.002145623823602172,-0.00015213643974787416,-0.0006624760627356174,0.0005465852656283826,0.00016546246941694272,-0.00015213643974787416,0.0005465852656283826,2,Foot-flat,1.0
1777250995241,0.017644,1.00545,-0.132917,0.0123883,0.00156293,0.0102447,97.46628085355127,0,3.46629,999,log_newX9.csv,0,False,0.569,-1.053815275400265,1.0143509955262033,0.01615136542726032,-0.0005045000000000015,-0.00027830000000000216,-5.999999999994898e-05,4.0000000000040004e-05,-0.0007300000000000084,-0.0011050000000000226,-0.0002315000000000008,-0.0003776000000000005,0.0008863009999999999,-0.0002765180000000001,0.001486030000000001,0.0007330900000000022,0.023822005550456993,0.006480842631134465,0.02115103202979496,0.002730819468348633,2.701812980476781e-05,0.00017915456955264197,0.000775036898884602,0.00022845163325621934,2.701812980476781e-05,0.000775036898884602,2,Foot-flat,1.0
1777250995255,0.0175154,1.00504,-0.133383,0.0119752,0.00238456,0.012264,97.49154076627192,0,3.40366,999,log_newX9.csv,0,False,0.583,-1.036507213725556,1.0140035579455133,0.01730598848472979,-0.00012859999999999955,0.0003759000000000019,-0.00041000000000002146,-0.0003500000000000725,-0.0004659999999999942,0.0002640000000000142,-0.0004130999999999996,-0.00018159999999999878,0.0008216300000000001,-6.467099999999987e-05,0.0020193,0.0005332699999999989,0.02525991272065653,0.0014379071701995372,0.017308061674708997,-0.0038429703550859617,-0.0003474375806900021,-0.0003744557104947699,0.0011546230574694671,0.0003795861585848652,-0.0003474375806900021,0.0011546230574694671,2,Foot-flat,1.0
1777250995268,0.0174359,1.00477,-0.133613,0.0115341,0.00289872,0.0145167,97.51400077800069,0,3.33334,999,log_newX9.csv,0,False,0.596,-1.0227239586899677,1.0137648629133926,0.018766262796262874,-7.949999999999971e-05,4.909999999999984e-05,-0.00026999999999999247,0.000140000000000029,-0.00023000000000000798,0.00023599999999998622,-0.0004410999999999998,-2.8000000000000247e-05,0.00051416,-0.00030747,0.0022527,0.00023339999999999993,0.02246001172876788,-0.0027999009918886486,0.013783255035588304,-0.0035248066391206923,-0.00023869503212070597,0.0001087425485692961,0.001460274311533085,0.0003056512540636179,-0.00023869503212070597,0.001460274311533085,2,Foot-flat,1.0
1777250995282,0.0188131,1.0045,-0.133471,0.0106127,0.00303288,0.0165137,97.52878658451365,0,3.37836,999,log_newX9.csv,0,False,0.61,-1.0337698502987607,1.0135031773865386,0.01986278052223303,0.0013771999999999986,0.0014566999999999983,-0.00026999999999999247,0.0,0.00014200000000000323,0.0003720000000000112,-0.000921400000000001,-0.0004803000000000012,0.00013415999999999992,-0.00038000000000000013,0.0019969999999999988,-0.00025570000000000107,0.01478580651296113,-0.007674205215806751,-0.01104589160879299,-0.024829146644381295,-0.00026168552685401636,-2.2990494733310385e-05,0.0010965177259701572,-0.0003637565855629278,-0.00026168552685401636,0.0010965177259701572,2,Foot-flat,1.0
1777250995296,0.0184669,1.00523,-0.133724,0.00989986,0.00297357,0.0183308,97.54193836278753,0,3.82642,999,log_newX9.csv,0,False,0.624,-1.0363346389950028,1.0142536603195527,0.02104441909876583,-0.0003461999999999979,-0.0017233999999999965,0.0007300000000001194,0.001000000000000112,-0.0002530000000000032,-0.00039500000000000646,-0.0007128399999999993,0.00020856000000000173,-5.930999999999992e-05,-0.00019346999999999984,0.001817100000000002,-0.00017989999999999673,0.0131517782738797,-0.001634028239081431,-0.002564788696242104,0.008481102912550886,0.0007504829330140517,0.001012168459868068,0.0011816385765327994,8.512085056264218e-05,0.0007504829330140517,0.0011816385765327994,2,Foot-flat,1.0
1777250995309,0.0193276,1.0049,-0.133935,0.00937473,0.00269759,0.0199097,97.55539500440841,0,3.46103,999,log_newX9.csv,0,False,0.637,-1.051426589882061,1.0139704879071973,0.022171123301966456,0.000860699999999999,0.0012068999999999969,-0.0003300000000001635,-0.001060000000000283,-0.00021099999999998897,4.200000000001425e-05,-0.0005251300000000004,0.00018770999999999892,-0.0002759799999999999,-0.00021666999999999997,0.0015788999999999977,-0.00023820000000000438,0.013456641620877008,0.0003048633469973083,-0.01509195088705817,-0.012527162190816066,-0.00028317241235531476,-0.0010336553453693664,0.0011267042032006257,-5.493437333217374e-05,-0.00028317241235531476,0.0011267042032006257,2,Foot-flat,1.0
1777250995323,0.020263,1.00488,-0.133485,0.00886677,0.00222184,0.0209582,97.5584455467764,0,3.4594,999,log_newX9.csv,0,False,0.651,-1.076742052227697,1.013909586104205,0.02286487110085032,0.0009353999999999994,7.470000000000046e-05,-1.999999999990898e-05,0.0003100000000002545,0.00045000000000000595,0.0006609999999999949,-0.00050796,1.717000000000038e-05,-0.00047575000000000004,-0.00019977000000000016,0.0010485000000000008,-0.0005303999999999968,0.0030505423679869637,-0.010406099252890044,-0.025315462345635975,-0.010223511458577805,-6.09018029924524e-05,0.00022227060936286236,0.0006937477988838633,-0.00043295640431676233,-6.09018029924524e-05,0.0006937477988838633,2,Foot-flat,1.0
1777250995336,0.0215583,1.00537,-0.13302,0.00862052,0.00188963,0.0216452,97.55265159291359,0,3.44853,999,log_newX9.csv,0,False,0.664,-1.1148507924550728,1.0143608419092736,0.023375173788601017,0.0012952999999999992,0.0003598999999999998,0.0004900000000001015,0.0005100000000000104,0.0004649999999999932,1.4999999999987246e-05,-0.00024624999999999994,0.00026171000000000007,-0.0003322100000000001,0.00014353999999999994,0.0006870000000000001,-0.0003615000000000007,-0.005793953862806234,-0.008844496230793197,-0.03810874022737587,-0.012793277881739895,0.00045125580506866214,0.0005121576080611145,0.0005103026877506973,-0.000183445111133166,0.00045125580506866214,0.0005103026877506973,2,Foot-flat,1.0
1777250995350,0.0226282,1.00496,-0.133242,0.0084443,0.00157208,0.022026,97.55260442793687,0,3.38968,999,log_newX9.csv,0,False,0.678,-1.1591149593861902,1.0140069366622892,0.02364153789448563,0.001069900000000002,-0.00022539999999999713,-0.00041000000000002146,-0.0009000000000001229,-0.00022199999999999998,-0.0006869999999999932,-0.0001762199999999995,7.003000000000044e-05,-0.00031755,1.4660000000000107e-05,0.0003808000000000006,-0.00030619999999999953,-4.716497672063724e-05,0.0057467888860855965,-0.044264166931117455,-0.006155426703741584,-0.0003539052469843096,-0.0008051610520529717,0.0002663641058846117,-0.00024393858186608566,-0.0003539052469843096,0.0002663641058846117,2,Foot-flat,1.0
1777250995363,0.0232931,1.005,-0.13286,0.00829533,0.00136298,0.0218774,97.54670758898855,0,3.48996,999,log_newX9.csv,0,False,0.691,-1.201571579908774,1.0140115128082174,0.02343695468804128,0.0006648999999999995,-0.0004050000000000026,3.999999999981796e-05,0.0004499999999998394,0.00038199999999999346,0.0006039999999999934,-0.00014897,2.7249999999999497e-05,-0.00020910000000000004,0.00010844999999999995,-0.00014859999999999873,-0.0005293999999999993,-0.00589683894831694,-0.005849673971596303,-0.04245662052258381,0.0018075464085336446,4.576145928192332e-06,0.0003584813929125019,-0.00020458320644434896,-0.00047094731232896064,4.576145928192332e-06,-0.00020458320644434896,2,Foot-flat,1.0
1777250995377,0.0230812,1.00562,-0.133573,0.00822365,0.00112277,0.0219221,97.551949310778,0,3.49071,999,log_newX9.csv,0,False,0.705,-1.2290785447777475,1.0147147739746574,0.02344072311609435,-0.00021190000000000098,-0.0008768000000000005,0.0006200000000000649,0.000580000000000247,-0.0007129999999999914,-0.0010949999999999849,-7.167999999999931e-05,7.729000000000069e-05,-0.00024021000000000003,-3.110999999999999e-05,4.469999999999821e-05,0.00019329999999999695,0.005241721789445819,0.01113856073776276,-0.027506964868973416,0.014949655653610394,0.000703261166439928,0.0006986850205117356,3.7684280530699e-06,0.00020835163449741886,0.000703261166439928,3.7684280530699e-06,2,Foot-flat,1.0
1777250995391,0.0229225,1.00627,-0.133695,0.00805286,0.000879004,0.0224157,97.5563140132893,0,3.52897,999,log_newX9.csv,0,False,0.719,-1.246506657856961,1.0153714132923233,0.023834529756251034,-0.0001587000000000012,5.3199999999999775e-05,0.0006500000000000394,2.999999999997449e-05,-0.00012200000000001099,0.0005909999999999804,-0.00017079000000000052,-9.911000000000121e-05,-0.00024376599999999997,-3.555999999999937e-06,0.0004936000000000003,0.0004489000000000021,0.004364702511296059,-0.0008770192781497599,-0.017428113079213547,0.010078851789759868,0.000656639317665908,-4.662184877401998e-05,0.0003938066401566846,0.0003900382121036147,0.000656639317665908,0.0003938066401566846,2,Foot-flat,1.0
1777250995404,0.0226354,1.0071,-0.133783,0.0079777,0.000481489,0.0233195,97.55916313579426,0,3.4669,999,log_newX9.csv,0,False,0.732,-1.2545675342028968,1.0161991253795488,0.02465105695902553,-0.00028709999999999847,-0.00012839999999999727,0.0008300000000001084,0.000180000000000069,-8.800000000000474e-05,3.400000000000625e-05,-7.515999999999946e-05,9.563000000000106e-05,-0.000397515,-0.000153749,0.0009037999999999997,0.00041019999999999945,0.0028491225049691593,-0.0015155800063268998,-0.008060876345935775,0.009367236733277773,0.0008277120872255406,0.00017107276955963258,0.000816527202774496,0.0004227205626178114,0.0008277120872255406,0.000816527202774496,2,Foot-flat,1.0
1777250995418,0.0223646,1.00791,-0.133975,0.00786814,0.000196689,0.0250784,97.56251621524555,0,3.39951,999,log_newX9.csv,0,False,0.746,-1.2560494460316591,1.0170211620503087,0.026284452822577856,-0.0002708000000000016,1.6299999999996873e-05,0.0008099999999999774,-2.0000000000131024e-05,-0.00019199999999999773,-0.00010399999999999299,-0.0001095600000000016,-3.440000000000214e-05,-0.0002848,0.000112715,0.0017589000000000007,0.000855100000000001,0.0033530794512870443,0.000503956946317885,-0.001481911828762339,0.006578964517173436,0.0008220366707598625,-5.67541646567804e-06,0.0016333958635523262,0.0008168686607778301,0.0008220366707598625,0.0016333958635523262,2,Foot-flat,1.0
1777250995431,0.0227271,1.00867,-0.133292,0.00800523,-2.90592e-05,0.0271758,97.55313971522928,0,3.44169,999,log_newX9.csv,0,False,0.759,-1.2624212199901341,1.0176927076669116,0.028330348699407225,0.0003625000000000017,0.0006333000000000033,0.0007599999999998719,-5.0000000000105516e-05,0.0006830000000000169,0.0008750000000000147,0.00013709000000000117,0.00024665000000000277,-0.0002257482,5.905179999999999e-05,0.0020973999999999993,0.0003384999999999985,-0.009376500016273326,-0.01272957946756037,-0.006371773958474991,-0.004889862129712652,0.0006715456166028755,-0.00015049105415698705,0.0020458958768293685,0.00041250001327704233,0.0006715456166028755,0.0020458958768293685,2,Foot-flat,1.0
1777250995445,0.0233024,1.00873,-0.133718,0.00818178,-0.000156197,0.0294937,97.55260113116277,0,3.45738,999,log_newX9.csv,0,False,0.773,-1.2757792965777879,1.017821063974292,0.03060791174126731,0.0005753000000000008,0.0002127999999999991,5.999999999994898e-05,-0.0006999999999999229,-0.0004260000000000097,-0.0011090000000000266,0.00017654999999999928,3.945999999999811e-05,-0.00012713780000000001,9.861039999999998e-05,0.002317900000000001,0.00022050000000000194,-0.0005385840665041997,0.008837915949769126,-0.013358076587653755,-0.0069863026291787644,0.00012835630738039505,-0.0005431893092224804,0.0022775630418600847,0.00023166716503071616,0.00012835630738039505,0.0022775630418600847,2,Foot-flat,1.0
1777250995458,0.0243256,1.0088,-0.133708,0.00854576,-0.000336231,0.0315648,97.5519173399236,0,3.38097,999,log_newX9.csv,0,False,0.786,-1.3010600351288562,1.01791306312443,0.032702899937206806,0.0010231999999999984,0.0004478999999999976,7.00000000000145e-05,1.0000000000065512e-05,1.0000000000010001e-05,0.0004360000000000197,0.00036397999999999986,0.00018743000000000058,-0.00018003399999999998,-5.289619999999996e-05,0.002071099999999996,-0.00024680000000000535,-0.0006837912391688405,-0.0001452071726646409,-0.02528073855106827,-0.011922661963414516,9.19991501380224e-05,-3.635715724237265e-05,0.0020949881959394963,-0.00018257484592058837,9.19991501380224e-05,0.0020949881959394963,2,Foot-flat,1.0
1777250995472,0.0256753,1.00831,-0.133548,0.00891494,-0.0004203,0.0328025,97.54998424711637,0,3.49503,999,log_newX9.csv,0,False,0.8,-1.340223063154776,1.0174396028433776,0.03399495276572097,0.0013497000000000023,0.00032650000000000387,-0.0004899999999998794,-0.0005599999999998939,0.00015999999999999348,0.00014999999999998348,0.0003691800000000002,5.200000000000343e-06,-8.406900000000004e-05,9.596499999999994e-05,0.0012377000000000013,-0.0008333999999999946,-0.0019330928072349707,-0.0012493015680661301,-0.039163028025919866,-0.013882289474851595,-0.0004734602810523292,-0.0005654594311903516,0.001292052828514162,-0.0008029353674253344,-0.0004734602810523292,0.001292052828514162,2,Foot-flat,1.0
1777250995486,0.0271134,1.00786,-0.13422,0.00939197,-0.000512495,0.0330997,97.55961464220115,0,3.41334,999,log_newX9.csv,0,False,0.814,-1.3908217416254005,1.0171194248757418,0.0344102004018565,0.0014380999999999977,8.839999999999543e-05,-0.00045000000000006146,3.999999999981796e-05,-0.0006720000000000059,-0.0008319999999999994,0.0004770299999999998,0.00010784999999999961,-9.219499999999994e-05,-8.125999999999902e-06,0.0002972000000000044,-0.0009404999999999969,0.009630395084784027,0.011563487892018998,-0.05059867847062449,-0.011435650444704626,-0.0003201779676358374,0.0001532823134164918,0.00041524763613553367,-0.0008768051923786283,-0.0003201779676358374,0.00041524763613553367,2,Foot-flat,0.8306833052856718
1777250995499,0.027579,1.00718,-0.134964,0.00983353,-0.000728148,0.0332129,97.57924432542589,0,3.50286,999,log_newX9.csv,0,False,0.827,-1.4350715029877927,1.0165566560389045,0.03464571024211805,0.00046560000000000004,-0.0009724999999999977,-0.0006800000000000139,-0.00022999999999995246,-0.0007439999999999947,-7.199999999998874e-05,0.00044156000000000056,-3.546999999999925e-05,-0.000215653,-0.00012345800000000006,0.00011319999999999386,-0.00018400000000001054,0.019629683224735572,0.009999288139951545,-0.044249761362392226,0.006348917108232266,-0.0005627688368372574,-0.00024259086920142003,0.00023550984026154964,-0.00017973779587398403,-0.0005627688368372574,0.00023550984026154964,2,Foot-flat,0.8306833052856718
1777250995513,0.0280732,1.00723,-0.135694,0.0100358,-0.000824456,0.033234,97.60448927755955,0,3.44775,999,log_newX9.csv,0,False,0.841,-1.474827381579301,1.0167168923029852,0.03472600992535618,0.0004942000000000002,2.8600000000000153e-05,5.0000000000105516e-05,0.0007300000000001194,-0.0007300000000000084,1.3999999999986246e-05,0.0002022699999999992,-0.00023929000000000138,-9.630800000000003e-05,0.00011934499999999998,2.110000000000306e-05,-9.20999999999908e-05,0.025244952133661513,0.005615268908925941,-0.0397558785915082,0.004493882770884028,0.00016023626408068203,0.0007230051009179395,8.029968323813169e-05,-0.00015521015702341795,0.00016023626408068203,8.029968323813169e-05,2,Foot-flat,0.8306833052856718
1777250995526,0.0285532,1.00703,-0.136162,0.0104282,-0.000773867,0.0331809,97.63038571140066,0,3.51195,999,log_newX9.csv,0,False,0.854,-1.5112057337936713,1.0165947060526335,0.03478962992306312,0.00048000000000000126,-1.4199999999998936e-05,-0.00019999999999997797,-0.0002500000000000835,-0.0004679999999999962,0.0002620000000000122,0.0003924000000000011,0.0001901300000000019,5.058899999999997e-05,0.000146897,-5.310000000000037e-05,-7.420000000000343e-05,0.025896433841111843,0.0006514817074503298,-0.03637835221437036,0.0033775263771378405,-0.00012218625035176345,-0.0002824225144324455,6.361999770693877e-05,-1.6679685531192923e-05,-0.00012218625035176345,6.361999770693877e-05,2,Foot-flat,0.8306833052856718
1777250995540,0.0287595,1.00714,-0.136879,0.0107857,-0.000708978,0.0331695,97.65988237783695,0,3.70562,999,log_newX9.csv,0,False,0.868,-1.5408077214390352,1.0168057577931242,0.034886239472670076,0.00020629999999999954,-0.0002737000000000017,0.00010999999999983245,0.00030999999999981043,-0.0007169999999999954,-0.0002489999999999992,0.0003575000000000002,-3.49000000000009e-05,6.488900000000005e-05,1.4300000000000077e-05,-1.1400000000001687e-05,4.169999999999868e-05,0.029496666436287455,0.003600232595175612,-0.029601987645363925,0.006776364569006432,0.00021105174049074193,0.0003332379908425054,9.660954960695467e-05,3.29895519000159e-05,0.00021105174049074193,9.660954960695467e-05,2,Foot-flat,0.8306833052856718
1777250995554,0.0290227,1.00674,-0.137021,0.0110373,-0.000604881,0.0333559,97.6843746278281,0,3.46444,999,log_newX9.csv,0,False,0.882,-1.5665815650592516,1.016436175643257,0.0351397771353798,0.00026319999999999816,5.689999999999862e-05,-0.00039999999999995595,-0.0005099999999997884,-0.00014200000000000323,0.0005749999999999922,0.0002515999999999994,-0.00010590000000000079,0.00010409699999999994,3.9207999999999886e-05,0.00018640000000000323,0.00019780000000000492,0.02449224999115529,-0.005004416445132165,-0.025773843620216397,0.0038281440251475285,-0.0003695821498672647,-0.0005806338903580066,0.0002535376627097255,0.00015692811310277083,-0.0003695821498672647,0.0002535376627097255,2,Foot-flat,0.6623884474499847
1777250995568,0.0303676,1.00709,-0.136977,0.0112534,-0.000369499,0.0330475,97.70086730830486,0,3.45145,999,log_newX9.csv,0,False,0.896,-1.605709110038963,1.0168161868099663,0.03491293166322475,0.001344900000000003,0.0010817000000000049,0.0003500000000000725,0.0007500000000000284,4.400000000001625e-05,0.00018600000000001948,0.00021610000000000032,-3.5499999999999074e-05,0.00023538200000000002,0.00013128500000000008,-0.00030840000000000034,-0.0004948000000000036,0.016492680476758892,-0.007999569514396399,-0.03912754497971149,-0.013353701359495096,0.00038001116670938195,0.0007495933165766466,-0.00022684547215505446,-0.00048038313486477996,0.00038001116670938195,-0.00022684547215505446,2,Foot-flat,0.6623884474499847
1777250995581,0.0311161,1.00709,-0.137318,0.0111573,-8.30758e-05,0.0324736,97.71805007415695,0,3.3676,999,log_newX9.csv,0,False,0.909,-1.6456336191014596,1.0168848080796615,0.034336961744431405,0.0007484999999999992,-0.0005964000000000039,0.0,-0.0003500000000000725,-0.00034100000000000796,-0.0003850000000000242,-9.61e-05,-0.0003122000000000003,0.0002864232,5.10412e-05,-0.0005739000000000022,-0.00026550000000000185,0.017182765852084003,0.0006900853753251113,-0.03992450906249645,-0.0007969640827849567,6.862126969520155e-05,-0.0003113898970141804,-0.0005759699187933426,-0.0003491244466382881,6.862126969520155e-05,-0.0005759699187933426,2,Foot-flat,0.6623884474499847
1777250995595,0.0320007,1.00702,-0.137723,0.0109595,-1.28586e-06,0.0317606,97.73684608786813,0,3.46934,999,log_newX9.csv,0,False,0.923,-1.6882377796029657,1.0168977086853377,0.03359830880064406,0.0008845999999999993,0.0001361000000000001,-7.00000000000145e-05,-7.00000000000145e-05,-0.00040500000000001646,-6.40000000000085e-05,-0.0001977999999999997,-0.00010169999999999971,8.178994e-05,-0.00020463326,-0.0007129999999999984,-0.00013909999999999617,0.01879601371118156,0.0016132478590975552,-0.04260416050150617,-0.0026796514390097226,1.290060567615825e-05,-5.57206640190433e-05,-0.0007386529437873463,-0.00016268302499400367,1.290060567615825e-05,-0.0007386529437873463,2,Foot-flat,0.6623884474499847
1777250995608,0.0332877,1.00738,-0.138311,0.0106657,-0.000116895,0.0308477,97.75869001398044,0,3.50566,999,log_newX9.csv,0,False,0.936,-1.7386944863515736,1.0173752838025356,0.03263972144827564,0.0012870000000000034,0.00040240000000000414,0.00035999999999991594,0.00042999999999993044,-0.0005879999999999774,-0.00018299999999996097,-0.0002938000000000003,-9.60000000000006e-05,-0.00011560914,-0.00019739908,-0.0009129000000000012,-0.00019990000000000285,0.021843926112310896,0.003047912401129338,-0.050456706748607916,-0.007852546247101744,0.0004775751171979259,0.00046467451152176764,-0.000958587352368416,-0.00021993440858106977,0.0004775751171979259,-0.000958587352368416,2,Foot-flat,0.6623884474499847
1777250995622,0.0339407,1.00761,-0.138701,0.0104441,-0.000247429,0.0297848,97.78003657427422,0,3.48403,999,log_newX9.csv,0,False,0.95,-1.7853069423810417,1.0176776752083587,0.031563820379669524,0.0006529999999999939,-0.0006340000000000096,0.00022999999999995246,-0.00012999999999996348,-0.00039000000000000146,0.00019799999999997597,-0.00022160000000000062,7.21999999999997e-05,-0.00013053400000000002,-1.4924860000000028e-05,-0.0010628999999999986,-0.00014999999999999736,0.021346560293778793,-0.0004973658185321028,-0.04661245602946806,0.0038442507191398523,0.0003023914058231103,-0.0001751837113748156,-0.001075901068606118,-0.00011731371623770193,0.0003023914058231103,-0.001075901068606118,3,Heel-off,0.5067270141870648
1777250995636,0.03405,1.00818,-0.13859,0.00996939,-0.000550556,0.028713,97.79276139045625,0,3.53057,999,log_newX9.csv,0,False,0.964,-1.8207087517270177,1.0182305745753266,0.030399477263289183,0.00010929999999999968,-0.0005436999999999942,0.0005700000000001815,0.000340000000000229,0.00011099999999999999,0.0005010000000000014,-0.0004747099999999997,-0.0002531099999999991,-0.000303127,-0.00017259299999999997,-0.0010718000000000012,-8.900000000002656e-06,0.01272481618202903,-0.008621744111749763,-0.03540180934597603,0.011210646683492032,0.0005528993669678961,0.0002505079611447858,-0.001164343116380341,-8.844204777422315e-05,0.0005528993669678961,-0.001164343116380341,3,Heel-off,0.5067270141870648
1777250995649,0.0343998,1.00886,-0.138375,0.00966268,-0.000798103,0.0280998,97.7974031884562,0,3.48251,999,log_newX9.csv,0,False,0.977,-1.8515303084326638,1.0188863952693843,0.029725462371862427,0.0003498000000000043,0.0002405000000000046,0.0006800000000000139,0.00010999999999983245,0.00021499999999999297,0.00010399999999999299,-0.00030670999999999997,0.00016799999999999975,-0.000247547,5.5580000000000007e-05,-0.0006131999999999978,0.00045860000000000345,0.004641797999951791,-0.00808301818207724,-0.030821556705646014,0.004580252640330018,0.0006558206940576738,0.00010292132708977775,-0.0006740148914267559,0.0004903282249535852,0.0006558206940576738,-0.0006740148914267559,3,Heel-off,0.5067270141870648
1777250995663,0.0339353,1.01034,-0.138392,0.00920614,-0.00110885,0.0287376,97.79799398490157,0,3.49405,999,log_newX9.csv,0,False,0.991,-1.8662304690314697,1.0203386035283042,0.0301965596679837,-0.00046449999999999964,-0.0008143000000000039,0.0014799999999999258,0.0007999999999999119,-1.6999999999989246e-05,-0.00023199999999998222,-0.00045654000000000007,-0.0001498300000000001,-0.000310747,-6.320000000000002e-05,0.0006377999999999974,0.0012509999999999952,0.0005907964453655268,-0.004051001554586264,-0.014700160598805967,0.016121396106840047,0.001452208258919896,0.0007963875648622221,0.0004710972961212735,0.0011451121875480294,0.001452208258919896,0.0004710972961212735,3,Heel-off,0.5067270141870648
1777250995676,0.0320312,1.01402,-0.137723,0.00921642,-0.000772497,0.0312242,97.78084554677795,0,3.42507,999,log_newX9.csv,0,False,1.004,-1.8464000656949073,1.0238311300709897,0.03256516259550087,-0.0019040999999999988,-0.0014395999999999992,0.0036799999999999056,0.0021999999999999797,0.0006689999999999752,0.0006859999999999644,1.0279999999999664e-05,0.00046681999999999974,0.00033635299999999996,0.0006471,0.002486600000000002,0.0018488000000000046,-0.017148438123612664,-0.01773923456897819,0.019830403336562386,0.03453056393536835,0.0034925265426855034,0.0020403182837656075,0.0023686029275171716,0.001897505631395898,0.0034925265426855034,0.0023686029275171716,3,Heel-off,0.5067270141870648
1777250995690,0.0330832,1.01438,-0.13805,0.00967157,-0.00024087,0.0333571,97.77249656201097,0,3.44375,999,log_newX9.csv,0,False,1.018,-1.8476276513229068,1.0242651439067134,0.034731734840514374,0.0010519999999999974,0.0029560999999999962,0.000360000000000138,-0.0033199999999997676,-0.00032699999999999396,-0.0009959999999999691,0.0004551500000000014,0.0004448700000000017,0.000531627,0.00019527400000000006,0.0021329,-0.00035370000000000193,-0.008348984766982426,0.008799453356630238,-0.0012275856279995168,-0.021057988964561902,0.0004340138357237233,-0.00305851270696178,0.002166572245013501,-0.0002020306825036705,0.0004340138357237233,0.002166572245013501,3,Heel-off,0.671618484087848
1777250995704,0.035268,1.01403,-0.138112,0.010628,0.000376553,0.0344579,97.7680461539659,0,3.48466,999,log_newX9.csv,0,False,1.032,-1.8816971292947478,1.0239998033534967,0.036061656209494995,0.0021848000000000006,0.0011328000000000032,-0.0003500000000000725,-0.0007100000000002105,-6.20000000000065e-05,0.00026499999999998747,0.0009564299999999994,0.000501279999999998,0.000617423,8.579599999999996e-05,0.001100799999999999,-0.001032100000000001,-0.004450408045073573,0.003898576721908853,-0.0340694779718409,-0.03284189234384138,-0.00026534055321669747,-0.0006993543889404208,0.0013299213689806216,-0.0008366508760328795,-0.00026534055321669747,0.0013299213689806216,3,Heel-off,0.671618484087848
1777250995717,0.0364808,1.0138,-0.138568,0.0123102,0.0011392,0.0345119,97.77210261861855,0,3.45894,999,log_newX9.csv,0,False,1.045,-1.9249731458434713,1.023876154323676,0.03665937864026066,0.0012128,-0.0009720000000000006,-0.00022999999999995246,0.00012000000000012001,-0.0004559999999999842,-0.0003939999999999777,0.0016822,0.0007257700000000006,0.000762647,0.000145224,5.3999999999998494e-05,-0.0010468000000000005,0.004056464652649083,0.008506872697722656,-0.043276016548723595,-0.009206538576882695,-0.0001236490298206494,0.00014169152339604807,0.0005977224307656681,-0.0007321989382149535,-0.0001236490298206494,0.0005977224307656681,3,Heel-off,0.671618484087848
1777250995731,0.039913,1.01448,-0.137519,0.0145832,0.00185047,0.0333208,97.75795652976157,0,3.46431,999,log_newX9.csv,0,False,1.059,-2.0080925856837326,1.0245360868851816,0.03641935850754238,0.0034321999999999964,0.0022193999999999964,0.0006800000000000139,0.0009099999999999664,0.0010489999999999944,0.0015049999999999786,0.002272999999999999,0.000590799999999999,0.00071127,-5.137700000000002e-05,-0.0011911000000000005,-0.001245099999999999,-0.014146088856975325,-0.01820255350962441,-0.08311943984026127,-0.03984342329153767,0.0006599325615055385,0.0007835815913261879,-0.00024002013271828132,-0.0008377425634839494,0.0006599325615055385,-0.00024002013271828132,3,Heel-off,0.671618484087848
1777250995744,0.0418788,1.01408,-0.13731,0.017157,0.00250469,0.0309075,97.74531216828387,0,3.57068,999,log_newX9.csv,0,False,1.072,-2.0986937114165456,1.0241904688042358,0.03543881596845611,0.0019658000000000037,-0.0014663999999999927,-0.00039999999999995595,-0.0010799999999999699,0.00020900000000001473,-0.0008399999999999797,0.0025737999999999994,0.00030080000000000037,0.0006542200000000001,-5.7049999999999896e-05,-0.0024132999999999967,-0.0012221999999999962,-0.01264436147769743,0.0015017273792778951,-0.09060112573281298,-0.007481685892551715,-0.0003456180809457976,-0.001005550642451336,-0.0009805425390862696,-0.0007405224063679883,-0.0003456180809457976,-0.0009805425390862696,3,Heel-off,0.671618484087848
1777250995758,0.0432274,1.01394,-0.137962,0.0199374,0.00281813,0.0279787,97.74614128480748,0,3.36225,999,log_newX9.csv,0,False,1.086,-2.1852144588247504,1.0241955111963537,0.03447099402609243,0.0013485999999999984,-0.0006172000000000052,-0.000140000000000029,0.00025999999999992696,-0.0006520000000000137,-0.0008610000000000284,0.0027804000000000023,0.00020660000000000296,0.0003134399999999999,-0.00034078000000000016,-0.0029288000000000022,-0.0005155000000000055,0.0008291165236045117,0.013473478001301942,-0.08652074740820481,0.004080378324608169,5.0423921178488484e-06,0.00035066047306364645,-0.0009678219423636808,1.2720596722588795e-05,5.0423921178488484e-06,-0.0009678219423636808,3,Heel-off,0.7398854608638419
1777250995771,0.0442675,1.01681,-0.138974,0.0238423,0.00306687,0.0245976,97.75603460751094,0,3.33953,999,log_newX9.csv,0,False,1.099,-2.262124533441271,1.02721758178696,0.034393355268814645,0.0010401000000000021,-0.0003084999999999963,0.002869999999999928,0.003009999999999957,-0.0010119999999999851,-0.00035999999999997145,0.0039048999999999993,0.001124499999999997,0.00024874000000000033,-6.469999999999957e-05,-0.003381099999999998,-0.00045229999999999576,0.009893322703462104,0.009064206179857592,-0.07691007461652077,0.009610672791684038,0.0030220705906063294,0.0030170281984884806,-7.763875727778702e-05,0.0008901831850858938,0.0030220705906063294,-7.763875727778702e-05,3,Heel-off,0.7398854608638419
1777250995785,0.0458793,1.0207,-0.137724,0.0287271,0.0030704,0.0211663,97.73672560466504,0,3.46971,999,log_newX9.csv,0,False,1.113,-2.3400485120917334,1.0309710472872116,0.03581460437112212,0.0016117999999999966,0.0005716999999999944,0.003889999999999949,0.0010200000000000209,0.0012499999999999734,0.0022619999999999585,0.004884799999999998,0.0009798999999999988,3.5299999999998527e-06,-0.0002452100000000005,-0.0034313000000000017,-5.0200000000003714e-05,-0.01930900284590109,-0.029202325549363195,-0.07792397865046219,-0.0010139040339414152,0.0037534655002515738,0.0007313949096452443,0.0014212491023074744,0.0014988878595852614,0.0037534655002515738,0.0014212491023074744,3,Heel-off,0.7398854608638419
1777250995798,0.0472911,1.02945,-0.135901,0.0361214,0.00265834,0.0176365,97.67826074422882,0,3.38549,999,log_newX9.csv,0,False,1.126,-2.412335837899244,1.0394579512612379,0.0402848413397099,0.0014118000000000047,-0.00019999999999999185,0.008750000000000036,0.0048600000000000865,0.001823000000000019,0.0005730000000000457,0.0073942999999999995,0.0025095000000000013,-0.0004120600000000001,-0.00041558999999999997,-0.0035297999999999996,-9.84999999999979e-05,-0.058464860436217236,-0.039155857590316145,-0.07228732580751052,0.005636652842951673,0.008486903974026294,0.00473343847377472,0.004470236968587782,0.0030489878662803074,0.008486903974026294,0.004470236968587782,3,Heel-off,0.7398854608638419
1777250995812,0.0501028,1.04103,-0.135084,0.0465866,0.00110888,0.0135381,97.60130017010816,0,3.49399,999,log_newX9.csv,0,False,1.14,-2.498840310393675,1.0509526338155493,0.04852649859637928,0.0028117000000000003,0.0013998999999999956,0.011579999999999924,0.002829999999999888,0.0008169999999999844,-0.0010060000000000346,0.010465200000000001,0.0030709000000000014,-0.00154946,-0.0011373999999999998,-0.004098399999999999,-0.000568599999999999,-0.07696057412066182,-0.01849571368444458,-0.08650447249443127,-0.014217146686920756,0.011494682554311408,0.0030077785802851142,0.00824165725666938,0.003771420288081598,0.011494682554311408,0.00824165725666938,3,Heel-off,0.7398854608638419
1777250995826,0.0612618,1.05221,-0.129232,0.0638601,-0.00405352,0.00453099,97.43938933599102,0,3.46403,999,log_newX9.csv,0,False,1.154,-2.7172558717609214,1.0618850229960117,0.0641488368310798,0.011158999999999995,0.008347299999999995,0.01118000000000019,-0.0003999999999997339,0.005851999999999996,0.005035000000000012,0.017273500000000004,0.006808300000000003,-0.005162399999999999,-0.0036129399999999994,-0.00900711,-0.004908710000000002,-0.16191083411713691,-0.0849502599964751,-0.21841556136724627,-0.131911088872815,0.010932389180462465,-0.0005622933738489433,0.015622338234700522,0.007380680978031143,0.010932389180462465,0.015622338234700522,3,Heel-off,0.8140524267704943
1777250995839,0.078848,1.08713,-0.131391,0.090339,-0.0161033,0.0137448,97.29133787930154,0,3.46494,999,log_newX9.csv,0,False,1.167,-3.0957976328134453,1.0978762402406748,0.09278669473006354,0.017586200000000003,0.006427200000000008,0.03491999999999984,0.02373999999999965,-0.0021589999999999943,-0.00801099999999999,0.0264789,0.009205399999999996,-0.012049780000000001,-0.006887380000000002,0.00921381,0.01822092,-0.14805145668948683,0.013859377427650088,-0.3785417610525239,-0.16012619968527764,0.03599121724466303,0.025058828064200567,0.028637857898983737,0.013015519664283215,0.03599121724466303,0.028637857898983737,3,Heel-off,0.8140524267704943
1777250995853,0.0696315,1.11079,-0.123706,0.140345,-0.025884,-1.41023e-05,97.03830123329004,0,3.48053,999,log_newX9.csv,0,False,1.181,-3.222553963737207,1.1198241577713215,0.14271195002477846,-0.009216500000000002,-0.026802700000000006,0.023660000000000014,-0.011259999999999826,0.007685000000000011,0.009844000000000006,0.050005999999999995,0.023527099999999995,-0.0097807,0.0022690800000000014,-0.0137589023,-0.0229727123,-0.2530366460114948,-0.10498518932200795,-0.1267563309237616,0.2517854301287623,0.021947917530646732,-0.0140432997140163,0.04992525529471492,0.021287397395731184,0.021947917530646732,0.04992525529471492,3,Heel-off,0.8140524267704943
1777250995866,0.0809957,1.13673,-0.119574,0.193484,-0.0397493,-0.0025355,96.75912919336605,0,3.41566,999,log_newX9.csv,0,False,1.194,-3.4469942223268912,1.1458679408180028,0.19754111943273986,0.011364200000000005,0.020580700000000007,0.025940000000000074,0.0022800000000000598,0.004131999999999997,-0.0035530000000000145,0.05313899999999999,0.003132999999999997,-0.0138653,-0.004084600000000001,-0.0025213977,0.0112375046,-0.2791720399239921,-0.026135393912497307,-0.2244402585896843,-0.09768392766592271,0.026043783046681312,0.00409586551603458,0.0548291694079614,0.004903914113246477,0.026043783046681312,0.0548291694079614,3,Heel-off,0.8140524267704943
1777250995880,0.0743157,1.1639,-0.11503,0.256968,-0.0526226,-0.00674819,96.45795091505887,0,3.57125,999,log_newX9.csv,0,False,1.208,-3.4979862564232387,1.1719291506599234,0.26238755519848134,-0.006680000000000005,-0.01804420000000001,0.027169999999999916,0.0012299999999998423,0.004544000000000006,0.0004120000000000096,0.06348399999999998,0.010344999999999993,-0.012873299999999997,0.0009920000000000033,-0.00421269,-0.0016912922999999997,-0.3011782783071766,-0.022006238383184495,-0.05099203409634745,0.17344822449333686,0.02606120984192062,1.7426795239305903e-05,0.06484643576574148,0.01001726635778008,0.02606120984192062,0.06484643576574148,3,Heel-off,0.8140524267704943
1777250995894,0.0693526,1.19169,-0.11259,0.330679,-0.0637545,-0.0100737,96.17139387157007,0,3.65584,999,log_newX9.csv,0,False,1.222,-3.448806228245525,1.1990043149742038,0.33691945141671475,-0.004963099999999998,0.0017169000000000073,0.02778999999999998,0.0006200000000000649,0.0024399999999999977,-0.0021040000000000086,0.07371100000000003,0.010227000000000042,-0.011131900000000007,0.0017413999999999902,-0.0033255099999999994,0.0008871800000000004,-0.2865570434887985,0.01462123481837807,0.04918002817771372,0.10017206227406117,0.027075164314280364,0.001013954472359746,0.07453189621823342,0.00968546045249194,0.027075164314280364,0.07453189621823342,3,Heel-off,0.6251037010678356
1777250995908,0.0732685,1.21407,-0.108096,0.413717,-0.0765828,-0.0131269,95.87870112631161,0,3.49029,999,log_newX9.csv,0,False,1.236,-3.4464289999019897,1.2210728820214827,0.42095011206608557,0.0039159,0.008878999999999998,0.022380000000000067,-0.005409999999999915,0.004493999999999998,0.0020540000000000003,0.083038,0.009326999999999974,-0.0128283,-0.0016963999999999937,-0.0030532000000000007,0.0002723099999999987,-0.29269274525846356,-0.006135701769665047,0.002377228343535265,-0.046802799834178455,0.022068567047278886,-0.005006597267001478,0.08403066064937081,0.009498764431137396,0.022068567047278886,0.08403066064937081,3,Heel-off,0.6251037010678356
1777250995921,0.0785533,1.23359,-0.103813,0.504601,-0.0920871,-0.0171094,95.59009365104573,0,3.4339,999,log_newX9.csv,0,False,1.249,-3.496237041400188,1.2404402637813277,0.5132201620705971,0.005284800000000006,0.0013689000000000062,0.019519999999999982,-0.0028600000000000847,0.004282999999999995,-0.00021100000000000285,0.09088399999999996,0.007845999999999964,-0.015504299999999999,-0.002675999999999998,-0.0039825,-0.0009292999999999992,-0.28860747526587716,0.0040852699925864044,-0.049808041498198286,-0.05218526984173355,0.01936738175984498,-0.002701185287433905,0.0922700500045115,0.00823938935514068,0.01936738175984498,0.0922700500045115,3,Heel-off,0.6251037010678356
1777250995935,0.0883897,1.25975,-0.0951954,0.602208,-0.108623,-0.0256343,95.24736199897245,0,3.49149,999,log_newX9.csv,0,False,1.263,-3.63291994513024,1.2664300082307154,0.6124626917041478,0.009836399999999995,0.004551599999999989,0.02615999999999996,0.006639999999999979,0.008617600000000003,0.004334600000000008,0.097607,0.0067230000000000345,-0.016535899999999992,-0.0010315999999999936,-0.008524899999999998,-0.0045423999999999985,-0.34273165207328304,-0.05412417680740589,-0.1366829037300521,-0.08687486223185381,0.02598974444938773,0.006622362689542749,0.09924252963355074,0.006972479629039241,0.02598974444938773,0.09924252963355074,3,Heel-off,0.6251037010678356
1777250995948,0.102906,1.28204,-0.0902663,0.70597,-0.12698,-0.0385411,94.91779627199607,0,3.4932,999,log_newX9.csv,0,False,1.276,-3.888201103256423,1.2893270381682413,0.7183334724828087,0.014516299999999996,0.004679900000000001,0.022290000000000143,-0.003869999999999818,0.004929100000000006,-0.0036884999999999973,0.10376200000000002,0.0061550000000000216,-0.018357000000000012,-0.00182110000000002,-0.012906800000000003,-0.0043819000000000045,-0.32956572697638364,0.0131659250968994,-0.2552811581261829,-0.11859825439613081,0.02289702993752596,-0.0030927145118617716,0.10587078077866086,0.00662825114511012,0.02289702993752596,0.10587078077866086,3,Heel-off,0.6251037010678356
1777250995962,0.123811,1.30275,-0.0884212,0.806678,-0.149549,-0.0579733,94.63820340701865,0,3.45477,999,log_newX9.csv,0,False,1.29,-4.301105758809761,1.3116039931436776,0.8224689675591961,0.020905000000000007,0.006388700000000011,0.020710000000000006,-0.0015800000000001369,0.0018450999999999884,-0.0030840000000000173,0.10070800000000002,-0.003054000000000001,-0.022568999999999978,-0.004211999999999966,-0.019432199999999997,-0.006525399999999994,-0.27959286497741687,0.04997286199896678,-0.41290465555333844,-0.15762349742715553,0.022276954975436247,-0.0006200749620897117,0.10413549507638742,-0.001735285702273437,0.022276954975436247,0.10413549507638742,5,Swing,0.4876865658347708
1777250995976,0.130259,1.32323,-0.0889529,0.901736,-0.169601,-0.102885,94.42414932746705,0,3.50036,999,log_newX9.csv,0,False,1.304,-4.654580299223767,1.3325980858456197,0.923297154832614,0.006448000000000009,-0.014456999999999998,0.02047999999999983,-0.0002300000000001745,-0.0005316999999999961,-0.0023767999999999845,0.09505799999999998,-0.005650000000000044,-0.020052000000000014,0.0025169999999999637,-0.044911700000000006,-0.02547950000000001,-0.21405407955160172,0.06553878542581515,-0.3534745404140054,0.05943011513933305,0.02099409270194208,-0.0012828622734941675,0.10082818727341791,-0.0033073078029695058,0.02099409270194208,0.10082818727341791,5,Swing,0.4876865658347708
1777250995989,0.135565,1.34743,-0.0965076,0.991461,-0.190485,-0.176874,94.33569396040873,0,3.40732,999,log_newX9.csv,0,False,1.317,-4.945278123831885,1.3576668188413386,1.0249701759670864,0.005305999999999977,-0.0011420000000000319,0.0242,0.0037200000000001676,-0.0075546999999999975,-0.0070230000000000015,0.08972500000000005,-0.005332999999999921,-0.020883999999999986,-0.0008319999999999717,-0.073989,-0.029077299999999993,-0.08845536705831591,0.1255987124932858,-0.29069782460811844,0.06277671580588695,0.02506873299571888,0.004074640293776799,0.10167302113447241,0.0008448338610544948,0.02506873299571888,0.10167302113447241,5,Swing,0.4876865658347708
1777250996003,0.128372,1.34247,-0.100448,1.07615,-0.194281,-0.245942,94.32040046929545,0,3.91788,999,log_newX9.csv,0,False,1.331,-5.080846732180943,1.3523294243593165,1.1208618990870374,-0.007192999999999977,-0.012498999999999955,-0.004959999999999853,-0.029159999999999853,-0.003940399999999997,0.003614300000000001,0.0846889999999999,-0.0050360000000001515,-0.0037960000000000216,0.017087999999999964,-0.06906799999999999,0.004921000000000009,-0.015293491113283153,0.07316187594503276,-0.13556860834905748,0.15512921625906095,-0.005337394482022084,-0.030406127477740963,0.09589172311995098,-0.00578129801452143,-0.005337394482022084,0.09589172311995098,5,Swing,0.4876865658347708
1777250996017,0.147848,1.35083,-0.0891573,1.15609,-0.206219,-0.300426,94.17336820450298,0,3.44695,999,log_newX9.csv,0,False,1.345,-5.392025035769551,1.3618185430325473,1.2121576405472188,0.019475999999999993,0.02666899999999997,0.008359999999999923,0.013319999999999776,0.0112907,0.015231099999999997,0.07994000000000012,-0.004748999999999781,-0.011938000000000004,-0.008141999999999983,-0.05448400000000003,0.014583999999999958,-0.14703226479247178,-0.13173877367918863,-0.31117830358860843,-0.17560969523955094,0.009489118673230879,0.014826513155252963,0.09129574146018138,-0.004595981659769599,0.009489118673230879,0.09129574146018138,5,Swing,0.4876865658347708
1777250996030,0.164082,1.3399,-0.0728855,1.23155,-0.216588,-0.367444,93.88706671408299,0,3.52631,999,log_newX9.csv,0,False,1.358,-5.8186986786322885,1.3518754413163405,1.3033191694209059,0.016234,-0.003241999999999995,-0.010929999999999884,-0.019289999999999807,0.01627179999999999,0.004981099999999988,0.07545999999999986,-0.0044800000000002616,-0.01036899999999999,0.0015690000000000148,-0.06701799999999997,-0.012533999999999934,-0.2863014904199872,-0.13926922562751543,-0.42667364286273735,-0.11549533927412892,-0.009943101716206826,-0.019432220389437704,0.09116152887368711,-0.00013421258649426449,-0.009943101716206826,0.09116152887368711,5,Swing,0.7035165911852006
1777250996044,0.175831,1.31856,-0.0619087,1.30278,-0.228383,-0.440042,93.563175421844,0,3.62305,999,log_newX9.csv,0,False,1.372,-6.29651471697437,1.3316717693548548,1.3939266425651675,0.011748999999999982,-0.004485000000000017,-0.021340000000000137,-0.010410000000000252,0.010976800000000009,-0.00529499999999998,0.07123000000000013,-0.004229999999999734,-0.011795,-0.0014260000000000106,-0.072598,-0.005580000000000029,-0.32389129223899715,-0.03758980181900995,-0.4778160383420813,-0.05114239547934396,-0.02020367196148576,-0.010260570245278933,0.09060747314426165,-0.0005540557294254622,-0.02020367196148576,0.09060747314426165,5,Swing,0.7035165911852006
1777250996058,0.150425,1.30405,-0.0559299,1.37,-0.224273,-0.51195,93.26403147327966,0,3.57994,999,log_newX9.csv,0,False,1.386,-6.3715113517693185,1.3138882132202152,1.4796253515768782,-0.025405999999999984,-0.037154999999999966,-0.014510000000000023,0.006830000000000114,0.005978799999999999,-0.004998000000000009,0.06722000000000006,-0.004010000000000069,0.0041100000000000025,0.015905000000000002,-0.07190800000000003,0.0006899999999999684,-0.29914394856433546,0.024747343674661693,-0.07499663479494867,0.40281940354713264,-0.017783556134639555,0.002420115826846203,0.08569870901171073,-0.004908764132550925,-0.017783556134639555,0.08569870901171073,5,Swing,0.7035165911852006
1777250996071,0.129032,1.24894,-0.0611463,1.43346,-0.199541,-0.561327,93.13944871718483,0,3.50934,999,log_newX9.csv,0,False,1.399,-6.241827200507481,1.257075674185007,1.5523247673119178,-0.021392999999999995,0.004012999999999989,-0.05510999999999999,-0.04059999999999997,-0.005216400000000003,-0.011195200000000002,0.06345999999999985,-0.0037600000000002076,0.024732000000000004,0.020622,-0.049377000000000004,0.022531000000000023,-0.12458275609482428,0.17456119246951118,0.12968415126183785,0.20468078605678652,-0.05681253903520811,-0.039028982900568554,0.07269941573503957,-0.012999293276671153,-0.05681253903520811,0.07269941573503957,5,Swing,0.7035165911852006
1777250996085,0.108757,1.182,-0.068138,1.49336,-0.157471,-0.591153,93.18261784132135,0,3.41397,999,log_newX9.csv,0,False,1.413,-5.973440018523168,1.188946959327034,1.6138101111500076,-0.020275,0.001117999999999994,-0.06694,-0.011830000000000007,-0.0069917000000000035,-0.0017753000000000005,0.059900000000000064,-0.0035599999999997856,0.042069999999999996,0.017337999999999992,-0.02982600000000002,0.019550999999999985,0.04316912413651153,0.1677518802313358,0.26838718198431266,0.1387030307224748,-0.068128714857973,-0.011316175822764896,0.06148534383808979,-0.011214071896949784,-0.068128714857973,0.06148534383808979,5,Swing,0.7035165911852006
1777250996099,0.0970279,1.10588,-0.0750525,1.51937,-0.101144,-0.611744,93.37170231538252,0,3.56801,999,log_newX9.csv,0,False,1.427,-5.711198892148634,1.1126625119660767,1.641019813156441,-0.011729100000000006,0.008545899999999995,-0.07611999999999997,-0.009179999999999966,-0.00691449999999999,7.720000000001337e-05,0.02601000000000009,-0.033889999999999976,0.056327,0.014257000000000006,-0.020590999999999915,0.009235000000000104,0.18908447406117546,0.14591534992466393,0.26224112637453434,-0.0061460556097783225,-0.07628444736095741,-0.008155732502984403,0.027209702006433467,-0.03427564183165632,-0.07628444736095741,0.027209702006433467,5,Swing,0.9005214083441555
1777250996112,0.0907363,1.02236,-0.0776351,1.50324,-0.0367096,-0.63479,93.63398115092733,0,3.47358,999,log_newX9.csv,0,False,1.44,-5.534552322212032,1.0293105724171399,1.6321876229257957,-0.006291599999999994,0.005437500000000012,-0.08352000000000004,-0.007400000000000073,-0.0025826000000000043,0.004331899999999986,-0.0161300000000002,-0.04214000000000029,0.0644344,0.0081074,-0.02304600000000001,-0.002455000000000096,0.26227883554480513,0.07319436148362968,0.17664656993660177,-0.08559455643793257,-0.08335193954893683,-0.007067492187979418,-0.00883219023064541,-0.036041892237078876,-0.08335193954893683,-0.00883219023064541,5,Swing,0.9005214083441555
1777250996126,0.0950411,0.936737,-0.0779365,1.44269,0.0269403,-0.655002,93.93711603045685,0,3.43634,999,log_newX9.csv,0,False,1.454,-5.599126407624434,0.9447661699544815,1.5846475431048035,0.0043047999999999975,0.010596399999999992,-0.0856229999999999,-0.002102999999999855,-0.0003014000000000072,0.002281199999999997,-0.06054999999999988,-0.04441999999999968,0.06364990000000001,-0.0007844999999999935,-0.020212000000000008,0.002834000000000003,0.303134879529523,0.04085604398471787,-0.06457408541240195,-0.24122065534900372,-0.08454440246265837,-0.0011924629137215481,-0.047540079820992176,-0.03870788959034677,-0.08454440246265837,-0.047540079820992176,5,Swing,0.9005214083441555
1777250996139,0.106239,0.853736,-0.0765365,1.3392,0.0829436,-0.658318,94.25743847757865,0,3.49505,999,log_newX9.csv,0,False,1.467,-5.9952442421489485,0.8637185413369625,1.494563103353271,0.011197899999999997,0.006893099999999999,-0.08300099999999999,0.002621999999999902,0.0014000000000000123,0.0017014000000000196,-0.10349000000000008,-0.0429400000000002,0.056003300000000006,-0.007646600000000003,-0.0033159999999999856,0.016896000000000022,0.32032244712179647,0.017187567592273467,-0.39611783452451466,-0.3315437491121127,-0.08104762861751902,0.003496773845139356,-0.09008443975153257,-0.0425443599305404,-0.08104762861751902,-0.09008443975153257,5,Swing,0.9005214083441555
1777250996153,0.122671,0.776445,-0.0751877,1.19511,0.12633,-0.634618,94.60150961434893,0,3.46103,999,log_newX9.csv,0,False,1.481,-6.789940160514904,0.7896633475711596,1.359039067475251,0.016432000000000002,0.005234100000000005,-0.077291,0.005709999999999993,0.0013487999999999972,-5.120000000001512e-05,-0.14409000000000005,-0.04059999999999997,0.04338639999999999,-0.012616900000000014,0.023699999999999943,0.02701599999999993,0.3440711367702818,0.02374868964848531,-0.7946959183659557,-0.398578083841441,-0.07405519376580283,0.006992434851716189,-0.13552403587801987,-0.04543959612648729,-0.07405519376580283,-0.13552403587801987,5,Swing,0.9005214083441555
1777250996167,0.136071,0.711912,-0.0714084,1.01557,0.158328,-0.587571,94.9058110094544,0,3.47642,999,log_newX9.csv,0,False,1.495,-7.864620193687742,0.7283084321738695,1.183929837669868,0.013399999999999995,-0.003032000000000007,-0.06453300000000006,0.012757999999999936,0.0037792999999999993,0.002430500000000002,-0.1795399999999998,-0.03544999999999976,0.031998,-0.011388399999999993,0.04704700000000006,0.023347000000000118,0.30430139510546894,-0.03976974166481284,-1.0746800331728377,-0.279984114806882,-0.0613549153972901,0.01270027836851273,-0.17510922980538313,-0.03958519392736326,-0.0613549153972901,-0.17510922980538313,5,Swing,1.0
1777250996180,0.144352,0.671623,-0.0631029,0.818295,0.185051,-0.531529,95.03054336311719,0,3.46242,999,log_newX9.csv,0,False,1.508,-9.003006819655795,0.6898528321471254,0.993163459591119,0.00828100000000001,-0.005118999999999985,-0.04028900000000002,0.024244000000000043,0.008305499999999993,0.004526199999999994,-0.1972750000000001,-0.01773500000000028,0.026722999999999997,-0.005275000000000002,0.056041999999999925,0.008994999999999864,0.12473235366279312,-0.17956904144267583,-1.138386625968053,-0.0637065927952154,-0.038455600026744086,0.022899315370546014,-0.19076637807874897,-0.01565714827336584,-0.038455600026744086,-0.19076637807874897,5,Swing,1.0
1777250996194,0.147169,0.649685,-0.0516889,0.632086,0.2101,-0.478562,94.90041554972761,0,3.5364,999,log_newX9.csv,0,False,1.522,-10.008405855872937,0.6681474808522516,0.8201806564653912,0.002816999999999986,-0.005464000000000024,-0.021938000000000013,0.018351000000000006,0.011414,0.003108500000000007,-0.18620899999999996,0.011066000000000131,0.025049000000000016,-0.001673999999999981,0.05296700000000004,-0.0030749999999998834,-0.1301278133895778,-0.2548601670523709,-1.0053990362171419,0.13298758975091118,-0.02170535129487383,0.016750248731870254,-0.17298280312572778,0.017783574953021186,-0.02170535129487383,-0.17298280312572778,5,Swing,1.0
1777250996208,0.148596,0.637482,-0.0418191,0.456322,0.234745,-0.431255,94.5905018134177,0,3.91405,999,log_newX9.csv,0,False,1.536,-10.842020277220673,0.6559061736748709,0.6703102697512549,0.0014270000000000116,-0.0013899999999999746,-0.012202999999999964,0.00973500000000005,0.009869800000000005,-0.0015441999999999956,-0.17576400000000003,0.010444999999999927,0.024645,-0.00040400000000001546,0.04730699999999999,-0.005660000000000054,-0.3099137363099089,-0.17978592292033113,-0.8336144213477361,0.17178461486940577,-0.0122413071773807,0.009464044117493131,-0.14987038671413633,0.023112416411591452,-0.0122413071773807,-0.14987038671413633,5,Swing,1.0
1777250996221,0.14919,0.641534,-0.0338449,0.290417,0.260739,-0.391795,94.16619623260988,0,3.46782,999,log_newX9.csv,0,False,1.549,-11.44500418212191,0.6595218013925014,0.5530191515987489,0.0005939999999999834,-0.0008330000000000282,0.0040520000000000556,0.01625500000000002,0.0079742,-0.0018956000000000042,-0.16590500000000002,0.009859000000000007,0.02599399999999999,0.001348999999999989,0.039459999999999995,-0.007846999999999993,-0.4243055808078253,-0.1143918444979164,-0.6029839049012367,0.23063051644649946,0.003615627717630465,0.015856934895011165,-0.11729111815250592,0.0325792685616304,0.003615627717630465,-0.11729111815250592,5,Swing,1.0
1777250996235,0.148052,0.659505,-0.0264413,0.133819,0.288059,-0.360381,93.66092671455142,0,3.3882,999,log_newX9.csv,0,False,1.563,-11.768573081588057,0.6764357930171127,0.48037483010978005,-0.0011380000000000001,-0.0017319999999999836,0.01797099999999996,0.013918999999999904,0.007403599999999996,-0.0005706000000000044,-0.156598,0.009307000000000037,0.02732000000000001,0.0013260000000000216,0.031414,-0.008045999999999998,-0.505269518058455,-0.08096393725062967,-0.32356889946614764,0.279415005435089,0.01691399162461127,0.013298363906980804,-0.07264432148896888,0.04464679666353705,0.01691399162461127,-0.07264432148896888,5,Swing,1.0
1777250996249,0.146704,0.684821,-0.0220001,-0.0139961,0.316604,-0.335915,93.16899555248564,0,3.49245,999,log_newX9.csv,0,False,1.577,-11.854121973392424,0.7007038390482887,0.4618147581619821,-0.001347999999999988,-0.00020999999999998797,0.025316000000000005,0.007345000000000046,0.004441199999999999,-0.002962399999999997,-0.1478151,0.008782899999999982,0.028544999999999987,0.001224999999999976,0.024465999999999988,-0.00694800000000001,-0.49193116206578225,0.013338355992672746,-0.08554889180436653,0.2380200076617811,0.02426804603117605,0.007354054406564781,-0.018560071947797963,0.054084249541170915,0.02426804603117605,-0.018560071947797963,5,Swing,1.0
1777250996262,0.146418,0.707526,-0.0199307,-0.153519,0.345166,-0.31384,92.74878781289229,0,3.38844,999,log_newX9.csv,0,False,1.59,-11.809093776670258,0.7227921583709178,0.4911244206074465,-0.00028600000000000847,0.0010619999999999796,0.022704999999999975,-0.00261100000000003,0.0020694000000000025,-0.002371799999999997,-0.13952289999999998,0.008292200000000027,0.028561999999999976,1.6999999999989246e-05,0.02207500000000001,-0.0023909999999999765,-0.42020773959335145,0.0717234224724308,0.04502819672216596,0.1305770885265325,0.022088319322629113,-0.0021797267085469363,0.0293096624454644,0.047869734393262364,0.022088319322629113,0.0293096624454644,5,Swing,1.0
1777250996276,0.147271,0.72652,-0.018799,-0.285217,0.373745,-0.289355,92.40661687153559,0,3.45199,999,log_newX9.csv,0,False,1.604,-11.713508664026639,0.7415345307145178,0.5520510647929229,0.0008530000000000204,0.0011390000000000289,0.018994000000000066,-0.003710999999999909,0.0011316999999999994,-0.0009377000000000031,-0.131698,0.007824899999999968,0.02857900000000002,1.7000000000044757e-05,0.024485000000000035,0.0024100000000000232,-0.3421709413566987,0.07803679823665277,0.09558511264361869,0.05055691592145273,0.01874237234359999,-0.003345946979029124,0.060926644185476386,0.031616981740011985,0.01874237234359999,0.060926644185476386,5,Swing,1.0
1777250996289,0.151157,0.748995,-0.0178267,-0.409526,0.402827,-0.262368,92.12479332062229,0,3.35405,999,log_newX9.csv,0,False,1.617,-11.630605968811901,0.7643034344466142,0.6315204699999835,0.0038860000000000006,0.00303299999999998,0.02247499999999991,0.0034809999999998453,0.0009722999999999989,-0.0001594000000000005,-0.124309,0.007389000000000007,0.029081999999999997,0.0005029999999999757,0.026986999999999983,0.0025019999999999487,-0.2818235509133018,0.060347390443396876,0.08290269521473803,-0.012682417428880655,0.02276890373209639,0.004026531388496402,0.07946940520706058,0.018542761021584198,0.02276890373209639,0.07946940520706058,5,Swing,1.0
1777250996302,0.156496,0.778111,-0.0164433,-0.526863,0.431438,-0.234857,91.87782189506815,0,3.37032,999,log_newX9.csv,0,False,1.63,-11.560016315123292,0.7938627768398578,0.7203340746223241,0.005338999999999983,0.001452999999999982,0.02911600000000003,0.006641000000000119,0.0013834,0.00041110000000000105,-0.11733699999999997,0.006972000000000034,0.028610999999999998,-0.0004709999999999992,0.02751099999999998,0.0005239999999999967,-0.2469714255541362,0.0348521253591656,0.07058965368860903,-0.012313041526128998,0.02955934239324365,0.006790438661147258,0.08881360462234067,0.009344199415280086,0.02955934239324365,0.08881360462234067,5,Swing,0.8312526875385394
1777250996316,0.163261,0.812208,-0.0155073,-0.637619,0.458941,-0.208786,91.6660141058374,0,3.47705,999,log_newX9.csv,0,False,1.644,-11.506922025306274,0.8285990983209492,0.8128815562171404,0.006764999999999993,0.0014260000000000106,0.034097000000000044,0.004981000000000013,0.0009360000000000011,-0.00044739999999999884,-0.11075600000000008,0.0065809999999998925,0.027503,-0.0011079999999999979,0.02607100000000001,-0.001439999999999969,-0.21180778923074683,0.03516363632338937,0.05309428981701814,-0.017495363871590897,0.0347363214810914,0.005176979087847755,0.0925474815948163,0.003733876972475625,0.0347363214810914,0.0925474815948163,5,Swing,0.8312526875385394
1777250996330,0.168592,0.840298,-0.0158015,-0.742161,0.486272,-0.183129,91.50696918240347,0,3.37731,999,log_newX9.csv,0,False,1.658,-11.462605162044483,0.8571894065317477,0.9059799327501685,0.005331000000000002,-0.0014339999999999908,0.02808999999999995,-0.006007000000000096,-0.00029419999999999967,-0.0012302000000000007,-0.10454199999999991,0.006214000000000164,0.027330999999999994,-0.00017200000000000548,0.025657000000000013,-0.0004139999999999977,-0.15904492343393883,0.052762865796808,0.044316863261791184,-0.008777426555226953,0.028590308210798443,-0.00614601327029296,0.0930983765330281,0.00055089493821181,0.028590308210798443,0.0930983765330281,5,Swing,0.8312526875385394
1777250996343,0.173186,0.868004,-0.0145728,-0.84084,0.515037,-0.158876,91.35969931329464,0,3.41205,999,log_newX9.csv,0,False,1.671,-11.413828047704657,0.8852325689398465,0.998757528304543,0.004594000000000015,-0.0007369999999999877,0.02770600000000001,-0.00038399999999993994,0.0012286999999999992,0.001522899999999999,-0.09867900000000007,0.0058629999999998406,0.028764999999999985,0.0014339999999999908,0.024252999999999997,-0.0014040000000000163,-0.14726986910882545,0.011775054325113388,0.0487771143398259,0.004460251078034716,0.028043162408098787,-0.0005471458026996556,0.09277759555437448,-0.0003207809786536231,0.028043162408098787,0.09277759555437448,5,Swing,0.8312526875385394
1777250996356,0.178535,0.903304,-0.013276,-0.933983,0.545687,-0.137851,91.21984621921189,0,3.35877,999,log_newX9.csv,0,False,1.684,-11.350400092916749,0.9208741036737866,1.0904592814309941,0.005348999999999993,0.0007549999999999779,0.0353,0.00759399999999999,0.0012968000000000007,6.810000000000149e-05,-0.09314299999999998,0.005536000000000096,0.030650000000000066,0.001885000000000081,0.021024999999999988,-0.0032280000000000086,-0.1398530940827527,0.007416775026072742,0.06342795478790819,0.014650840448082292,0.03564153473394016,0.007598372325841374,0.09170175312645112,-0.001075842427923357,0.03564153473394016,0.09170175312645112,5,Swing,0.8312526875385394
1777250996370,0.187487,0.942854,-0.0125177,-1.0219,0.57633,-0.120198,91.09578788333971,0,3.39131,999,log_newX9.csv,0,False,1.698,-11.32209444249812,0.9613957214894864,1.1793572139534316,0.008951999999999988,0.003602999999999995,0.039549999999999974,0.004249999999999976,0.0007583,-0.0005385000000000008,-0.08791700000000002,0.005225999999999953,0.030642999999999976,-7.000000000090267e-06,0.017653000000000002,-0.003371999999999986,-0.12405833587217785,0.015794758210574855,0.02830565041862876,-0.03512230436927943,0.04052161781569974,0.004880083081759579,0.0888979325224375,-0.0028038206040136293,0.04052161781569974,0.0888979325224375,5,Swing,0.6629030177848434
1777250996383,0.19895,0.988225,-0.0138286,-1.10489,0.60456,-0.102597,91.01634059980437,0,3.38123,999,log_newX9.csv,0,False,1.711,-11.338164998663279,1.0081473023834167,1.2636458562860877,0.011463000000000001,0.0025110000000000132,0.04537100000000005,0.005821000000000076,-0.0013109000000000003,-0.0020692,-0.0829899999999999,0.004927000000000126,0.028229999999999977,-0.0024129999999999985,0.017601000000000006,-5.1999999999996493e-05,-0.07944728353534458,0.04461105233683327,-0.01607055616515929,-0.04437620658378805,0.04675158089393028,0.006229963078230538,0.0842886423326561,-0.004609290189781401,0.04675158089393028,0.0842886423326561,5,Swing,0.6629030177848434
1777250996397,0.213304,1.03571,-0.0183801,-1.18322,0.627024,-0.0837349,91.01643385138449,0,3.6419,999,log_newX9.csv,0,False,1.725,-11.41850403949466,1.0576065566135686,1.3417079408179746,0.014354000000000006,0.0028910000000000047,0.04748499999999989,0.0021139999999998382,-0.0045515,-0.0032405999999999997,-0.07833000000000001,0.0046599999999998865,0.02246400000000004,-0.005765999999999938,0.018862099999999993,0.0012610999999999872,9.325158012529755e-05,0.07954053511546988,-0.08033904083138133,-0.06426848466622204,0.04945925423015196,0.002707673336221683,0.0780620845318869,-0.006226557800769195,0.04945925423015196,0.0780620845318869,5,Swing,0.6629030177848434
1777250996412,0.228919,1.08573,-0.0256753,-1.25716,0.641497,-0.0647966,91.10781202490088,0,4.44701,999,log_newX9.csv,0,False,1.74,-11.54934513444306,1.1098976360417614,1.4128581903292914,0.015615000000000018,0.0012610000000000121,0.050020000000000175,0.002535000000000287,-0.007295200000000002,-0.0027437000000000017,-0.07394000000000012,0.004389999999999894,0.014472999999999958,-0.007991000000000081,0.018938300000000005,7.620000000001237e-05,0.09137817351638944,0.09128492193626414,-0.13084109494839957,-0.05050205411701825,0.05229107942819278,0.002831825198040816,0.07115024951131677,-0.006911835020570134,0.05229107942819278,0.07115024951131677,5,Swing,0.6629030177848434
1777250996425,0.245138,1.13905,-0.037149,-1.32695,0.646881,-0.0487531,91.31317709910502,0,3.50584,999,log_newX9.csv,0,False,1.753,-11.708715369627459,1.1657219178453324,1.4770335796523417,0.016218999999999983,0.0006039999999999657,0.05331999999999981,0.0032999999999996366,-0.0114737,-0.004178499999999998,-0.06979000000000002,0.004150000000000098,0.005384000000000055,-0.009088999999999903,0.016043499999999995,-0.00289480000000001,0.2053650742041384,0.11398690068774897,-0.15937023518439908,-0.028529140235999506,0.05582428180357102,0.0035332023753782416,0.06417538932305034,-0.00697486018826643,0.05582428180357102,0.06417538932305034,5,Swing,0.6629030177848434
1777250996439,0.260598,1.18961,-0.0548263,-1.39283,0.642902,-0.0362986,91.67129133135718,0,3.50546,999,log_newX9.csv,0,False,1.767,-11.880187545806095,1.2190525800291347,1.5344757993744833,0.015460000000000002,-0.0007589999999999819,0.05056000000000016,-0.0027599999999996516,-0.0176773,-0.0062036,-0.06587999999999994,0.00391000000000008,-0.003979000000000066,-0.009363000000000121,0.0124545,-0.003588999999999995,0.3581142322521629,0.15274915804802447,-0.17147217617863575,-0.01210194099423667,0.053330662183802335,-0.0024936196197686833,0.057442219722141585,-0.0067331696009087505,0.053330662183802335,0.057442219722141585,1,Heel-strike,0.5055139331722308
1777250996453,0.279039,1.22842,-0.0783318,-1.44799,0.628087,-0.0279725,92.20547356630429,0,3.42071,999,log_newX9.csv,0,False,1.781,-12.12128973241474,1.262146715248366,1.578591391217262,0.018440999999999985,0.0029809999999999837,0.03881000000000001,-0.01175000000000015,-0.02350549999999999,-0.005828199999999992,-0.0551600000000001,0.01071999999999984,-0.014815000000000023,-0.010835999999999957,0.0083261,-0.004128400000000001,0.5341822349471101,0.17606800269494727,-0.2411021866086447,-0.06963001043000894,0.04309413521923133,-0.010236526964571002,0.04411559184277869,-0.013326627879362896,0.04309413521923133,0.04411559184277869,1,Heel-strike,0.5055139331722308
1777250996466,0.300417,1.26151,-0.106969,-1.48903,0.599502,-0.0158957,92.9190356504002,0,3.52408,999,log_newX9.csv,0,False,1.794,-12.452906065254053,1.3011918463278194,1.605261867167625,0.021378000000000008,0.002937000000000023,0.03308999999999984,-0.005720000000000169,-0.0286372,-0.00513170000000001,-0.041039999999999965,0.014120000000000132,-0.02858499999999997,-0.013769999999999949,0.012076800000000002,0.0037507000000000026,0.713562084095912,0.1793798491488019,-0.3316163328393138,-0.09051414623066911,0.03904513107945329,-0.004049004139778045,0.026670475950363093,-0.017445115892415597,0.03904513107945329,0.026670475950363093,1,Heel-strike,0.5055139331722308
1777250996480,0.318774,1.29102,-0.140272,-1.51355,0.553812,0.00697044,93.80567335062716,0,3.43179,999,log_newX9.csv,0,False,1.808,-12.814615121327634,1.337170795919504,1.6117040425828166,0.018357000000000012,-0.003020999999999996,0.029510000000000147,-0.0035799999999996945,-0.03330300000000001,-0.004665800000000012,-0.024519999999999875,0.01652000000000009,-0.04569000000000001,-0.017105000000000037,0.02286614,0.010789339999999998,0.8866377002269559,0.17307561613104383,-0.3617090560735807,-0.030092723234266927,0.035978949591684684,-0.0030661814877686044,0.006442175415191542,-0.02022830053517155,0.035978949591684684,0.006442175415191542,1,Heel-strike,0.5055139331722308
1777250996493,0.316163,1.31084,-0.179157,-1.52127,0.495155,0.0393914,94.88006240436546,0,3.62273,999,log_newX9.csv,0,False,1.821,-12.98353831067915,1.3602785666244983,1.6003101478522717,-0.0026109999999999745,-0.020967999999999987,0.01981999999999995,-0.009690000000000198,-0.038885,-0.00558199999999999,-0.007719999999999949,0.016799999999999926,-0.05865699999999996,-0.01296699999999995,0.03242096,0.009554819999999999,1.074389053738301,0.1877513535113451,-0.1689231893515153,0.19278586672206544,0.023107770704994257,-0.012871178886690426,-0.011393894730544973,-0.017836070145736516,0.023107770704994257,-0.011393894730544973,1,Heel-strike,0.5055139331722308
1777250996507,0.286199,1.32775,-0.223502,-1.51106,0.435451,0.062569,96.1430530383248,0,3.37955,999,log_newX9.csv,0,False,1.835,-12.717900944262635,1.3765111965054988,1.5737962945572086,-0.029964000000000046,-0.02735300000000007,0.01690999999999998,-0.002909999999999968,-0.044344999999999996,-0.005459999999999993,0.01020999999999983,0.01792999999999978,-0.059704000000000035,-0.0010470000000000756,0.0231776,-0.009243359999999999,1.2629906339593333,0.18860158022103235,0.2656373664165148,0.4345605557680301,0.016232629881000493,-0.006875140823993764,-0.02651385329506306,-0.015119958564518088,0.016232629881000493,-0.02651385329506306,1,Heel-strike,0.6738433695143999
1777250996521,0.236293,1.3412,-0.271617,-1.47872,0.386169,0.065191,97.57637441457237,0,3.43801,999,log_newX9.csv,0,False,1.849,-11.92878331633366,1.3886783704436387,1.5297023244546635,-0.04990599999999998,-0.019941999999999932,0.013449999999999962,-0.0034600000000000186,-0.04811499999999999,-0.0037699999999999956,0.032340000000000035,0.022130000000000205,-0.04928199999999999,0.010422000000000042,0.0026219999999999993,-0.0205556,1.4333213762475765,0.1703307422882432,0.7891176279289738,0.523480261512459,0.01216717393813993,-0.004065455942860563,-0.04409397010254512,-0.01758011680748206,0.01216717393813993,-0.04409397010254512,1,Heel-strike,0.6738433695143999
1777250996534,0.190186,1.3494,-0.320362,-1.42276,0.350386,0.047828,99.13760734409902,0,3.43499,999,log_newX9.csv,0,False,1.862,-10.81559416478354,1.399886740290085,1.4660504371200878,-0.04610700000000001,0.003798999999999969,0.008199999999999985,-0.005249999999999977,-0.04874499999999998,-0.0006299999999999917,0.05596000000000001,0.023619999999999974,-0.03578300000000001,0.013498999999999983,-0.017362999999999996,-0.019984999999999996,1.5612329295266534,0.12791155327907688,1.1131891515501202,0.32407152362114644,0.011208369846446242,-0.000958804091693688,-0.06365188733457572,-0.019557917232030597,0.011208369846446242,-0.06365188733457572,1,Heel-strike,0.6738433695143999
1777250996547,0.160702,1.3499,-0.363839,-1.34805,0.323295,0.0224042,100.74419485128979,0,3.34157,999,log_newX9.csv,0,False,1.875,-9.665136928728055,1.4072789207278706,1.3864560605019691,-0.029483999999999982,0.016623000000000027,0.000500000000000167,-0.007699999999999818,-0.04347700000000004,0.005267999999999939,0.07471000000000005,0.018750000000000044,-0.027090999999999976,0.008692000000000033,-0.025423800000000003,-0.008060800000000007,1.606587507190767,0.04535457766411355,1.1504572360554857,0.03726808450536545,0.007392180437785667,-0.003816189408660575,-0.07959437661811863,-0.015942489283542916,0.007392180437785667,-0.07959437661811863,1,Heel-strike,0.6738433695143999
1777250996561,0.144662,1.34894,-0.39803,-1.25787,0.298545,-0.00244126,102.28286590544673,0,3.37407,999,log_newX9.csv,0,False,1.889,-8.640565378965134,1.4138578778448703,1.2928155373739083,-0.01604,0.013443999999999984,-0.0009600000000000719,-0.0014600000000002389,-0.03419099999999997,0.009286000000000072,0.09017999999999993,0.015469999999999873,-0.024749999999999994,0.002340999999999982,-0.02484546,0.0005783400000000036,1.5386710541569357,-0.0679164530338312,1.0245715497629213,-0.12588568629256436,0.006578957116999629,-0.0008132233207860384,-0.09364052312806082,-0.014046146509942181,0.006578957116999629,-0.09364052312806082,1,Heel-strike,0.6738433695143999
1777250996575,0.129673,1.34421,-0.421964,-1.15779,0.276125,-0.0230328,103.67277818931545,0,3.54547,999,log_newX9.csv,0,False,1.903,-7.726922619635403,1.4148389407720583,1.1904844432418427,-0.014989000000000002,0.0010509999999999964,-0.004730000000000123,-0.003770000000000051,-0.02393400000000001,0.01025699999999996,0.10007999999999995,0.00990000000000002,-0.022419999999999995,0.0023299999999999987,-0.02059154,0.004253920000000001,1.3899122838687248,-0.14875877028821094,0.9136427593297309,-0.11092879043319037,0.0009810629271880256,-0.005597894189811603,-0.10233109413206565,-0.008690571004004832,0.0009810629271880256,-0.10233109413206565,1,Heel-strike,0.8415636778765196
1777250996588,0.11002,1.34356,-0.436845,-1.05058,0.259515,-0.042448,104.84488722707657,0,3.4539,999,log_newX9.csv,0,False,1.916,-6.842416387181844,1.4170714265784206,1.0829903990013023,-0.019653000000000004,-0.0046640000000000015,-0.0006499999999998174,0.004080000000000306,-0.014880999999999978,0.009053000000000033,0.10721000000000003,0.007130000000000081,-0.016610000000000014,0.005809999999999982,-0.0194152,0.001176339999999998,1.1721090377611176,-0.21780324610760715,0.8845062324535586,-0.029136526876172297,0.002232485806362261,0.0012514228791742354,-0.10749404424054032,-0.005162950108474673,0.002232485806362261,-0.10749404424054032,1,Heel-strike,0.8415636778765196
1777250996602,0.0878122,1.33836,-0.440524,-0.938811,0.251235,-0.0636258,105.75644327222584,0,3.38675,999,log_newX9.csv,0,False,1.93,-5.957327930860897,1.4117293886028015,0.9739267741322445,-0.0222078,-0.002554799999999996,-0.0052000000000000934,-0.004550000000000276,-0.0036790000000000433,0.011201999999999934,0.11176900000000012,0.004559000000000091,-0.00828000000000001,0.008330000000000004,-0.021177799999999997,-0.0017625999999999961,0.9115560451492684,-0.2605529926118493,0.8850884563209469,0.0005822238673882651,-0.005342037975619052,-0.007574523781981313,-0.10906362486905785,-0.0015695806285175307,-0.005342037975619052,-0.10906362486905785,1,Heel-strike,0.8415636778765196
1777250996616,0.0767789,1.267,-0.34222,-0.745847,0.222559,-0.0871268,105.58316806917459,0,4.15986,999,log_newX9.csv,0,False,1.944,-5.252436947936416,1.314647682036982,0.7832058063933388,-0.01103330000000001,0.01117449999999999,-0.07136000000000009,-0.06616,0.098304,0.10198300000000005,0.1929639999999999,0.0811949999999998,-0.02867599999999998,-0.02039599999999997,-0.023501000000000008,-0.0023232000000000114,-0.17327520305124722,-1.0848312482005156,0.7048909829244812,-0.18019747339646575,-0.0970817065658196,-0.09173966859020055,-0.19072096773890568,-0.08165734286984783,-0.0970817065658196,-0.19072096773890568,1,Heel-strike,0.8415636778765196
1777250996630,0.078306,1.31298,-0.275751,-0.576522,0.196099,-0.125773,104.57755595095897,0,3.37088,999,log_newX9.csv,0,False,1.958,-4.735879820899083,1.3439073346168626,0.6218128993628228,0.0015271000000000035,0.012560400000000013,0.04598000000000013,0.11734000000000022,0.066469,-0.031835,0.16932500000000006,-0.023638999999999855,-0.02646000000000001,0.002215999999999968,-0.03864619999999999,-0.015145199999999984,-1.0056121182156232,-0.832336915164376,0.5165571270373333,-0.1883338558871479,0.029259652579880724,0.12634135914570033,-0.161392907030516,0.02932806070838967,0.029259652579880724,-0.161392907030516,1,Heel-strike,0.8415636778765196
1777250996643,0.0480311,1.30335,-0.24611,-0.418284,0.185609,-0.141952,103.52816921614681,0,3.44569,999,log_newX9.csv,0,False,1.971,-4.0167278171128915,1.3272521769306729,0.4791268890815876,-0.0302749,-0.031802000000000004,-0.009630000000000027,-0.05561000000000016,0.02964100000000003,-0.03682799999999997,0.158238,-0.011087000000000069,-0.01049,0.015970000000000012,-0.016179,0.022467199999999993,-1.0493867348121597,-0.043774616596536475,0.7191520037861912,0.2025948767488579,-0.016655157686189748,-0.04591481026607047,-0.14268601028123518,0.018706896749280832,-0.016655157686189748,-0.14268601028123518,1,Heel-strike,1.0
1777250996657,0.0431047,1.28063,-0.221253,-0.273979,0.178353,-0.1432,102.52156550266693,0,3.46345,999,log_newX9.csv,0,False,1.985,-3.444790849049596,1.3003169237040213,0.3569040838236514,-0.0049263999999999974,0.025348500000000003,-0.022720000000000073,-0.013090000000000046,0.02485699999999999,-0.004784000000000038,0.14430500000000002,-0.013932999999999973,-0.007255999999999985,0.0032340000000000146,-0.0012479999999999991,0.014931,-1.0066037134798762,0.04278302133228351,0.5719369680632953,-0.14721503572289585,-0.02693525322665158,-0.010280095540461831,-0.12222280525793622,0.020463205023298958,-0.02693525322665158,-0.12222280525793622,1,Heel-strike,1.0
1777250996670,0.0556412,1.26119,-0.201366,-0.145672,0.165857,-0.153618,101.58950258917777,0,3.44025,999,log_newX9.csv,0,False,1.998,-3.1880860999377116,1.2783756979829677,0.2689374759251674,0.012536499999999999,0.017462899999999996,-0.019439999999999902,0.0032800000000001717,0.019887000000000016,-0.0049699999999999744,0.12830699999999998,-0.01599800000000004,-0.012496000000000007,-0.005240000000000022,-0.01041800000000001,-0.009170000000000011,-0.9320629134891618,0.07454079999071439,0.25670474911188457,-0.31523221895141074,-0.021941225721053614,0.004994027505597964,-0.08796660789848398,0.034256197359452234,-0.021941225721053614,-0.08796660789848398,1,Heel-strike,1.0
1777250996684,0.0501784,1.24196,-0.187263,-0.0341197,0.151809,-0.15747,100.77497554235094,0,3.41883,999,log_newX9.csv,0,False,2.012,-2.9448701959172783,1.2570003757340567,0.22137508285507201,-0.005462800000000004,-0.017999300000000003,-0.01923000000000008,0.00020999999999982144,0.014102999999999977,-0.005784000000000039,0.1115523,-0.016754699999999983,-0.014048000000000005,-0.0015519999999999978,-0.0038519999999999943,0.006566000000000016,-0.8145270468268251,0.11753586666233673,0.24321590402043336,-0.013488845091451207,-0.021375322248911033,0.0005659034721425815,-0.04756239307009541,0.040404214828388574,-0.021375322248911033,-0.04756239307009541,1,Heel-strike,1.0
1777250996697,0.0445427,1.2216,-0.178745,0.0609589,0.138541,-0.155038,100.1129559118895,0,3.45684,999,log_newX9.csv,0,False,2.025,-2.707504171918352,1.2354110195187227,0.21667112778173744,-0.0056357,-0.00017289999999999667,-0.020359999999999934,-0.0011299999999998533,0.008518000000000026,-0.005584999999999951,0.09507860000000001,-0.01647369999999998,-0.013268000000000002,0.0007800000000000029,0.0024319999999999897,0.006283999999999984,-0.6620196304614439,0.15250741636538123,0.23736602399892615,-0.005849880021507214,-0.021589356215333977,-0.00021403396642294403,-0.00470395507333457,0.04285843799676084,-0.021589356215333977,-0.00470395507333457,1,Heel-strike,1.0
1777250996711,0.0310339,1.20735,-0.171047,0.138475,0.126274,-0.144603,99.55928635878729,0,3.81049,999,log_newX9.csv,0,False,2.039,-2.3699060222089656,1.2198008860704317,0.2367075755230491,-0.013508799999999998,-0.007873099999999997,-0.014250000000000096,0.006109999999999838,0.007697999999999983,-0.0008200000000000429,0.07751609999999998,-0.017562500000000036,-0.012267,0.0010010000000000019,0.010435,0.00800300000000001,-0.5536695531022104,0.10835007735923341,0.3375981497093865,0.10023212571046036,-0.015610133448290986,0.005979222767042991,0.020036447741311664,0.024740402814646234,-0.015610133448290986,0.020036447741311664,1,Heel-strike,0.8405305110150283
1777250996725,0.0253902,1.19273,-0.166971,0.202725,0.11613,-0.125291,99.12968296654972,0,3.47519,999,log_newX9.csv,0,False,2.053,-2.0559355048926204,1.2046280878333528,0.2651064639083702,-0.005643699999999998,0.0078651,-0.014619999999999855,-0.0003699999999997594,0.004075999999999996,-0.0036219999999999863,0.06425,-0.013266099999999975,-0.010144,0.002123,0.019311999999999996,0.008876999999999996,-0.42960339223756705,0.1240661608646434,0.3139705173163452,-0.02362763239304133,-0.015172798237078844,0.00043733521121214203,0.02839888838532112,0.008362440644009456,-0.015172798237078844,0.02839888838532112,1,Heel-strike,0.8405305110150283
1777250996739,0.0217612,1.179,-0.164042,0.252413,0.104717,-0.0984937,98.80317244372681,0,3.76625,999,log_newX9.csv,0,False,2.067,-1.7834519692816113,1.1905563101296133,0.2904806045120569,-0.0036290000000000003,0.0020146999999999977,-0.01373000000000002,0.0008899999999998354,0.002929000000000015,-0.0011469999999999814,0.04968800000000001,-0.014561999999999992,-0.011412999999999993,-0.0012689999999999924,0.02679730000000001,0.007485300000000014,-0.3265105228229146,0.10309286941465245,0.27248353561100913,-0.041486981705336046,-0.014071777703739574,0.0011010205333392697,0.025374140603686646,-0.0030247477816344737,-0.014071777703739574,0.025374140603686646,1,Heel-strike,0.8405305110150283
1777250996753,0.017117,1.16569,-0.157867,0.291375,0.0922149,-0.0686565,98.50852777997763,0,3.43086,999,log_newX9.csv,0,False,2.081,-1.5268603092879567,1.1764557609523614,0.3132358430947199,-0.004644200000000001,-0.0010152000000000008,-0.013310000000000155,0.0004199999999998649,0.006174999999999986,0.003245999999999971,0.038962,-0.010726000000000013,-0.012502100000000002,-0.0010891000000000095,0.029837200000000008,0.003039899999999998,-0.29464466374918175,0.03186585907373285,0.25659165999365463,-0.0158918756173545,-0.014100549177251898,-2.8771473512323453e-05,0.02275523858266304,-0.002618902021023606,-0.014100549177251898,0.02275523858266304,1,Heel-strike,0.8405305110150283
1777250996766,0.0143081,1.15352,-0.153969,0.319237,0.0833429,-0.0378339,98.26382918865922,0,3.32192,999,log_newX9.csv,0,False,2.094,-1.3046691037448488,1.1638382899211601,0.33209893877972574,-0.0028088999999999996,0.0018353000000000015,-0.012169999999999792,0.001140000000000363,0.0038980000000000126,-0.0022769999999999735,0.027861999999999998,-0.011099999999999999,-0.008872000000000005,0.0036300999999999972,0.0308226,0.0009853999999999905,-0.24469859131841076,0.04994607243077098,0.2221912055431079,-0.034400454450546736,-0.012617471031201255,0.0014830781460506426,0.018863095685005826,-0.0038921428976572137,-0.012617471031201255,0.018863095685005826,1,Heel-strike,0.8405305110150283
1777250996780,0.0231053,1.1402,-0.158411,0.334973,0.0782355,-0.0177193,98.16813796842197,0,3.47377,999,log_newX9.csv,0,False,2.108,-1.262845341878668,1.151383489463476,0.34444401255028373,0.008797199999999998,0.011606099999999998,-0.013319999999999999,-0.0011500000000002064,-0.0044420000000000015,-0.008340000000000014,0.015736000000000028,-0.01212599999999997,-0.005107399999999998,0.003764600000000007,0.020114599999999996,-0.010708000000000002,-0.09569122023724219,0.14900737108116857,0.04182376186618075,-0.18036744367692714,-0.012454800457684101,0.00016267057351715408,0.01234507377055799,-0.006518021914447836,-0.012454800457684101,0.01234507377055799,1,Heel-strike,0.6673135376314889
1777250996793,0.0271227,1.12771,-0.162836,0.342504,0.079011,-0.00317761,98.18118971681791,0,3.37723,999,log_newX9.csv,0,False,2.121,-1.2900717544171385,1.1397284974287913,0.3515136204221852,0.004017400000000001,-0.004779799999999997,-0.012490000000000112,0.0008299999999998864,-0.004425000000000012,1.6999999999989246e-05,0.007530999999999954,-0.008205000000000073,0.0007754999999999984,0.0058828999999999965,0.01454169,-0.005572909999999997,0.013051748395938034,0.10874296863318023,-0.027226412538470468,-0.06905017440465122,-0.011654992034684675,0.0007998084229994262,0.007069607871901473,-0.005275465898656517,-0.011654992034684675,0.007069607871901473,1,Heel-strike,0.6673135376314889
1777250996807,0.0384741,1.11819,-0.161932,0.346705,0.0809633,0.00118829,98.19709699922407,0,3.47436,999,log_newX9.csv,0,False,2.135,-1.468435837960647,1.1305092237990852,0.35603486487282965,0.011351399999999998,0.007333999999999997,-0.009519999999999973,0.002970000000000139,0.0009040000000000159,0.005329000000000028,0.00420100000000001,-0.003329999999999944,0.001952300000000004,0.0011768000000000056,0.0043659,-0.01017579,0.015907282406161016,0.002855534010222982,-0.17836408354350852,-0.15113767100503805,-0.009219273629706093,0.002435718404978582,0.004521244450644446,-0.002548363421257027,-0.009219273629706093,0.004521244450644446,1,Heel-strike,0.6673135376314889
1777250996820,0.0506815,1.10949,-0.163325,0.347121,0.085645,-0.00381963,98.24494559812537,0,3.44331,999,log_newX9.csv,0,False,2.148,-1.7707863312772467,1.1225915241828839,0.35755089741089574,0.0122074,0.0008560000000000026,-0.00869999999999993,0.0008200000000000429,-0.0013930000000000053,-0.0022970000000000212,0.00041600000000002746,-0.003784999999999983,0.004681699999999997,0.002729399999999993,-0.00500792,-0.00937382,0.04784859890129667,0.03194131649513565,-0.3023504933165997,-0.12398640977309117,-0.007917699616201368,0.001301574013504725,0.0015160325380660922,-0.003005211912578354,-0.007917699616201368,0.0015160325380660922,1,Heel-strike,0.6673135376314889
1777250996835,0.0572741,1.09901,-0.162956,0.345322,0.0921237,-0.0162626,98.29604569524498,0,4.06631,999,log_newX9.csv,0,False,2.163,-2.0896346406022057,1.1125007687938062,0.3577688247240808,0.006592600000000004,-0.005614799999999996,-0.010480000000000045,-0.0017800000000001148,0.0003690000000000082,0.0017620000000000136,-0.001798999999999995,-0.0022150000000000225,0.006478700000000004,0.001797000000000007,-0.012442969999999998,-0.007435049999999998,0.051100097119615384,0.0032514982183187158,-0.318848309324959,-0.01649781600835931,-0.010090755389077666,-0.002173055772876298,0.0002179273131850401,-0.001298105224881052,-0.010090755389077666,0.0002179273131850401,1,Heel-strike,0.6673135376314889
1777250996848,0.0598268,1.08751,-0.167688,0.339303,0.0985344,-0.0291979,98.42291367623486,0,3.46808,999,log_newX9.csv,0,False,2.176,-2.3658634045622353,1.1019875278070255,0.35452513473203845,0.002552699999999998,-0.004039900000000006,-0.011500000000000066,-0.0010200000000000209,-0.004732000000000014,-0.005101000000000022,-0.006018999999999997,-0.0042200000000000015,0.006410699999999991,-6.80000000000125e-05,-0.0129353,-0.0004923300000000026,0.1268679809898714,0.07576788387025601,-0.2762287639600296,0.0426195453649294,-0.010513240986780747,-0.0004224855977030817,-0.003243689992042331,-0.0034616173052273713,-0.010513240986780747,-0.003243689992042331,2,Foot-flat,0.5067690968917942
1777250996862,0.0604013,1.08219,-0.170881,0.330187,0.102085,-0.0401873,98.57154617003145,0,3.40038,999,log_newX9.csv,0,False,2.19,-2.579208234668632,1.097261969313933,0.3479365190308284,0.0005744999999999986,-0.0019781999999999994,-0.005319999999999991,0.006180000000000074,-0.0031930000000000014,0.0015390000000000126,-0.009116000000000013,-0.0030970000000000164,0.003550600000000001,-0.0028600999999999904,-0.010989400000000003,0.001945899999999997,0.1486324937965975,0.02176451280672609,-0.2133448301063967,0.06288393385363289,-0.00472555849309253,0.005787682493688218,-0.006588615701210054,-0.003344925709167723,-0.00472555849309253,-0.006588615701210054,2,Foot-flat,0.5067690968917942
1777250996875,0.0588483,1.07661,-0.172155,0.317789,0.102782,-0.0461714,98.71024618641577,0,3.46101,999,log_newX9.csv,0,False,2.203,-2.717078604444375,1.0918743327589902,0.33717322880525374,-0.0015529999999999988,-0.0021274999999999974,-0.005579999999999918,-0.00025999999999992696,-0.0012739999999999974,0.001919000000000004,-0.01239800000000002,-0.003282000000000007,0.0006970000000000032,-0.002853599999999998,-0.005984099999999999,0.005005300000000004,0.13870001638431972,-0.009932477412277763,-0.13787036977574285,0.07547446033065386,-0.005387636554942787,-0.0006620780618502575,-0.010763290225574651,-0.004174674524364597,-0.005387636554942787,-0.010763290225574651,2,Foot-flat,0.5067690968917942
1777250996889,0.0573002,1.07242,-0.171304,0.304524,0.100527,-0.0471055,98.80892813901893,0,3.4392,999,log_newX9.csv,0,False,2.217,-2.7989772261538515,1.0875261053124379,0.32412878988952837,-0.0015480999999999967,4.900000000002125e-06,-0.004190000000000138,0.0013899999999997803,0.0008509999999999907,0.002124999999999988,-0.013264999999999971,-0.0008669999999999511,-0.002254999999999993,-0.0029519999999999963,-0.0009341000000000002,0.005049999999999999,0.09868195260315815,-0.04001806378116157,-0.0818986217094766,0.05597174806626626,-0.0043482274465522774,0.00103940910839051,-0.013044438915725376,-0.002281148690150725,-0.0043482274465522774,-0.013044438915725376,2,Foot-flat,0.5067690968917942
1777250996903,0.0549626,1.06839,-0.171254,0.290752,0.0966527,-0.0442321,98.88933782838464,0,3.42105,999,log_newX9.csv,0,False,2.231,-2.8284010877116037,1.083423283862203,0.30957220255006745,-0.002337600000000002,-0.0007895000000000055,-0.004029999999999978,0.00016000000000016001,5.000000000002225e-05,-0.0008009999999999684,-0.013772000000000006,-0.0005070000000000352,-0.003874300000000011,-0.001619300000000018,0.002873399999999998,0.0038074999999999984,0.08040968936570891,-0.018272263237449238,-0.02942386155775223,0.052474760151724364,-0.004102821450234773,0.0002454059963175048,-0.014556587339460914,-0.0015121484237355376,-0.004102821450234773,-0.014556587339460914,2,Foot-flat,0.5067690968917942
1777250996916,0.0546459,1.06449,-0.170549,0.276216,0.0923574,-0.040248,98.9468921314132,0,3.48925,999,log_newX9.csv,0,False,2.244,-2.848222897245483,1.0794499042974668,0.2940154239062298,-0.0003167000000000031,0.002020899999999999,-0.0039000000000000146,0.00012999999999996348,0.0007049999999999834,0.0006549999999999612,-0.014535999999999993,-0.0007639999999999869,-0.004295299999999988,-0.00042099999999997695,0.003984100000000004,0.0011107000000000061,0.05755430302855302,-0.022855386337155892,-0.019821809533879353,0.009602052023872876,-0.003973379564736312,0.00012944188549846025,-0.015556778643837643,-0.0010001913043767297,-0.003973379564736312,-0.015556778643837643,2,Foot-flat,0.6871767209394484
1777250996930,0.0560724,1.06071,-0.169323,0.261836,0.0880674,-0.0365432,98.98007040321238,0,3.47618,999,log_newX9.csv,0,False,2.258,-2.886052226010428,1.0756022017785014,0.2786563534265817,0.0014265000000000042,0.0017432000000000072,-0.0037799999999998946,0.00012000000000012001,0.0012260000000000049,0.0005210000000000214,-0.014380000000000004,0.00015599999999998948,-0.004290000000000002,5.2999999999858716e-06,0.003704800000000001,-0.00027930000000000316,0.03317827179918709,-0.024376031229365935,-0.037829328764944936,-0.018007519231065583,-0.003847702518965379,0.0001256770457709333,-0.01535907047964813,0.00019770816418951398,-0.003847702518965379,-0.01535907047964813,2,Foot-flat,0.6871767209394484
1777250996944,0.0577887,1.05631,-0.168275,0.248151,0.0843436,-0.0344291,98.99934635514472,0,3.36725,999,log_newX9.csv,0,False,2.272,-2.941826243592663,1.071189444296708,0.2643447078887149,0.001716299999999997,0.00028979999999999284,-0.0043999999999999595,-0.0006200000000000649,0.0010479999999999934,-0.00017800000000001148,-0.013685000000000003,0.0006950000000000012,-0.0037237999999999993,0.0005662000000000028,0.0021141000000000007,-0.0015907000000000004,0.019275951932343105,-0.013902319866843982,-0.055774017582235214,-0.017944688817290277,-0.004412757481793372,-0.0005650549628279933,-0.01431164553786679,0.0010474249417813386,-0.004412757481793372,-0.01431164553786679,2,Foot-flat,0.6871767209394484
1777250996958,0.0595457,1.0534,-0.167641,0.235199,0.0813681,-0.0338339,99.01097247613342,0,3.84135,999,log_newX9.csv,0,False,2.286,-3.010276867722041,1.0683167860094167,0.251165423750603,0.0017570000000000016,4.070000000000462e-05,-0.00291000000000019,0.0014899999999997693,0.0006339999999999957,-0.0004139999999999977,-0.012952000000000019,0.0007329999999999837,-0.002975500000000006,0.0007482999999999934,0.0005951999999999971,-0.0015189000000000036,0.01162612098869431,-0.007649830943648794,-0.06845062412937786,-0.012676606547142644,-0.0028726582872913298,0.0015400991945020426,-0.013179284138111869,0.001132361399754922,-0.0028726582872913298,-0.013179284138111869,2,Foot-flat,0.6871767209394484
1777250996971,0.0623544,1.04972,-0.166728,0.222875,0.0789321,-0.0354429,99.01474967463986,0,3.42995,999,log_newX9.csv,0,False,2.299,-3.104066069424633,1.0647057694890922,0.23908103478908566,0.0028086999999999973,0.0010516999999999957,-0.0036799999999999056,-0.0007699999999997154,0.0009130000000000249,0.0002790000000000292,-0.012324000000000002,0.0006280000000000174,-0.0024359999999999937,0.0005395000000000122,-0.0016089999999999993,-0.0022041999999999964,0.003777198506440982,-0.007848922482253329,-0.09378920170259208,-0.025338577573214227,-0.0036110165203244726,-0.0007383582330331429,-0.012084388961517367,0.0010948951765945014,-0.0036110165203244726,-0.012084388961517367,2,Foot-flat,0.6871767209394484
1777250996985,0.0647591,1.0462,-0.166017,0.210819,0.0765128,-0.0389013,99.01531407101744,0,3.46344,999,log_newX9.csv,0,False,2.313,-3.210595168418862,1.0612680270892034,0.22762286894451095,0.0024047000000000027,-0.00040399999999999464,-0.0035199999999999676,0.00015999999999993797,0.0007109999999999894,-0.00020200000000003548,-0.012055999999999983,0.0002680000000000182,-0.0024192999999999992,1.6699999999994497e-05,-0.0034584000000000004,-0.001849400000000001,0.0005643963775838756,-0.0032128021288571063,-0.10652909899422891,-0.012739897291636826,-0.00343774239988881,0.00017327412043566248,-0.011458165844574708,0.0006262231169426591,-0.00343774239988881,-0.011458165844574708,2,Foot-flat,0.8655564225113812
1777250996998,0.0664948,1.04301,-0.165483,0.198852,0.0734499,-0.0446793,99.01532366560308,0,3.4561,999,log_newX9.csv,0,False,2.326,-3.316574644543908,1.058147457501099,0.21664082155147954,0.0017357000000000067,-0.000668999999999996,-0.003190000000000026,0.00032999999999994145,0.0005340000000000067,-0.00017699999999998273,-0.011967000000000005,8.899999999997799e-05,-0.0030629000000000073,-0.0006436000000000081,-0.005777999999999998,-0.002319599999999998,9.594585634431496e-06,-0.0005548017919494441,-0.1059794761250461,0.0005496228691828087,-0.0031205695881044715,0.00031717281178433865,-0.010982047393031408,0.00047611845154330035,-0.0031205695881044715,-0.010982047393031408,2,Foot-flat,0.8655564225113812
1777250997012,0.0669007,1.04232,-0.163062,0.187951,0.0704475,-0.0526936,98.98183516316045,0,3.34451,999,log_newX9.csv,0,False,2.34,-3.4008286002432384,1.057116787258858,0.20752118961255497,0.0004058999999999868,-0.0013298000000000199,-0.0006900000000000794,0.0024999999999999467,0.0024209999999999787,0.001886999999999972,-0.010900999999999994,0.0010660000000000114,-0.0030024000000000023,6.0500000000004994e-05,-0.008014300000000002,-0.0022363000000000036,-0.0334885024426228,-0.033498097028257234,-0.08425395569933025,0.02172552042571585,-0.0010306702422409053,0.002089899345863566,-0.009119631938924566,0.0018624154541068416,-0.0010306702422409053,-0.009119631938924566,2,Foot-flat,0.8655564225113812
1777250997025,0.0683109,1.04063,-0.161981,0.177139,0.0667999,-0.0620183,98.94553585051455,0,3.4686,999,log_newX9.csv,0,False,2.353,-3.484666884102477,1.0553743507968203,0.1992152642141159,0.0014102000000000003,0.0010043000000000135,-0.0016899999999999693,-0.0009999999999998899,0.0010809999999999986,-0.00133999999999998,-0.010812000000000016,8.899999999997799e-05,-0.003647600000000001,-0.0006451999999999986,-0.009324699999999998,-0.0013103999999999963,-0.0362993126459088,-0.002810810203285996,-0.08383828385923842,0.0004156718400918358,-0.0017424364620377553,-0.00071176621979685,-0.008305925398439079,0.0008137065404854871,-0.0017424364620377553,-0.008305925398439079,2,Foot-flat,0.8655564225113812
1777250997039,0.065205,1.04034,-0.162344,0.167541,0.0635068,-0.0709527,98.92497157876804,0,3.38609,999,log_newX9.csv,0,False,2.367,-3.500598688397258,1.0549476678778906,0.19271062753395307,-0.0031058999999999948,-0.004516099999999995,-0.00028999999999990145,0.0014000000000000679,-0.00036299999999997445,-0.001443999999999973,-0.009597999999999995,0.0012140000000000206,-0.0032930999999999933,0.0003545000000000076,-0.008934399999999995,0.00039030000000000314,-0.02056427174650821,0.015735040899400587,-0.015931804294781138,0.06790647956445728,-0.00042668291892966614,0.0013157535431080891,-0.006504636680162823,0.001801288718276256,-0.00042668291892966614,-0.006504636680162823,2,Foot-flat,0.8655564225113812
