timestamp,ax,ay,az,gx,gy,gz,roll_k,pitch_k,delay_ms,arquivo_id,arquivo_nome,Fase,tem_rotulo_real,tempo_s,roll,acc_norm,gyro_norm,d_ax,dd_ax,d_ay,dd_ay,d_az,dd_az,d_gx,dd_gx,d_gy,dd_gy,d_gz,dd_gz,d_roll,dd_roll,d_pitch_k,dd_pitch_k,d_acc_norm,dd_acc_norm,d_gyro_norm,dd_gyro_norm,jerk_acc,jerk_gyro,classe_prevista,classe_prevista_nome,confianca_prevista
1777223675008,0.0770773,0.651564,0.0925907,0.0396679,-0.337412,0.234064,0,-6.078200953549034,3.26099,999,log_newX4.csv,0,False,0.0,74.53264768895521,0.6626081753176458,0.41256073023302886,0.0,0.0,0.0,0.0,0.0,0.0,0.0,0.0,0.0,0.0,0.0,0.0,0.0,0.0,0.0,0.0,0.0,0.0,0.0,0.0,0.0,0.0,5,Swing,1.0
1777223675022,0.0974211,0.782335,0.109495,0.0253197,-0.227632,0.127172,0,-6.556672769489653,3.29581,999,log_newX4.csv,0,False,0.014,78.30115387551562,0.7959447706814902,0.2619735334267376,0.020343799999999995,0.020343799999999995,0.13077099999999997,0.13077099999999997,0.016904299999999997,0.016904299999999997,-0.014348199999999998,-0.014348199999999998,0.10977999999999999,0.10977999999999999,-0.10689199999999999,-0.10689199999999999,3.7685061865604155,3.7685061865604155,-0.47847181594061894,-0.47847181594061894,0.13333659536384435,0.13333659536384435,-0.15058719680629123,-0.15058719680629123,0.13333659536384435,-0.15058719680629123,5,Swing,1.0
1777223675035,0.103783,0.840904,0.118311,0.0181072,-0.182803,0.0955229,0,-6.711252243480235,3.27288,999,log_newX4.csv,0,False,0.027,79.68852087700505,0.8555044950355316,0.20704934659459806,0.006361900000000004,-0.013981899999999992,0.05856899999999998,-0.07220199999999999,0.008816000000000004,-0.008088299999999993,-0.0072125,0.007135699999999998,0.04482900000000001,-0.06495099999999998,-0.03164910000000001,0.07524289999999997,1.387367001489423,-2.3811391850709924,-0.15457947399058192,0.323892341950037,0.05955972435404144,-0.0737768710098029,-0.054924186832139565,0.09566300997415167,0.05955972435404144,-0.054924186832139565,5,Swing,1.0
1777223675049,0.10638,0.872641,0.124544,0.0139439,-0.15701,0.0818929,0,-6.766101875243656,3.25668,999,log_newX4.csv,0,False,0.041,80.39443081754078,0.8878796242830443,0.17763169626398326,0.002597000000000002,-0.0037649000000000016,0.031737000000000015,-0.026831999999999967,0.006233000000000002,-0.002583000000000002,-0.0041633,0.0030492,0.025792999999999983,-0.019036000000000025,-0.01362999999999999,0.018019100000000024,0.705909940535733,-0.6814570609536901,-0.05484963176342106,0.09972984222716086,0.032375129247512735,-0.02718459510652871,-0.029417650330614803,0.025506536501524762,0.032375129247512735,-0.029417650330614803,5,Swing,1.0
1777223675062,0.107509,0.893623,0.127479,0.0110864,-0.140653,0.0769728,0,-6.773792818765237,3.26264,999,log_newX4.csv,0,False,0.054,80.83603065572225,0.9090495842642469,0.16072021221302565,0.0011289999999999911,-0.001468000000000011,0.020981999999999945,-0.01075500000000007,0.002935000000000007,-0.0032979999999999954,-0.0028575000000000007,0.0013057999999999993,0.01635700000000001,-0.009435999999999972,-0.004920100000000011,0.008709899999999979,0.4415998381814745,-0.26431010235425845,-0.007690943521581062,0.04715868824184,0.021169959981202524,-0.011205169266310211,-0.016911484050957604,0.0125061662796572,0.021169959981202524,-0.016911484050957604,5,Swing,1.0
1777223675075,0.111569,0.909959,0.130008,0.00948179,-0.129691,0.0765235,0,-6.815483123842995,3.26358,999,log_newX4.csv,0,False,0.067,81.12959250159241,0.9259455186489105,0.15088242400907437,0.004060000000000008,0.002931000000000017,0.016336000000000017,-0.004645999999999928,0.0025290000000000035,-0.0004060000000000036,-0.0016046099999999994,0.0012528900000000013,0.010962,-0.005395000000000011,-0.0004492999999999997,0.004470800000000011,0.2935618458701583,-0.1480379923113162,-0.04169030507775773,-0.033999361556176666,0.016895934384663636,-0.0042740255965388885,-0.009837788203951287,0.007073695847006317,0.016895934384663636,-0.009837788203951287,5,Swing,1.0
1777223675089,0.11286,0.920231,0.130736,0.00651404,-0.120576,0.0764575,0,-6.845375298645936,3.41768,999,log_newX4.csv,0,False,0.081,81.34735400530555,0.9362982295492179,0.14292219491517613,0.0012910000000000005,-0.0027690000000000076,0.010272000000000059,-0.006063999999999958,0.0007279999999999787,-0.0018010000000000248,-0.0029677500000000008,-0.0013631400000000014,0.009114999999999998,-0.0018470000000000014,-6.599999999999662e-05,0.0003833000000000031,0.21776150371313463,-0.07580034215702369,-0.029892174802941263,0.011798130274816465,0.010352710900307427,-0.006543223484356209,-0.007960229093898236,0.0018775591100530509,0.010352710900307427,-0.007960229093898236,5,Swing,1.0
1777223675102,0.11324,0.929127,0.130717,0.00322685,-0.109433,0.0763076,0,-6.855331828398666,3.24914,999,log_newX4.csv,0,False,0.094,81.52396145035719,0.9450858235197479,0.13344978032084767,0.00037999999999999146,-0.000911000000000009,0.008896000000000015,-0.0013760000000000439,-1.8999999999991246e-05,-0.0007469999999999699,-0.0032871899999999997,-0.00031943999999999896,0.011143,0.002028000000000002,-0.00014989999999999448,-8.389999999999787e-05,0.17660744505164416,-0.04115405866149047,-0.009956529752729537,0.019935645050211726,0.008787593970529972,-0.0015651169297774548,-0.00947241459432846,-0.0015121855004302243,0.008787593970529972,-0.00947241459432846,5,Swing,1.0
1777223675115,0.116747,0.935096,0.130925,0.00104519,-0.0982755,0.0771345,0,-6.907924612133511,3.25603,999,log_newX4.csv,0,False,0.107,81.66164088872995,0.9514072455315863,0.12493557304721542,0.00350700000000001,0.0031270000000000187,0.005969000000000002,-0.002927000000000013,0.00020800000000001373,0.00022700000000000498,-0.0021816599999999998,0.00110553,0.0111575,1.4500000000000624e-05,0.0008268999999999915,0.000976799999999986,0.1376794383727571,-0.03892800667888707,-0.05259278373484566,-0.042636253982116123,0.006321422011838385,-0.0024661719586915876,-0.008514207273632252,0.0009582073206962083,0.006321422011838385,-0.008514207273632252,5,Swing,1.0
1777223675129,0.121159,0.939474,0.130951,-0.00121404,-0.0889889,0.0767801,0,-7.00857483127844,3.24838,999,log_newX4.csv,0,False,0.121,81.7710050668548,0.95626307277757,0.11754012919995281,0.004411999999999999,0.0009049999999999891,0.004377999999999993,-0.001591000000000009,2.5999999999998247e-05,-0.00018200000000001548,-0.00225923,-7.757000000000033e-05,0.009286600000000006,-0.0018708999999999948,-0.00035439999999999083,-0.0011812999999999824,0.10936417812484933,-0.02831526024790776,-0.10065021914492878,-0.048057435410083116,0.004855827245983657,-0.0014655947658547275,-0.007395443847262609,0.0011187634263696428,0.004855827245983657,-0.007395443847262609,5,Swing,1.0
1777223675142,0.125765,0.942443,0.131672,-0.00422138,-0.0823471,0.0744884,0,-7.149395581614627,3.24323,999,log_newX4.csv,0,False,0.134,81.84559145649143,0.9598714283996581,0.11111879526918207,0.004605999999999985,0.00019399999999998585,0.0029689999999999994,-0.0014089999999999936,0.0007209999999999994,0.0006950000000000012,-0.0030073400000000003,-0.0007481100000000002,0.006641799999999989,-0.0026448000000000166,-0.0022917000000000076,-0.0019373000000000168,0.07458638963663589,-0.034777788488213446,-0.14082075033618668,-0.04017053119125791,0.0036083556220881663,-0.0012474716238954908,-0.0064213339307707396,0.0009741099164918693,0.0036083556220881663,-0.0064213339307707396,5,Swing,0.7830701499793877
1777223675155,0.126651,0.946408,0.131695,-0.00743879,-0.075673,0.0726261,0,-7.257828141725975,3.23699,999,log_newX4.csv,0,False,0.147,81.90845696591289,0.9638838889046751,0.10514888932781981,0.0008860000000000257,-0.0037199999999999595,0.003964999999999996,0.0009959999999999969,2.2999999999995246e-05,-0.0006980000000000042,-0.0032174099999999995,-0.00021006999999999927,0.006674100000000002,3.2300000000012874e-05,-0.0018622999999999973,0.00042940000000001033,0.06286550942145652,-0.011720880215179363,-0.10843256011134805,0.03238819022483863,0.004012460505017024,0.0004041048829288574,-0.0059699059413622635,0.00045142798940847606,0.004012460505017024,-0.0059699059413622635,5,Swing,0.7830701499793877
1777223675169,0.127671,0.949765,0.131411,-0.0110442,-0.0683041,0.0736563,0,-7.346167221359473,3.23966,999,log_newX4.csv,0,False,0.161,81.9663122039144,0.9672757054671641,0.10105778030483353,0.0010199999999999931,0.00013399999999996748,0.0033569999999999434,-0.0006080000000000529,-0.00028400000000000647,-0.0003070000000000017,-0.0036054100000000007,-0.0003880000000000012,0.007368899999999998,0.0006947999999999954,0.001030199999999995,0.0028924999999999923,0.05785523800150827,-0.005010271419948253,-0.08833907963349841,0.020093480477849646,0.0033918165624889918,-0.0006206439425280319,-0.004091109022986275,0.0018787969183759884,0.0033918165624889918,-0.004091109022986275,5,Swing,0.7830701499793877
1777223675182,0.127306,0.951791,0.132703,-0.0145892,-0.0606973,0.0759881,0,-7.400223082595897,3.2501,999,log_newX4.csv,0,False,0.174,81.99236894254243,0.969393115060139,0.09834225096844185,-0.0003650000000000042,-0.0013849999999999973,0.0020260000000000833,-0.00133099999999986,0.0012919999999999876,0.001575999999999994,-0.0035449999999999995,6.041000000000119e-05,0.007606800000000004,0.00023790000000000616,0.002331800000000009,0.0013016000000000139,0.026056738628028597,-0.03179849937347967,-0.054055861236423475,0.03428321839707493,0.002117409592974906,-0.0012744069695140858,-0.0027155293363916866,0.0013755796865945885,0.002117409592974906,-0.0027155293363916866,5,Swing,0.7830701499793877
1777223675195,0.1301,0.955012,0.132552,-0.0176537,-0.0516514,0.078112,0,-7.4771161747337365,3.25795,999,log_newX4.csv,0,False,0.187,82.02092426108203,0.9729049094582677,0.09529430617644477,0.002793999999999991,0.003158999999999995,0.0032209999999999184,0.001194999999999835,-0.00015099999999998448,-0.001442999999999972,-0.0030645000000000013,0.0004804999999999983,0.009045900000000003,0.0014390999999999987,0.002123899999999998,-0.00020790000000001085,0.02855531853960258,0.0024985799115739837,-0.07689309213783968,-0.022837230901416206,0.0035117943981286537,0.0013943848051537477,-0.003047944791997076,-0.0003324154556053893,0.0035117943981286537,-0.003047944791997076,5,Swing,0.7830701499793877
1777223675209,0.134208,0.956432,0.133375,-0.0202864,-0.0441575,0.0787868,0,-7.594640848080676,3.24714,999,log_newX4.csv,0,False,0.201,82.0318238706893,0.9749681269215932,0.09256771945689275,0.0041080000000000005,0.0013140000000000096,0.0014199999999999768,-0.0018009999999999415,0.0008229999999999904,0.0009739999999999749,-0.0026326999999999982,0.000431800000000003,0.007493899999999998,-0.0015520000000000048,0.0006748000000000032,-0.0014490999999999948,0.010899609607264438,-0.017655708932338143,-0.1175246733469395,-0.04063158120909982,0.002063217463325495,-0.0014485769348031585,-0.0027265867195520183,0.00032135807244505765,0.002063217463325495,-0.0027265867195520183,5,Swing,0.6625328311434404
1777223675222,0.138072,0.955729,0.134051,-0.0238534,-0.0366151,0.0760518,0,-7.742494340019813,3.25062,999,log_newX4.csv,0,False,0.214,82.02748203810613,0.9749110057979652,0.08771275005841511,0.0038640000000000063,-0.00024399999999999422,-0.0007029999999998982,-0.002122999999999875,0.0006760000000000099,-0.00014699999999998048,-0.0035670000000000007,-0.0009343000000000025,0.007542400000000005,4.850000000000687e-05,-0.0027350000000000013,-0.0034098000000000045,-0.004341832583165228,-0.015241442190429666,-0.147853491939137,-0.030328818592197493,-5.7121123627990045e-05,-0.002120338586953485,-0.00485496939847764,-0.002128382678925622,-5.7121123627990045e-05,-0.00485496939847764,5,Swing,0.6625328311434404
1777223675235,0.141862,0.957497,0.135383,-0.0272154,-0.0276122,0.0710982,0,-7.905475913685062,3.26331,999,log_newX4.csv,0,False,0.227,82.00712947759868,0.9773709064331719,0.08098188457451456,0.003789999999999988,-7.40000000000185e-05,0.0017679999999999918,0.00247099999999989,0.0013319999999999999,0.0006559999999999899,-0.0033620000000000004,0.00020500000000000032,0.009002899999999998,0.001460499999999993,-0.0049536000000000024,-0.002218600000000001,-0.020352560507447492,-0.016010727924282264,-0.1629815736652489,-0.015128081726111908,0.0024599006352067354,0.0025170217588347255,-0.006730865483900547,-0.0018758960854229068,0.0024599006352067354,-0.006730865483900547,5,Swing,0.6625328311434404
1777223675249,0.146176,0.956429,0.135009,-0.0310329,-0.0175455,0.0647706,0,-8.09460804080757,3.25586,999,log_newX4.csv,0,False,0.241,81.99581395240386,0.9769090464818104,0.07393318657423065,0.004314000000000012,0.0005240000000000244,-0.001068000000000069,-0.0028360000000000607,-0.0003740000000000132,-0.001706000000000013,-0.003817499999999998,-0.0004554999999999976,0.010066700000000001,0.0010638000000000036,-0.006327600000000003,-0.0013740000000000002,-0.011315525194817155,0.009037035312630337,-0.18913212712250793,-0.02615055345725903,-0.0004618599513614985,-0.002921760586568234,-0.007048698000283918,-0.0003178325163833706,-0.0004618599513614985,-0.007048698000283918,5,Swing,0.6625328311434404
1777223675262,0.149552,0.955667,0.135365,-0.0358163,-0.00753402,0.0554388,0,-8.28721425250562,3.24938,999,log_newX4.csv,0,False,0.254,81.98019433442194,0.9767235529145389,0.0664306356170886,0.00337599999999999,-0.0009380000000000221,-0.0007619999999999294,0.0003060000000001395,0.00035600000000002296,0.0007300000000000362,-0.004783400000000004,-0.0009659000000000056,0.01001148,-5.522000000000166e-05,-0.009331799999999994,-0.0030041999999999916,-0.015619617981926126,-0.004304092787108971,-0.1926062116980507,-0.0034740845755427685,-0.00018549356727148858,0.0002763663840900099,-0.007502550957142043,-0.0004538529568581251,-0.00018549356727148858,-0.007502550957142043,5,Swing,0.6625328311434404
1777223675275,0.149178,0.953875,0.135771,-0.042474,0.00280252,0.0453117,0,-8.426092292813431,3.24406,999,log_newX4.csv,0,False,0.267,81.95829888103003,0.9749694127253429,0.062169485692262244,-0.00037399999999998546,-0.0037499999999999756,-0.0017920000000000158,-0.0010300000000000864,0.0004059999999999897,4.999999999996674e-05,-0.0066576999999999956,-0.001874299999999992,0.01033654,0.0003250600000000003,-0.0101271,-0.0007953000000000057,-0.021895453391906017,-0.006275835409979891,-0.13887804030781048,0.05372817139024022,-0.0017541401891960628,-0.0015686466219245743,-0.00426114992482636,0.0032414010323156828,-0.0017541401891960628,-0.00426114992482636,5,Swing,0.5517374107436623
1777223675289,0.146206,0.953582,0.135541,-0.0507438,0.0143404,0.037182,0,-8.481569727604823,3.28101,999,log_newX4.csv,0,False,0.281,81.94531453474409,0.9742002811747696,0.064521945372098,-0.0029720000000000024,-0.002598000000000017,-0.0002929999999999877,0.001499000000000028,-0.00023000000000000798,-0.0006359999999999977,-0.0082698,-0.0016121000000000052,0.01153788,0.0012013400000000004,-0.008129700000000004,0.0019973999999999964,-0.012984346285946913,0.008911107105959104,-0.055477434791392,0.08340060551641848,-0.0007691315505732321,0.0009850086386228307,0.0023524596798357583,0.0066136096046621184,-0.0007691315505732321,0.0023524596798357583,5,Swing,0.5517374107436623
1777223675302,0.144759,0.953006,0.136568,-0.0604843,0.0263959,0.0316568,0,-8.500328393466162,3.2504,999,log_newX4.csv,0,False,0.294,81.91818712254117,0.9735637743573864,0.07319321737387967,-0.0014470000000000038,0.0015249999999999986,-0.0005760000000000209,-0.0002830000000000332,0.0010270000000000001,0.0012570000000000081,-0.0097405,-0.0014706999999999984,0.0120555,0.0005176199999999999,-0.005525200000000001,0.0026045000000000026,-0.02712741220291548,-0.014143065916968567,-0.018758665861339452,0.03671876893005255,-0.0006365068173832533,0.0001326247331899788,0.008671272001781666,0.0063188123219459075,-0.0006365068173832533,0.008671272001781666,5,Swing,0.5517374107436623
1777223675315,0.144761,0.953279,0.138683,-0.0707503,0.0357781,0.0270663,0,-8.512698194014698,3.25132,999,log_newX4.csv,0,False,0.307,81.86536980501755,0.9741301624788137,0.08377506780295675,2.000000000002e-06,0.0014490000000000058,0.0002729999999999677,0.0008489999999999887,0.0021150000000000058,0.0010880000000000056,-0.010266000000000004,-0.0005255000000000051,0.0093822,-0.0026733,-0.004590499999999997,0.0009347000000000036,-0.05281731752361907,-0.025689905320703588,-0.012369800548535537,0.006388865312803915,0.0005663881214272859,0.0012028949388105392,0.010581850429077083,0.0019105784272954174,0.0005663881214272859,0.010581850429077083,5,Swing,0.5517374107436623
1777223675329,0.147921,0.955321,0.142097,-0.0818108,0.0405413,0.0170823,0,-8.565304443353543,3.27742,999,log_newX4.csv,0,False,0.321,81.77738849040098,0.9770928270594355,0.09288922959966887,0.003159999999999996,0.003157999999999994,0.0020419999999999883,0.0017690000000000206,0.0034140000000000004,0.0012989999999999946,-0.011060500000000001,-0.0007944999999999966,0.004763200000000002,-0.004618999999999998,-0.009984,-0.0053935000000000025,-0.08798131461657022,-0.03516399709295115,-0.0526062493388455,-0.040236448790309964,0.0029626645806217766,0.0023962764591944907,0.009114161796712122,-0.0014676886323649607,0.0029626645806217766,0.009114161796712122,5,Swing,0.5517374107436623
1777223675342,0.153562,0.957544,0.147153,-0.0927066,0.0364174,-0.00332505,0,-8.684634185390468,3.25231,999,log_newX4.csv,0,False,0.334,81.63849773978892,0.9808801176438433,0.09965839986585426,0.005641000000000007,0.002481000000000011,0.002222999999999975,0.00018099999999998673,0.005056000000000005,0.0016420000000000046,-0.010895799999999997,0.00016470000000000373,-0.0041239,-0.008887100000000002,-0.02040735,-0.010423350000000001,-0.13889075061206313,-0.05090943599549291,-0.11932974203692481,-0.06672349269807931,0.003787290584407854,0.0008246260037860775,0.006769170266185384,-0.0023449915305267383,0.003787290584407854,0.006769170266185384,5,Swing,0.4715967602567075
1777223675356,0.154399,0.964206,0.154085,-0.100501,0.0304236,-0.030331,0,-8.765905217787374,3.24964,999,log_newX4.csv,0,False,0.348,81.44455689465204,0.9885719239701278,0.1092978316297263,0.0008370000000000044,-0.004804000000000003,0.006662000000000057,0.004439000000000082,0.006931999999999994,0.0018759999999999888,-0.007794399999999993,0.003101400000000004,-0.005993800000000004,-0.0018699000000000042,-0.02700595,-0.0065986,-0.19394084513687915,-0.05505009452481602,-0.0812710323969057,0.03805870964001912,0.007691806326284523,0.0039045157418766685,0.009639431763872039,0.0028702614976866547,0.007691806326284523,0.009639431763872039,5,Swing,0.4715967602567075
1777223675369,0.155319,0.967349,0.160552,-0.107542,0.0262432,-0.046791,0,-8.829302461674011,3.25429,999,log_newX4.csv,0,False,0.361,81.21003424883035,0.992806639918368,0.12018063484288972,0.0009200000000000041,8.299999999999974e-05,0.003143000000000007,-0.00351900000000005,0.0064670000000000005,-0.0004649999999999932,-0.007041000000000006,0.0007533999999999874,-0.004180399999999997,0.0018134000000000067,-0.01646,0.010545950000000002,-0.23452264582168425,-0.0405818006848051,-0.06339724388663726,0.01787378851026844,0.004234715948240209,-0.003457090378044314,0.010882803213163428,0.0012433714492913889,0.004234715948240209,0.010882803213163428,5,Swing,0.4715967602567075
1777223675382,0.154509,0.968274,0.162753,-0.111794,0.0299993,-0.0536366,0,-8.86000732984815,3.24194,999,log_newX4.csv,0,False,0.374,81.00702680263132,0.993939690909866,0.12757249427697961,-0.0008100000000000052,-0.0017300000000000093,0.0009249999999999536,-0.0022180000000000533,0.0022010000000000085,-0.004265999999999992,-0.004252000000000006,0.002789,0.0037560999999999983,0.007936499999999996,-0.0068456,0.009614399999999999,-0.2030074461990381,0.03151519962264615,-0.030704868174138866,0.03269237571249839,0.0011330509914979636,-0.003101664956742245,0.00739185943408989,-0.003490943779073538,0.0011330509914979636,0.00739185943408989,5,Swing,0.4715967602567075
1777223675396,0.155124,0.973068,0.1627,-0.109192,0.044771,-0.0542773,0,-8.880462817391294,3.55492,999,log_newX4.csv,0,False,0.388,80.87215080334309,0.9986971903434995,0.1298975003619777,0.0006150000000000044,0.0014250000000000096,0.004794000000000076,0.0038690000000001223,-5.2999999999997494e-05,-0.002254000000000006,0.002602000000000007,0.006854000000000013,0.014771699999999999,0.0110156,-0.000640700000000001,0.006204899999999999,-0.13487599928822647,0.06813144691081163,-0.020455487543143747,0.01024938063099512,0.004757499433633461,0.0036244484421354972,0.0023250060849980825,-0.005066853349091807,0.004757499433633461,0.0023250060849980825,5,Swing,0.4715967602567075
1777223675409,0.161065,0.969055,0.161882,-0.108513,0.0582,-0.0432079,0,-8.996522070911329,3.37468,999,log_newX4.csv,0,False,0.401,80.77599685334235,0.995597965633719,0.130496106422414,0.005941000000000002,0.005325999999999997,-0.004013000000000044,-0.00880700000000012,-0.0008180000000000132,-0.0007650000000000157,0.000678999999999999,-0.001923000000000008,0.013429000000000003,-0.0013426999999999953,0.0110694,0.011710100000000001,-0.09615395000074045,0.038722049287486016,-0.1160592535200351,-0.09560376597689135,-0.0030992247097804126,-0.007856724143413873,0.0005986060604362964,-0.001726400024561786,-0.0030992247097804126,0.0005986060604362964,1,Heel-strike,0.3135010762512651
1777223675423,0.157728,0.971332,0.161944,-0.107437,0.074709,-0.0438438,0,-9.02445123940652,3.50021,999,log_newX4.csv,0,False,0.415,80.71075554501638,0.9972912490060263,0.13800877670800507,-0.0033370000000000066,-0.009278000000000008,0.0022769999999999735,0.006290000000000018,6.20000000000065e-05,0.0008800000000000197,0.0010759999999999936,0.0003969999999999946,0.016508999999999996,0.0030799999999999925,-0.0006359000000000017,-0.011705300000000002,-0.06524130832596597,0.030912641674774477,-0.027929168495191448,0.08813008502484365,0.0016932833723072305,0.004792508082087643,0.007512670285591078,0.006914064225154781,0.0016932833723072305,0.007512670285591078,1,Heel-strike,0.3135010762512651
1777223675436,0.15882,0.971732,0.162095,-0.108755,0.0978557,-0.0500226,0,-9.060531897477667,3.40397,999,log_newX4.csv,0,False,0.428,80.66183293048545,0.99787858041397,0.15461451600108575,0.0010919999999999819,0.0044289999999999885,0.00040000000000006697,-0.0018769999999999065,0.00015099999999998448,8.899999999997799e-05,-0.0013179999999999997,-0.0023939999999999934,0.023146700000000006,0.00663770000000001,-0.006178799999999998,-0.0055428999999999964,-0.04892261453093738,0.016318693795028594,-0.03608065807114613,-0.008151489575954685,0.0005873314079437586,-0.0011059519643634719,0.01660573929308068,0.009093069007489601,0.0005873314079437586,0.01660573929308068,1,Heel-strike,0.3135010762512651
1777223675450,0.151885,0.975811,0.163995,-0.105324,0.132908,-0.0563166,0,-8.9703292920524,3.43708,999,log_newX4.csv,0,False,0.442,80.60730901749608,1.0010846722285782,0.17868755098092312,-0.006934999999999997,-0.008026999999999979,0.004078999999999944,0.003678999999999877,0.0019000000000000128,0.0017490000000000283,0.0034310000000000035,0.004749000000000003,0.035052299999999995,0.011905599999999988,-0.006294000000000001,-0.0001152000000000028,-0.05452391298936732,-0.0056012984584299375,0.09020260542526692,0.12628326349641306,0.0032060918146081807,0.002618760406664422,0.02407303497983737,0.007467295686756692,0.0032060918146081807,0.02407303497983737,1,Heel-strike,0.3135010762512651
1777223675464,0.14461,0.975878,0.14885,-0.100289,0.174256,-0.0616888,0,-8.79841985784861,3.49986,999,log_newX4.csv,0,False,0.456,80.80188855606706,0.9977004788432248,0.21030583706221753,-0.007275000000000004,-0.00034000000000000696,6.700000000003925e-05,-0.0040119999999999045,-0.015144999999999992,-0.017045000000000005,0.005034999999999998,0.0016039999999999943,0.041347999999999996,0.006295700000000001,-0.005372200000000001,0.0009218000000000004,0.1945795385709772,0.24910345156034452,0.1719094342037888,0.08170682877852187,-0.003384193385353451,-0.006590285199961632,0.03161828608129441,0.00754525110145704,-0.003384193385353451,0.03161828608129441,1,Heel-strike,0.3135010762512651
1777223675477,0.139194,0.973072,0.144066,-0.102505,0.22048,-0.0653641,0,-8.597332069284736,3.40075,999,log_newX4.csv,0,False,0.469,81.0116622034112,0.9934782831929444,0.25177603339835586,-0.005415999999999976,0.0018590000000000273,-0.002805999999999975,-0.0028730000000000144,-0.0047840000000000105,0.010360999999999981,-0.0022159999999999958,-0.0072509999999999936,0.046224000000000015,0.004876000000000019,-0.0036752999999999925,0.0016969000000000081,0.20977364734415005,0.015194108773172843,0.20108778856387488,0.02917835436008609,-0.004222195650280369,-0.0008380022649269181,0.041470196336138326,0.009851910254843915,-0.004222195650280369,0.041470196336138326,1,Heel-strike,0.49795211884620666
1777223675491,0.123328,0.975978,0.138368,-0.0990599,0.271444,-0.0674981,0,-8.201289766395865,3.48099,999,log_newX4.csv,0,False,0.483,81.25995751471646,0.9934226469594902,0.2967333861021035,-0.01586600000000002,-0.010450000000000043,0.002905999999999964,0.005711999999999939,-0.005698000000000009,-0.0009139999999999981,0.0034450999999999926,0.005661099999999988,0.05096400000000001,0.004739999999999994,-0.002134000000000011,0.0015412999999999816,0.24829531130525595,0.0385216639611059,0.3960423028888709,0.194954514324996,-5.563623345417046e-05,0.004166559416826199,0.04495735270374762,0.0034871563676092954,-5.563623345417046e-05,0.04495735270374762,1,Heel-strike,0.49795211884620666
1777223675504,0.0445644,0.996452,0.0745773,-0.0938476,0.346025,-0.0544163,0,-6.6755325741592735,3.4711,999,log_newX4.csv,0,False,0.496,82.46481190289475,1.0002321469172293,0.3626317779186623,-0.07876359999999999,-0.06289759999999997,0.020473999999999992,0.017568000000000028,-0.06379069999999999,-0.05809269999999998,0.005212300000000003,0.0017672000000000104,0.07458100000000001,0.023617,0.013081800000000005,0.015215800000000015,1.2048543881782905,0.9565590768730345,1.5257571922365916,1.1297148893477207,0.006809499957739051,0.006865136191193222,0.06589839181655882,0.0209410391128112,0.006809499957739051,0.06589839181655882,1,Heel-strike,0.49795211884620666
1777223675518,0.0301983,1.00467,0.116837,-0.0926847,0.455059,0.0105819,0,-5.334105132423019,3.43895,999,log_newX4.csv,0,False,0.51,82.70844814591992,1.011891610199378,0.4645224684584159,-0.014366099999999996,0.0643975,0.008217999999999948,-0.012256000000000045,0.0422597,0.10605039999999999,0.0011629000000000084,-0.004049399999999995,0.10903399999999996,0.034452999999999956,0.0649982,0.0519164,0.24363624302516484,-0.9612181451531256,1.3414274417362542,-0.1843297505003374,0.01165946328214873,0.0048499633244096785,0.10189069053975358,0.03599229872319476,0.01165946328214873,0.10189069053975358,1,Heel-strike,0.49795211884620666
1777223675531,0.0564286,0.979381,0.125087,-0.0756342,0.53858,0.0728387,0,-4.776752322592892,3.50851,999,log_newX4.csv,0,False,0.523,82.71199094976397,0.988947970131877,0.5487207166011958,0.0262303,0.0405964,-0.025289000000000006,-0.033506999999999953,0.008250000000000007,-0.03400969999999999,0.017050499999999996,0.015887599999999988,0.08352099999999996,-0.025513000000000008,0.06225680000000001,-0.002741399999999998,0.0035428038440556975,-0.24009343918110915,0.5573528098301272,-0.7840746319061269,-0.022943640067501048,-0.03460310334964978,0.08419824814277993,-0.01769244239697365,-0.022943640067501048,0.08419824814277993,1,Heel-strike,0.49795211884620666
1777223675545,0.061411,0.975149,0.144218,-0.0737537,0.569924,0.079045,0,-4.449343435515286,3.52655,999,log_newX4.csv,0,False,0.537,82.40815406380617,0.9876668034544849,0.5800871366137074,0.004982399999999998,-0.021247900000000004,-0.0042319999999999025,0.021057000000000103,0.01913100000000001,0.010881000000000002,0.0018804999999999933,-0.015170000000000003,0.03134400000000004,-0.05217699999999992,0.006206299999999998,-0.05605050000000001,-0.3038368859578071,-0.3073796898018628,0.3274088870776062,-0.22994392275252107,-0.0012811666773920871,0.02166247339010896,0.03136642001251155,-0.05283182813026838,-0.0012811666773920871,0.03136642001251155,1,Heel-strike,0.6520659844739827
1777223675559,0.0741016,0.970059,0.162565,-0.0643876,0.577392,0.094484,0,-4.4112723689402475,3.49966,999,log_newX4.csv,0,False,0.551,81.88904109604886,0.9863736056021369,0.5886038659011339,0.012690600000000003,0.007708200000000005,-0.005090000000000039,-0.0008580000000001364,0.018346999999999974,-0.0007840000000000347,0.009366100000000002,0.007485600000000009,0.00746800000000003,-0.02387600000000001,0.015438999999999994,0.009232699999999996,-0.5191129677573088,-0.21527608179950164,0.03807106657503834,-0.28933782050256784,-0.0012931978523479382,-1.2031174955851043e-05,0.008516729287426528,-0.022849690725085026,-0.0012931978523479382,0.008516729287426528,1,Heel-strike,0.6520659844739827
1777223675572,0.105163,0.96934,0.159835,-0.0398141,0.550091,0.111892,0,-4.870165706383873,3.42644,999,log_newX4.csv,0,False,0.564,81.55071881599956,0.9880417599443861,0.5627655733107793,0.031061400000000003,0.0183708,-0.0007190000000000252,0.004371000000000014,-0.0027299999999999824,-0.021076999999999957,0.024573500000000005,0.015207400000000003,-0.02730100000000002,-0.03476900000000005,0.017408000000000007,0.0019690000000000124,-0.3383222800492973,0.18079068770801143,-0.4588933374436257,-0.49696440401866404,0.0016681543422492062,0.0029613521945971444,-0.02583829259035464,-0.03435502187778117,0.0016681543422492062,-0.02583829259035464,1,Heel-strike,0.6520659844739827
1777223675586,0.0622538,1.00114,0.164767,-0.0148323,0.50262,0.108701,0,-4.503011970065319,3.50671,999,log_newX4.csv,0,False,0.578,81.30848560527126,1.0165161088263381,0.5144538549999309,-0.04290920000000001,-0.07397060000000001,0.03179999999999994,0.032518999999999965,0.004931999999999992,0.007661999999999974,0.0249818,0.0004082999999999934,-0.04747100000000004,-0.02017000000000002,-0.0031909999999999994,-0.020599000000000006,-0.24223321072830117,0.09608906932099615,0.36715373631855464,0.8260470737621803,0.028474348881951994,0.026806194539702788,-0.04831171831084835,-0.02247342572049371,0.028474348881951994,-0.04831171831084835,1,Heel-strike,0.6520659844739827
1777223675599,0.107648,0.983621,0.18253,0.00873386,0.418036,0.0927727,0,-4.945685370677,3.4732,999,log_newX4.csv,0,False,0.591,80.81646429151476,1.0061886326355511,0.42829563559741024,0.045394199999999996,0.0883034,-0.01751899999999995,-0.04931899999999989,0.017763,0.012831000000000009,0.02356616,-0.0014156399999999993,-0.08458399999999994,-0.037112999999999896,-0.015928300000000006,-0.012737300000000007,-0.4920213137564957,-0.24978810302819454,-0.4426734006116817,-0.8098271369302363,-0.010327476190787,-0.038801825072738994,-0.08615821940252066,-0.03784650109167231,-0.010327476190787,-0.08615821940252066,1,Heel-strike,0.6520659844739827
1777223675613,0.127629,0.980149,0.205833,0.0360441,0.286938,0.0326286,0,-5.571533145982967,3.48331,999,log_newX4.csv,0,False,0.605,80.09343464493901,1.0096278758686292,0.2910278655503112,0.019981,-0.025413199999999997,-0.0034719999999999196,0.014047000000000032,0.02330299999999999,0.005539999999999989,0.027310240000000003,0.003744080000000004,-0.131098,-0.046514000000000055,-0.0601441,-0.04421579999999999,-0.7230296465757533,-0.2310083328192576,-0.6258477753059664,-0.18317437469428466,0.003439243233078093,0.013766719423865093,-0.13726777004709906,-0.051109550644578394,0.003439243233078093,-0.13726777004709906,1,Heel-strike,0.6577820798997106
1777223675626,0.123133,0.981703,0.204511,0.061678,0.164128,-0.0289672,0,-5.957552324390839,3.41121,999,log_newX4.csv,0,False,0.618,79.59063649651442,1.0103104795155795,0.17771121164361015,-0.004495999999999986,-0.024476999999999985,0.0015539999999999443,0.005025999999999864,-0.0013219999999999898,-0.02462499999999998,0.025633899999999994,-0.0016763400000000088,-0.12281000000000003,0.008287999999999962,-0.0615958,-0.0014517000000000002,-0.5027981484245885,0.22023149815116483,-0.3860191784078726,0.23982859689809377,0.000682603646950275,-0.002756639586127818,-0.11331665390670104,0.02395111614039802,0.000682603646950275,-0.11331665390670104,1,Heel-strike,0.6577820798997106
1777223675640,0.114145,0.981476,0.201562,0.0803805,0.0713027,-0.0526254,0,-6.103886882084175,3.47492,999,log_newX4.csv,0,False,0.632,79.26755749733928,1.0084401119774045,0.1196433555727187,-0.00898800000000001,-0.004492000000000024,-0.00022699999999997722,-0.0017809999999999215,-0.002949000000000007,-0.0016270000000000173,0.018702499999999997,-0.006931399999999997,-0.0928253,0.02998470000000003,-0.023658200000000004,0.037937599999999995,-0.32307899917513794,0.17971914924945054,-0.14633455769333548,0.2396846207145371,-0.001870367538175044,-0.002552971185125319,-0.058067856070891447,0.05524879783580959,-0.001870367538175044,-0.058067856070891447,1,Heel-strike,0.6577820798997106
1777223675654,0.10927,0.97803,0.191763,0.0907497,0.00567844,-0.070941,0,-6.145183806374122,3.46238,999,log_newX4.csv,0,False,0.646,79.17007097282568,1.0026243872802016,0.11532726569169843,-0.0048749999999999905,0.004113000000000019,-0.00344600000000006,-0.003219000000000083,-0.009799000000000002,-0.006849999999999995,0.010369200000000009,-0.008333299999999988,-0.06562425999999999,0.02720104000000001,-0.0183156,0.005342600000000003,-0.09748652451359874,0.2255924746615392,-0.04129692428994769,0.10503763340338779,-0.005815724697202818,-0.003945357159027774,-0.004316089881020266,0.05375176618987118,-0.005815724697202818,-0.004316089881020266,1,Heel-strike,0.6577820798997106
1777223675667,0.106678,0.974394,0.178911,0.0857138,-0.0405606,-0.0907205,0,-6.1454043788717705,3.4252,999,log_newX4.csv,0,False,0.659,79.28504740085417,0.9964100605880091,0.131233482400834,-0.002592000000000011,0.0022829999999999795,-0.0036359999999999726,-0.00018999999999991246,-0.012852000000000002,-0.003053,-0.005035899999999996,-0.015405100000000005,-0.04623904,0.019385219999999988,-0.01977949999999999,-0.0014638999999999902,0.11497642802848418,0.21246295254208292,-0.00022057249764806386,0.041076351792299626,-0.006214326692192573,-0.0003986019949897557,0.015906216709135557,0.020222306590155822,-0.006214326692192573,0.015906216709135557,1,Heel-strike,0.6577820798997106
1777223675681,0.100599,0.975388,0.172869,0.0741635,-0.0675282,-0.100193,0,-6.051761751680109,3.47212,999,log_newX4.csv,0,False,0.673,79.4646270450977,0.9956834840982349,0.1417706590818072,-0.006079000000000001,-0.00348699999999999,0.0009940000000000504,0.004630000000000023,-0.006041999999999992,0.0068100000000000105,-0.011550300000000013,-0.006514400000000017,-0.026967599999999994,0.019271440000000008,-0.009472500000000009,0.010306999999999983,0.1795796442435318,0.06460321621504761,0.09364262719166128,0.09386319968930934,-0.0007265764897741445,0.005487750202418429,0.010537176680973204,-0.005369040028162353,-0.0007265764897741445,0.010537176680973204,1,Heel-strike,0.687067916707884
1777223675694,0.0988924,0.976122,0.174025,0.066065,-0.0810954,-0.1024,0,-5.955590433254287,3.38016,999,log_newX4.csv,0,False,0.686,79.57992206655084,0.996432921117503,0.14637898799404236,-0.0017065999999999887,0.004372400000000012,0.0007340000000000124,-0.000260000000000038,0.0011560000000000181,0.00719800000000001,-0.008098499999999995,0.0034518000000000187,-0.013567200000000001,0.013400399999999993,-0.0022070000000000006,0.007265500000000008,0.11529502145313586,-0.06428462279039593,0.0961713184258226,0.002528691234161329,0.0007494370192681066,0.001476013509042251,0.004608328912235171,-0.0059288477687380325,0.0007494370192681066,0.004608328912235171,1,Heel-strike,0.687067916707884
1777223675708,0.0940646,0.976115,0.174739,0.0584511,-0.0817907,-0.104583,0,-5.81056504062258,3.53347,999,log_newX4.csv,0,False,0.7,79.6530781184221,0.9960835107154219,0.14506499779995172,-0.004827800000000007,-0.0031212000000000184,-7.000000000090267e-06,-0.0007410000000001027,0.0007139999999999924,-0.0004420000000000257,-0.0076139,0.00048459999999999476,-0.0006952999999999959,0.012871900000000006,-0.0021829999999999905,2.4000000000010124e-05,0.0731560518712655,-0.042138969581870356,0.14502539263170622,0.04885407420588361,-0.0003494104020811406,-0.0010988474213492472,-0.0013139901940906473,-0.0059223191063258185,-0.0003494104020811406,-0.0013139901940906473,1,Heel-strike,0.687067916707884
1777223675721,0.087814,0.977397,0.176066,0.0537856,-0.0716322,-0.102763,0,-5.605915637520204,3.41464,999,log_newX4.csv,0,False,0.713,79.68963268987855,0.9970032249501503,0.1363242348711336,-0.006250599999999995,-0.001422799999999988,0.0012820000000000054,0.0012890000000000956,0.0013269999999999949,0.0006130000000000024,-0.004665499999999996,0.002948400000000004,0.0101585,0.010853799999999997,0.0018200000000000022,0.004002999999999993,0.036554571456449025,-0.03660148041481648,0.20464940310237623,0.05962401047067001,0.0009197142347283638,0.0012691246368095044,-0.008740762928818119,-0.0074267727347274715,0.0009197142347283638,-0.008740762928818119,1,Heel-strike,0.687067916707884
1777223675735,0.083674,0.979442,0.17693,0.0545287,-0.052378,-0.097697,0,-5.389687366787906,3.42549,999,log_newX4.csv,0,False,0.727,79.70872605582399,0.9988053837159669,0.12353759677397809,-0.004140000000000005,0.0021105999999999903,0.0020450000000000745,0.0007630000000000692,0.0008640000000000037,-0.0004629999999999912,0.0007430999999999965,0.005408599999999993,0.019254199999999992,0.009095699999999991,0.005065999999999987,0.003245999999999985,0.019093365945437313,-0.017461205511011713,0.216228270732298,0.011578867629921774,0.001802158765816686,0.0008824445310883222,-0.012786638097155509,-0.00404587516833739,0.001802158765816686,-0.012786638097155509,1,Heel-strike,0.687067916707884
1777223675749,0.0795004,0.981765,0.177132,0.0586594,-0.0268799,-0.0923175,0,-5.1645405697333295,3.48349,999,log_newX4.csv,0,False,0.741,79.72598423145581,1.0007789837167644,0.11263203380308819,-0.0041735999999999995,-3.3599999999994745e-05,0.002322999999999964,0.00027799999999988945,0.00020200000000000773,-0.0006619999999999959,0.004130700000000001,0.0033876000000000045,0.0254981,0.006243900000000007,0.005379500000000009,0.0003135000000000221,0.017258175631823747,-0.001835190313613566,0.22514679705457663,0.00891852632227863,0.001973600000797493,0.000171441234980807,-0.010905562970889904,0.001881075126265605,0.001973600000797493,-0.010905562970889904,1,Heel-strike,0.49998788858350424
1777223675762,0.0806704,0.984972,0.180493,0.0672035,0.000933443,-0.0860279,0,-5.013590711325448,3.50407,999,log_newX4.csv,0,False,0.754,79.6962543358155,1.0046169803806622,0.1091695072192517,0.0011700000000000044,0.005343600000000004,0.00320699999999996,0.0008839999999999959,0.003360999999999975,0.0031589999999999674,0.008544099999999999,0.004413399999999998,0.027813343,0.0023152430000000015,0.006289599999999992,0.0009100999999999831,-0.029729895640315362,-0.04698807127213911,0.15094985840788144,-0.07419693864669519,0.0038379966638977248,0.0018643966631002318,-0.0034625265838364866,0.007443036387053417,0.0038379966638977248,-0.0034625265838364866,1,Heel-strike,0.49998788858350424
1777223675776,0.0832948,0.989462,0.182928,0.079578,0.0279153,-0.0851123,0,-4.937545819599347,3.48758,999,log_newX4.csv,0,False,0.768,79.6501615623453,1.0096710980983064,0.11981663352548344,0.002624399999999999,0.0014543999999999946,0.004489999999999994,0.0012830000000000341,0.0024350000000000205,-0.0009259999999999546,0.012374499999999997,0.0038303999999999977,0.026981857,-0.0008314859999999993,0.0009156000000000025,-0.00537399999999999,-0.04609277347019258,-0.01636287782987722,0.0760448917261014,-0.07490496668178004,0.005054117717644191,0.0012161210537464662,0.010647126306231741,0.014109652890068228,0.005054117717644191,0.010647126306231741,1,Heel-strike,0.49998788858350424
1777223675789,0.0884366,0.993424,0.18456,0.0946356,0.0529828,-0.0923392,0,-4.95496680255116,3.39227,999,log_newX4.csv,0,False,0.781,79.60297077427406,1.0142852999011471,0.14244157307415556,0.005141800000000002,0.002517400000000003,0.003962000000000021,-0.0005279999999999729,0.0016319999999999946,-0.0008030000000000259,0.015057600000000004,0.0026831000000000077,0.025067499999999996,-0.0019143570000000054,-0.0072268999999999944,-0.008142499999999997,-0.04719078807124788,-0.0010980146010552971,-0.017420982951813713,-0.09346587467791512,0.004614201802840778,-0.00043991591480341263,0.02262493954867212,0.011977813242440377,0.004614201802840778,0.02262493954867212,1,Heel-strike,0.49998788858350424
1777223675803,0.093319,0.999824,0.187521,0.113761,0.0769386,-0.107127,0,-5.032351113453898,3.49675,999,log_newX4.csv,0,False,0.795,79.54201936136246,1.0215285567119503,0.17417608165290663,0.004882399999999995,-0.00025940000000000685,0.006400000000000072,0.0024380000000000512,0.0029609999999999914,0.0013289999999999969,0.0191254,0.004067799999999996,0.0239558,-0.0011116999999999967,-0.014787800000000004,-0.007560900000000009,-0.06095141291159223,-0.013760624840344349,-0.07738431090273767,-0.05996332795092396,0.007243256810803178,0.0026290550079623998,0.03173450857875107,0.009109569030078951,0.007243256810803178,0.03173450857875107,1,Heel-strike,0.49998788858350424
1777223675816,0.099231,1.00857,0.190221,0.138541,0.0984285,-0.127225,0,-5.1647348283419365,3.39777,999,log_newX4.csv,0,False,0.808,79.48182718479634,1.0311373648074247,0.2122922017367807,0.005912000000000001,0.0010296000000000055,0.00874599999999992,0.002345999999999848,0.002700000000000008,-0.00026099999999998347,0.024779999999999996,0.005654599999999996,0.021489900000000006,-0.002465899999999993,-0.020098000000000005,-0.005310200000000001,-0.06019217656611886,0.0007592363454733686,-0.13238371488803846,-0.05499940398530079,0.009608808095474375,0.002365551284671197,0.03811612008387408,0.006381611505123008,0.009608808095474375,0.03811612008387408,3,Heel-off,0.3256511739265869
1777223675830,0.10475,1.01995,0.193176,0.169204,0.110777,-0.152929,0,-5.326104176037695,3.50057,999,log_newX4.csv,0,False,0.822,79.42604702045918,1.0433539821057856,0.25355239376901967,0.005518999999999996,-0.00039300000000000446,0.011379999999999946,0.002634000000000025,0.0029549999999999854,0.00025499999999997747,0.030662999999999996,0.005882999999999999,0.012348499999999998,-0.009141400000000008,-0.025704000000000005,-0.005606,-0.055780164337164706,0.004412012228954154,-0.16136934769575806,-0.028985632807719597,0.012216617298360877,0.002607809202886502,0.04126019203223896,0.003144071948364885,0.012216617298360877,0.04126019203223896,3,Heel-off,0.3256511739265869
1777223675844,0.106711,1.03679,0.197801,0.206131,0.115088,-0.182555,0,-5.44684675448822,3.39145,999,log_newX4.csv,0,False,0.836,79.36465158226811,1.0608703866269433,0.2984318430228249,0.0019610000000000044,-0.0035579999999999917,0.016840000000000188,0.0054600000000002424,0.004625000000000018,0.0016700000000000326,0.036927000000000015,0.0062640000000000196,0.004310999999999995,-0.008037500000000003,-0.029625999999999986,-0.003921999999999981,-0.061395438191070184,-0.005615273853905478,-0.1207425784505256,0.04062676924523245,0.01751640452115777,0.005299787222796892,0.044879449253805215,0.003619257221566252,0.01751640452115777,0.044879449253805215,3,Heel-off,0.3256511739265869
1777223675857,0.0930672,1.05411,0.203199,0.247361,0.119151,-0.212511,0,-5.313917021938897,3.41225,999,log_newX4.csv,0,False,0.849,79.2901893620992,1.0775431450372834,0.3471964145019358,-0.013643799999999998,-0.015604800000000002,0.017320000000000002,0.0004799999999998139,0.005397999999999986,0.0007729999999999682,0.04122999999999999,0.0043029999999999735,0.004063000000000011,-0.00024799999999998434,-0.02995600000000001,-0.0003300000000000247,-0.07446222016891113,-0.013066781977840947,0.13292973254932328,0.2536723109998489,0.016672758410340105,-0.000843646110817664,0.048764571479110896,0.0038851222253056816,0.016672758410340105,0.048764571479110896,3,Heel-off,0.3256511739265869
1777223675870,0.0713771,1.08622,0.214675,0.293908,0.133185,-0.237487,0,-4.874784941791544,3.34558,999,log_newX4.csv,0,False,0.862,79.1632793168533,1.1095286992364866,0.4006497620840427,-0.021690100000000004,-0.008046300000000006,0.03210999999999986,0.014789999999999859,0.011476000000000014,0.006078000000000028,0.046547000000000005,0.005317000000000016,0.014033999999999991,0.00997099999999998,-0.024975999999999998,0.004980000000000012,-0.1269100452458929,-0.05244782507698176,0.4391320801473526,0.30620234759802933,0.031985554199203126,0.01531279578886302,0.0534533475821069,0.004688776102996006,0.031985554199203126,0.0534533475821069,3,Heel-off,0.3256511739265869
1777223675884,0.0451135,1.12344,0.238279,0.353893,0.16455,-0.265438,0,-4.165568780270373,3.51951,999,log_newX4.csv,0,False,0.876,78.85580895110475,1.1493169899219493,0.47198971365168546,-0.026263599999999998,-0.004573499999999994,0.03722000000000003,0.00511000000000017,0.023603999999999986,0.012127999999999972,0.05998500000000001,0.013438000000000005,0.031365000000000004,0.017331000000000013,-0.027951000000000004,-0.0029750000000000054,-0.30747036574855713,-0.18056032050266424,0.7092161615211712,0.27008408137381856,0.039788290685462746,0.0078027364862596205,0.07133995156764278,0.017886603985535876,0.039788290685462746,0.07133995156764278,5,Swing,0.4322437846152736
1777223675898,0.0643268,1.25375,0.271223,0.473613,0.184402,-0.316071,0,-3.8157887975766998,3.52173,999,log_newX4.csv,0,False,0.89,78.56877513442205,1.2843632334457569,0.5985100236537396,0.019213300000000003,0.0454769,0.13030999999999993,0.0930899999999999,0.032944,0.009340000000000015,0.11972,0.05973499999999998,0.01985200000000001,-0.011512999999999995,-0.050632999999999984,-0.02268199999999998,-0.287033816682694,0.02043654906586312,0.3497799826936734,-0.3594361788274978,0.13504624352380756,0.09525795283834482,0.12652031000205416,0.05518035843441138,0.13504624352380756,0.12652031000205416,5,Swing,0.4322437846152736
1777223675911,-0.0538225,0.997201,0.214893,0.581242,0.245386,-0.44796,0,-1.9689876261777772,3.4186,999,log_newX4.csv,0,False,0.903,78.37160833849768,1.0215114768597806,0.7737730372402493,-0.11814930000000001,-0.1373626,-0.2565489999999999,-0.38685899999999984,-0.05632999999999999,-0.08927399999999999,0.10762900000000003,-0.012090999999999963,0.06098399999999998,0.041131999999999974,-0.13188900000000003,-0.08125600000000005,-0.19716679592437458,0.08986702075831943,1.8468011713989225,1.4970211887052491,-0.26285175658597626,-0.3978980001097838,0.17526301358650964,0.04874270358445548,-0.26285175658597626,0.17526301358650964,5,Swing,0.4322437846152736
1777223675925,0.0111787,1.20527,0.329771,0.677155,0.251677,-0.472944,0,-1.5755237365393826,3.46892,999,log_newX4.csv,0,False,0.917,77.37914566711103,1.2496198016495617,0.8634559823696862,0.06500120000000001,0.18315050000000002,0.20806900000000006,0.464618,0.11487799999999998,0.17120799999999997,0.09591299999999991,-0.011716000000000115,0.006290999999999991,-0.05469299999999999,-0.02498399999999995,0.10690500000000008,-0.9924626713866473,-0.7952958754622728,0.3934638896383946,-1.453337281760528,0.22810832478978105,0.4909600813757573,0.08968294512943698,-0.08558006845707267,0.22810832478978105,0.08968294512943698,5,Swing,0.4322437846152736
1777223675938,-0.0194739,1.19501,0.325854,0.805173,0.300329,-0.493496,0,-0.906548427669971,3.36581,999,log_newX4.csv,0,False,0.93,76.66817985611031,1.2387933492706562,0.9909789958349269,-0.0306526,-0.09565380000000001,-0.010260000000000158,-0.21832900000000022,-0.003917000000000004,-0.11879499999999998,0.12801800000000008,0.03210500000000016,0.04865200000000003,0.04236100000000004,-0.020552000000000015,0.004431999999999936,-0.7109658110007189,0.28149686038592847,0.6689753088694116,0.27551141923101696,-0.010826452378905449,-0.2389347771686865,0.12752301346524064,0.03784006833580367,-0.010826452378905449,0.12752301346524064,5,Swing,0.4322437846152736
1777223675952,-0.020704,1.26072,0.34774,0.929311,0.352449,-0.543982,0,-0.4166113701762844,3.38397,999,log_newX4.csv,0,False,0.944,76.10397266750823,1.3079627982538342,1.1330294120833757,-0.0012301000000000013,0.029422499999999997,0.06571000000000016,0.07597000000000032,0.021886000000000017,0.02580300000000002,0.12413799999999997,-0.0038800000000001056,0.05212,0.003467999999999971,-0.050485999999999975,-0.02993399999999996,-0.564207188602083,0.1467586223986359,0.4899370574936866,-0.179038251375725,0.069169448983178,0.07999590136208345,0.14205041624844883,0.014527402783208188,0.069169448983178,0.14205041624844883,5,Swing,0.6385820474805527
1777223675965,0.00374001,1.29569,0.368255,1.05488,0.401863,-0.61781,0,-0.34703858792999887,3.48445,999,log_newX4.csv,0,False,0.957,75.5717820231518,1.347010879243297,1.2868391046548904,0.024444010000000002,0.025674110000000003,0.034969999999999946,-0.03074000000000021,0.020515000000000005,-0.001371000000000011,0.12556900000000004,0.001431000000000071,0.04941400000000001,-0.002705999999999986,-0.073828,-0.02334200000000003,-0.532190644356433,0.032016544245649925,0.06957278224628555,-0.42036427524740105,0.039048080989462886,-0.03012136799371512,0.15380969257151467,0.011759276323065837,0.039048080989462886,0.15380969257151467,5,Swing,0.6385820474805527
1777223675979,0.0291131,1.31183,0.387546,1.18716,0.454021,-0.683505,0,-0.5826760415327953,3.49197,999,log_newX4.csv,0,False,0.971,75.02331505381275,1.3681876419583718,1.4431434506195149,0.02537309,0.0009290799999999988,0.016140000000000043,-0.018829999999999902,0.019291000000000003,-0.0012240000000000029,0.13227999999999995,0.0067109999999999115,0.05215799999999998,0.0027439999999999687,-0.06569500000000006,0.008132999999999946,-0.5484669693390458,-0.016276324982612778,-0.23563745360279642,-0.30521023584908197,0.021176762715074737,-0.017871318274388148,0.1563043459646245,0.002494653393109836,0.021176762715074737,0.1563043459646245,5,Swing,0.6385820474805527
1777223675992,0.05703,1.33586,0.386246,1.32762,0.508732,-0.739512,0,-1.0597195187035338,3.48079,999,log_newX4.csv,0,False,0.984,74.71268100046576,1.391747223103391,1.6025795176427282,0.027916899999999998,0.002543809999999997,0.024029999999999996,0.007889999999999953,-0.0013000000000000234,-0.020591000000000026,0.14046000000000003,0.008180000000000076,0.054710999999999954,0.002552999999999972,-0.05600699999999992,0.009688000000000141,-0.31063405334698757,0.23783291599205825,-0.4770434771707385,-0.24140602356794205,0.023559581145019104,0.0023828184299443667,0.15943606702321333,0.003131721058588832,0.023559581145019104,0.15943606702321333,5,Swing,0.6385820474805527
1777223676006,0.0868982,1.33831,0.37492,1.45587,0.560114,-0.790852,0,-1.7399711011138836,3.45721,999,log_newX4.csv,0,False,0.998,74.61472313309513,1.392548009823446,1.7489231074578437,0.029868199999999998,0.0019512999999999996,0.0024500000000000632,-0.021579999999999933,-0.011326000000000003,-0.01002599999999998,0.12824999999999998,-0.012210000000000054,0.05138200000000004,-0.0033289999999999154,-0.05134000000000005,0.004666999999999866,-0.0979578673706385,0.21267618597634907,-0.6802515824103499,-0.20320810523961141,0.0008007867200550134,-0.02275879442496409,0.14634358981511553,-0.013092477208097808,0.0008007867200550134,0.14634358981511553,5,Swing,0.6385820474805527
1777223676020,0.117721,1.327,0.36441,1.57682,0.594993,-0.842313,0,-2.5908291499636857,3.45512,999,log_newX4.csv,0,False,1.012,74.62274688307443,1.3811523746281582,1.8841096497863388,0.03082280000000001,0.0009546000000000138,-0.011310000000000153,-0.013760000000000217,-0.010509999999999964,0.0008160000000000389,0.12095000000000011,-0.007299999999999862,0.03487899999999999,-0.016503000000000045,-0.05146099999999998,-0.00012099999999992672,0.008023749979301442,0.10598161734993994,-0.8508580488498021,-0.1706064664394522,-0.011395635195287745,-0.012196421915342759,0.13518654232849503,-0.011157047486620497,-0.011395635195287745,0.13518654232849503,5,Swing,0.7900804521896974
1777223676033,0.13705,1.3468,0.329259,1.70593,0.621413,-0.890554,0,-3.4160049156375756,3.49218,999,log_newX4.csv,0,False,1.025,75.06562207134806,1.3932208839882496,2.02223581918257,0.019329,-0.011493800000000012,0.01980000000000004,0.031110000000000193,-0.03515099999999999,-0.024641000000000024,0.12910999999999984,0.008159999999999723,0.02642,-0.008458999999999994,-0.04824099999999998,0.0032200000000000006,0.44287518827363215,0.4348514382943307,-0.8251757656738898,0.025682283175912257,0.012068509360091406,0.02346414455537915,0.13812616939623124,0.0029396270677362057,0.012068509360091406,0.13812616939623124,5,Swing,0.7900804521896974
1777223676047,0.153993,1.29235,0.280885,1.79862,0.641826,-0.940016,0,-4.2874056083743115,3.42708,999,log_newX4.csv,0,False,1.039,75.78752590108363,1.3314573781289434,2.1285216933195676,0.016942999999999986,-0.002386000000000013,-0.05444999999999989,-0.07424999999999993,-0.04837400000000003,-0.01322300000000004,0.09269000000000016,-0.036419999999999675,0.020413000000000014,-0.006006999999999985,-0.049462000000000006,-0.0012210000000000276,0.7219038297355667,0.2790286414619345,-0.8714006927367359,-0.04622492706284609,-0.061763505859306234,-0.07383201521939764,0.10628587413699764,-0.0318402952592336,-0.061763505859306234,0.10628587413699764,5,Swing,0.7900804521896974
1777223676060,0.159598,1.2048,0.238338,1.81517,0.654028,-0.99093,0,-5.129400315290048,3.48084,999,log_newX4.csv,0,False,1.052,76.60406988850752,1.2384746924535843,2.168994471773499,0.005604999999999999,-0.011337999999999987,-0.08755000000000002,-0.03310000000000013,-0.042547,0.005827000000000027,0.016549999999999843,-0.07614000000000032,0.012202000000000046,-0.008210999999999968,-0.050914000000000015,-0.0014520000000000088,0.8165439874238984,0.09464015768833178,-0.8419947069157363,0.029405985820999625,-0.09298268567535906,-0.031219179816052822,0.04047277845393138,-0.06581309568306626,-0.09298268567535906,0.04047277845393138,5,Swing,0.7900804521896974
1777223676074,0.162696,1.12926,0.196925,1.7687,0.664362,-1.03716,0,-5.926011256337041,3.45312,999,log_newX4.csv,0,False,1.066,77.55067766945018,1.1577899600709103,2.1553137643146068,0.0030980000000000174,-0.0025069999999999815,-0.07554000000000016,0.012009999999999854,-0.041413000000000005,0.0011339999999999961,-0.04647000000000001,-0.06301999999999985,0.010333999999999954,-0.0018680000000000918,-0.046230000000000104,0.0046839999999999105,0.9466077809426565,0.13006379351875808,-0.7966109410469935,0.04538376586874282,-0.08068473238267404,0.012297953292685015,-0.013680707458892272,-0.05415348591282365,-0.08068473238267404,-0.013680707458892272,5,Swing,0.7900804521896974
1777223676088,0.127069,1.04174,0.145818,1.67694,0.700976,-1.0741,0,-6.1858858852897125,3.46518,999,log_newX4.csv,0,False,1.08,78.76127274601144,1.0595431314887565,2.1112048517791924,-0.03562700000000002,-0.03872500000000004,-0.08751999999999982,-0.011979999999999658,-0.051106999999999986,-0.00969399999999998,-0.09175999999999984,-0.04528999999999983,0.036614000000000035,0.02628000000000008,-0.03693999999999997,0.009290000000000131,1.2105950765612619,0.26398729561860534,-0.2598746289526712,0.5367363120943223,-0.09824682858215383,-0.017562096199479793,-0.04410891253541438,-0.030428205076522108,-0.09824682858215383,-0.04410891253541438,5,Swing,0.9082660433656604
1777223676101,0.0614884,0.951374,0.106528,1.53733,0.814592,-1.09107,0,-5.5075668129007385,3.74083,999,log_newX4.csv,0,False,1.093,80.07146870079289,0.9592922005283687,2.0536254284226225,-0.06558059999999999,-0.02995359999999997,-0.09036600000000006,-0.0028460000000002372,-0.039290000000000005,0.01181699999999998,-0.13961,-0.04785000000000017,0.11361599999999994,0.0770019999999999,-0.01696999999999993,0.019970000000000043,1.3101959547814488,0.09960087822018693,0.678319072388974,0.9381937013416453,-0.10025093096038773,-0.0020041023782338963,-0.05757942335656985,-0.013470510821155468,-0.10025093096038773,-0.05757942335656985,5,Swing,0.9082660433656604
1777223676115,0.0206674,0.866093,0.0734444,1.37626,0.987898,-1.05287,0,-4.387640843320505,3.39769,999,log_newX4.csv,0,False,1.107,81.4442578578516,0.8694471266058218,1.9946351252557446,-0.040820999999999996,0.024759599999999993,-0.08528100000000005,0.005085000000000006,-0.03308359999999999,0.006206400000000015,-0.16107000000000005,-0.021460000000000035,0.17330600000000007,0.05969000000000013,0.03820000000000001,0.05516999999999994,1.3727891570587047,0.06259320227725595,1.1199259695802333,0.44160689719125923,-0.08984507392254693,0.010405857037840804,-0.05899030316687792,-0.0014108798103080744,-0.08984507392254693,-0.05899030316687792,5,Swing,0.9082660433656604
1777223676128,0.0452576,0.778248,0.0450103,1.18105,1.12824,-0.935786,0,-4.099925276829773,3.48882,999,log_newX4.csv,0,False,1.12,82.86141737940589,0.7808611444859132,1.8824186670068908,0.024590200000000003,0.0654112,-0.08784499999999995,-0.0025639999999998997,-0.028434100000000004,0.004649499999999987,-0.1952100000000001,-0.03414000000000006,0.14034199999999986,-0.032964000000000215,0.11708399999999997,0.07888399999999995,1.4171595215542965,0.04437036449559173,0.28771556649073204,-0.8322104030895012,-0.08858598211990865,0.0012590918026382791,-0.11221645824885385,-0.05322615508197592,-0.08858598211990865,-0.11221645824885385,5,Swing,0.9082660433656604
1777223676142,0.10605,0.689979,0.0218995,0.944644,1.16766,-0.759236,0,-5.351760210484891,3.46612,999,log_newX4.csv,0,False,1.134,84.29882696202489,0.6984248070059152,1.6829205168492063,0.0607924,0.036202200000000004,-0.08826900000000004,-0.00042400000000009097,-0.023110800000000004,0.0053232999999999996,-0.2364059999999999,-0.04119599999999979,0.03942000000000001,-0.10092199999999985,0.17654999999999998,0.05946600000000002,1.4374095826189972,0.02025006106470073,-1.2518349336551182,-1.5395505001458503,-0.0824363374799979,0.006149644639910745,-0.19949815015768446,-0.08728169190883062,-0.0824363374799979,-0.19949815015768446,5,Swing,0.9082660433656604
1777223676156,0.160118,0.610414,0.00408615,0.683616,1.13248,-0.578969,0,-7.876659187756449,3.36568,999,log_newX4.csv,0,False,1.148,85.7354196807422,0.6310782217299394,1.443969143997544,0.054068000000000005,-0.0067243999999999984,-0.079565,0.008704000000000045,-0.01781335,0.005297450000000006,-0.26102800000000004,-0.024622000000000144,-0.03517999999999999,-0.0746,0.18026700000000007,0.0037170000000000814,1.436592718717307,-0.0008168639016901125,-2.5248989772715573,-1.273064043616439,-0.06734658527597581,0.015089752204022089,-0.23895137285166235,-0.039453222693977885,-0.06734658527597581,-0.23895137285166235,5,Swing,0.8743359543979068
1777223676169,0.183544,0.521645,-0.00896701,0.384998,1.07347,-0.424714,0,-10.984921391796753,3.50247,999,log_newX4.csv,0,False,1.161,87.153575094012,0.5530662828534569,1.2169401311075247,0.023426000000000002,-0.030642000000000003,-0.08876899999999999,-0.00920399999999999,-0.01305316,0.004760189999999999,-0.298618,-0.03758999999999996,-0.05901000000000001,-0.023830000000000018,0.15425499999999998,-0.02601200000000009,1.418155413269801,-0.01843730544750599,-3.1082622040403045,-0.5833632267687472,-0.0780119388764825,-0.010665353600506688,-0.2270290128900192,0.011922359961643147,-0.0780119388764825,-0.2270290128900192,5,Swing,0.8743359543979068
1777223676183,0.184162,0.456733,-0.0069811,0.0533888,1.02163,-0.285391,0,-13.949300297370446,3.39018,999,log_newX4.csv,0,False,1.175,88.15912749840716,0.4925133615346999,1.0620857986746834,0.0006179999999999797,-0.022808000000000023,-0.06491200000000003,0.02385699999999996,0.0019859099999999996,0.015039069999999998,-0.3316092,-0.0329912,-0.051839999999999886,0.007170000000000121,0.13932299999999997,-0.014932,1.0055524043951607,-0.4126030088746404,-2.9643789055736924,0.14388329846661208,-0.06055292131875706,0.017459017557725443,-0.1548543324328413,0.0721746804571779,-0.06055292131875706,-0.1548543324328413,5,Swing,0.8743359543979068
1777223676196,0.183958,0.415432,0.00445891,-0.28028,0.979793,-0.145027,0,-16.632973691597456,3.55751,999,log_newX4.csv,0,False,1.188,88.49032002443319,0.4543612816541349,1.029360982346815,-0.00020399999999998197,-0.0008219999999999617,-0.04130099999999998,0.02361100000000005,0.01144001,0.0094541,-0.3336688,-0.0020595999999999948,-0.04183700000000001,0.010002999999999873,0.14036400000000002,0.001041000000000042,0.33119252602602955,-0.6743598783691311,-2.683673394227011,0.28070551134668165,-0.03815207988056496,0.0224008414381921,-0.03272481632786839,0.12212951610497291,-0.03815207988056496,-0.03272481632786839,5,Swing,0.8743359543979068
1777223676210,0.199191,0.397075,0.0270348,-0.603083,0.930324,-0.00366745,0,-19.322216847719428,3.49795,999,log_newX4.csv,0,False,1.202,87.84592053293781,0.4450578507531802,1.108704333920682,0.015232999999999997,0.015436999999999979,-0.018357000000000012,0.022943999999999964,0.02257589,0.01113588,-0.32280300000000006,0.010865799999999926,-0.049468999999999985,-0.007631999999999972,0.14135955,0.000995549999999984,-0.6443994914953777,-0.9755920175214072,-2.6892431561219716,-0.005569761894960834,-0.009303430900954701,0.02884864897961026,0.07934335157386685,0.11206816790173524,-0.009303430900954701,0.07934335157386685,5,Swing,0.8743359543979068
1777223676224,0.225801,0.405523,0.0675473,-0.878435,0.860334,0.118356,0,-21.876663192736864,3.50219,999,log_newX4.csv,0,False,1.216,85.87303396534477,0.46903905260360784,1.2352452321369227,0.026609999999999995,0.011376999999999998,0.008448000000000011,0.026805000000000023,0.04051250000000001,0.017936610000000006,-0.27535199999999993,0.04745100000000013,-0.06999,-0.02052100000000001,0.12202345,-0.019336099999999995,-1.9728865675930365,-1.3284870760976588,-2.5544463450174355,0.13479681110453612,0.023981201850427625,0.033284632751382326,0.12654089821624082,0.047197546642373966,0.023981201850427625,0.12654089821624082,5,Swing,0.7166653636317936
1777223676237,0.260003,0.4135,0.107547,-1.11095,0.769731,0.214279,0,-24.428429114429594,3.46734,999,log_newX4.csv,0,False,1.229,83.04934712074103,0.5001501446745766,1.368433851050901,0.03420199999999998,0.007591999999999988,0.007976999999999956,-0.0004710000000000547,0.0399997,-0.0005128000000000077,-0.23251500000000014,0.04283699999999979,-0.09060299999999999,-0.020612999999999992,0.095923,-0.02610045000000001,-2.823686844603742,-0.8508002770107055,-2.5517659216927306,0.0026804233247048614,0.031111092070968793,0.0071298902205411685,0.13318861891397837,0.006647720697737558,0.031111092070968793,0.13318861891397837,5,Swing,0.7166653636317936
1777223676251,0.292755,0.426958,0.139445,-1.31136,0.656417,0.305258,0,-26.770046476479738,3.50412,999,log_newX4.csv,0,False,1.243,80.0407665901369,0.5361376052973713,1.4979088003122887,0.032752,-0.001449999999999979,0.013458000000000025,0.005481000000000069,0.03189800000000001,-0.00810169999999999,-0.20040999999999998,0.03210500000000016,-0.11331400000000003,-0.022711000000000037,0.09097899999999998,-0.004944000000000018,-3.008580530604135,-0.18489368600039313,-2.341617362050144,0.21014855964258672,0.035987460622794676,0.004876368551825883,0.12947494926138758,-0.0037136696525907897,0.035987460622794676,0.12947494926138758,5,Swing,0.7166653636317936
1777223676264,0.306552,0.448905,0.156008,-1.49097,0.53148,0.401455,0,-28.405516522083673,3.45932,999,log_newX4.csv,0,False,1.256,77.5540746279557,0.56553366282919,1.632981521121718,0.013797000000000004,-0.018955,0.021946999999999994,0.008488999999999969,0.016562999999999994,-0.015335000000000015,-0.17960999999999983,0.02080000000000015,-0.12493700000000008,-0.01162300000000005,0.09619700000000003,0.005218000000000056,-2.4866919621811974,0.5218885684229377,-1.6354700456039346,0.7061473164462093,0.02939605753181873,-0.006591403090975945,0.13507272080942934,0.005597771548041752,0.02939605753181873,0.13507272080942934,5,Swing,0.7166653636317936
1777223676278,0.299164,0.489772,0.170774,-1.65434,0.418116,0.495996,0,-28.829506288504536,3.48273,999,log_newX4.csv,0,False,1.27,75.72329418033002,0.598781654658858,1.7769844841956275,-0.007388000000000006,-0.02118500000000001,0.04086699999999999,0.018919999999999992,0.014766000000000001,-0.001796999999999993,-0.16337000000000002,0.01623999999999981,-0.11336399999999996,0.011573000000000111,0.09454099999999999,-0.0016560000000000463,-1.8307804476256848,0.6559115145555126,-0.4239897664208634,1.2114802791830712,0.03324799182966798,0.0038519342978492466,0.14400296307390947,0.008930242264480137,0.03324799182966798,0.14400296307390947,5,Swing,0.7166653636317936
1777223676292,0.279914,0.543044,0.189225,-1.79552,0.331051,0.583967,0,-28.05280162482907,3.4661,999,log_newX4.csv,0,False,1.284,74.39025980389776,0.6395738690385967,1.9168996562392095,-0.01924999999999999,-0.011861999999999984,0.053271999999999986,0.012405,0.018450999999999995,0.003684999999999994,-0.14118000000000008,0.022189999999999932,-0.087065,0.02629899999999996,0.08797100000000002,-0.006569999999999965,-1.333034376432252,0.4977460711934327,0.7767046636754671,1.2006944300963305,0.04079221437973868,0.0075442225500707005,0.13991517204358206,-0.0040877910303274145,0.04079221437973868,0.13991517204358206,5,Swing,0.5468231053825475
1777223676305,0.264358,0.613297,0.211228,-1.91316,0.270367,0.669781,0,-26.46442256658189,3.69166,999,log_newX4.csv,0,False,1.297,73.47316630451407,0.7004538745392161,2.044966035964901,-0.015556000000000014,0.003693999999999975,0.07025300000000001,0.016981000000000024,0.022002999999999995,0.0035519999999999996,-0.11763999999999997,0.023540000000000116,-0.06068399999999996,0.026381000000000043,0.08581399999999995,-0.0021570000000000755,-0.9170934993836966,0.41594087704855554,1.5883790582471775,0.8116743945717104,0.06088000550061945,0.02008779112088077,0.12806637972569135,-0.01184879231789071,0.06088000550061945,0.12806637972569135,5,Swing,0.5468231053825475
1777223676319,0.242423,0.696458,0.226246,-2.0112,0.235484,0.756942,0,-24.263381998774264,3.39697,999,log_newX4.csv,0,False,1.311,73.0761245517488,0.7713688541865039,2.1617907728593906,-0.021934999999999982,-0.006378999999999968,0.08316100000000004,0.01290800000000003,0.015018000000000004,-0.006984999999999991,-0.09804000000000013,0.01959999999999984,-0.034883000000000025,0.025800999999999935,0.08716100000000004,0.0013470000000000981,-0.39704175276526144,0.5200517466184351,2.2010405678076275,0.61266150956045,0.07091497964728777,0.010034974146668318,0.11682473689448969,-0.01124164283120166,0.07091497964728777,0.11682473689448969,5,Swing,0.5468231053825475
1777223676333,0.208033,0.790505,0.23684,-2.09289,0.23644,0.842516,0,-21.530938879842722,3.45151,999,log_newX4.csv,0,False,1.325,73.14240650650518,0.8510399930167795,2.268463276307554,-0.034390000000000004,-0.012455000000000022,0.09404699999999999,0.010885999999999951,0.010593999999999992,-0.004424000000000011,-0.08169000000000004,0.016350000000000087,0.0009560000000000124,0.03583900000000004,0.08557400000000004,-0.001587000000000005,0.0662819547563771,0.46332370752163854,2.732443118931542,0.5314025511239144,0.07967113883027555,0.008756159182987777,0.10667250344816326,-0.01015223344632643,0.07967113883027555,0.10667250344816326,5,Swing,0.5468231053825475
1777223676346,0.167622,0.899312,0.243207,-2.16097,0.279387,0.919526,0,-18.46977513937228,3.36701,999,log_newX4.csv,0,False,1.338,73.60834442776266,0.9465774416691959,2.3650320296657714,-0.040411,-0.006020999999999999,0.10880699999999999,0.014759999999999995,0.0063670000000000115,-0.004226999999999981,-0.0680799999999997,0.013610000000000344,0.042946999999999985,0.04199099999999997,0.07700999999999991,-0.008564000000000127,0.4659379212574777,0.3996559665011006,3.061163740470441,0.32872062153889914,0.09553744865241642,0.015866309822140878,0.09656875335821757,-0.010103750089945684,0.09553744865241642,0.09656875335821757,5,Swing,0.5468231053825475
1777223676360,0.13585,1.01501,0.240306,-2.21771,0.348179,0.988473,0,-15.484737764289006,3.45083,999,log_newX4.csv,0,False,1.352,74.43826269146594,1.0518780804998267,2.452864678670635,-0.031771999999999995,0.008639000000000008,0.11569799999999997,0.0068909999999999805,-0.0029010000000000147,-0.009268000000000026,-0.05674000000000001,0.011339999999999684,0.06879200000000002,0.025845000000000035,0.06894700000000009,-0.00806299999999982,0.8299182637032771,0.36398034244579947,2.985037375083275,-0.07612636538716622,0.10530063883063079,0.009763190178214365,0.08783264900486376,-0.008736104353353813,0.10530063883063079,0.08783264900486376,1,Heel-strike,0.6354863480121377
1777223676373,0.119782,1.12911,0.225369,-2.26481,0.426103,1.04518,0,-12.905978478046988,3.38018,999,log_newX4.csv,0,False,1.365,75.59288590261599,1.157595916451419,2.5304800602077466,-0.016068,0.015703999999999996,0.11410000000000009,-0.0015979999999998773,-0.014936999999999978,-0.012035999999999963,-0.047100000000000364,0.009639999999999649,0.077924,0.009131999999999973,0.05670699999999995,-0.01224000000000014,1.154623211150053,0.3247049474467758,2.5787592862420183,-0.4062780888412565,0.10571783595159223,0.00041719712096144335,0.07761538153711145,-0.010217267467752311,0.10571783595159223,0.07761538153711145,1,Heel-strike,0.6354863480121377
1777223676387,0.111558,1.2338,0.193966,-2.27801,0.506969,1.08074,0,-10.79827430013368,3.53173,999,log_newX4.csv,0,False,1.379,77.07138494698857,1.2539260091887399,2.571837101112938,-0.008223999999999995,0.007844000000000004,0.10468999999999995,-0.00941000000000014,-0.031403000000000014,-0.016466000000000036,-0.013199999999999878,0.033900000000000485,0.080866,0.002942,0.035560000000000036,-0.021146999999999916,1.4784990443725832,0.3238758332225302,2.107704177913307,-0.4710551083287111,0.09633009273732096,-0.009387743214271271,0.04135704090519132,-0.03625834063192013,0.09633009273732096,0.04135704090519132,1,Heel-strike,0.6354863480121377
1777223676400,0.110016,1.33622,0.152513,-2.25334,0.587779,1.08681,0,-9.14444784466518,3.40257,999,log_newX4.csv,0,False,1.392,78.80502814152064,1.349387870045155,2.5698601682856212,-0.0015420000000000017,0.0066819999999999935,0.10241999999999996,-0.0022699999999999942,-0.04145299999999999,-0.010049999999999976,0.02466999999999997,0.03786999999999985,0.08081000000000005,-5.599999999994498e-05,0.00607000000000002,-0.029490000000000016,1.733643194532064,0.2551441501594809,1.6538264554685007,-0.4538777224448065,0.09546186085641506,-0.0008682318809059009,-0.001976932827316702,-0.043333973732508024,0.09546186085641506,-0.001976932827316702,1,Heel-strike,0.6354863480121377
1777223676414,0.119133,1.41921,0.0999228,-2.18786,0.647793,1.0693,0,-7.967133748620917,3.54064,999,log_newX4.csv,0,False,1.406,80.7413929324782,1.4277024415993833,2.519874925556624,0.009117,0.010659000000000002,0.08299000000000012,-0.019429999999999836,-0.052590200000000004,-0.011137200000000014,0.06547999999999998,0.04081000000000001,0.0600139999999999,-0.020796000000000148,-0.017510000000000137,-0.023580000000000156,1.936364790957569,0.2027215964255049,1.1773140960442632,-0.47651235942423753,0.07831457155422838,-0.017147289302186675,-0.04998524272899729,-0.04800830990168059,0.07831457155422838,-0.04998524272899729,1,Heel-strike,0.6354863480121377
1777223676428,0.130651,1.48043,0.034702,-2.07893,0.676024,1.03682,0,-7.176897858934428,3.44677,999,log_newX4.csv,0,False,1.42,82.87989871602026,1.4865890143227214,2.4194945971991757,0.011517999999999987,0.0024009999999999865,0.06121999999999983,-0.02177000000000029,-0.06522080000000001,-0.012630600000000006,0.10892999999999997,0.04344999999999999,0.028231000000000006,-0.031782999999999895,-0.03247999999999984,-0.014969999999999706,2.1385057835420582,0.20214099258448925,0.790235889686489,-0.38707820635777423,0.05888657272333808,-0.019427998830890303,-0.10038032835744826,-0.050395085628450964,0.05888657272333808,-0.10038032835744826,1,Heel-strike,0.8181181329003391
1777223676441,0.14522,1.51917,-0.0390396,-1.92774,0.669396,0.994516,0,-6.712693474711885,3.36175,999,log_newX4.csv,0,False,1.433,85.20112494644782,1.5265943887189417,2.2700957219183513,0.014568999999999999,0.003051000000000012,0.03874,-0.022479999999999833,-0.07374159999999999,-0.008520799999999981,0.15119000000000016,0.042260000000000186,-0.006627999999999967,-0.03485899999999997,-0.04230400000000012,-0.009824000000000277,2.3212262304275555,0.18272044688549727,0.4642043842225432,-0.32603150546394577,0.04000537439622032,-0.018881198327117765,-0.1493988752808244,-0.04901854692337615,0.04000537439622032,-0.1493988752808244,1,Heel-strike,0.8181181329003391
1777223676455,0.159896,1.53547,-0.121916,-1.74126,0.609866,0.946575,0,-6.500310104761072,3.44564,999,log_newX4.csv,0,False,1.447,87.72401224264438,1.5485794660823833,2.073626571053959,0.014676000000000022,0.00010700000000002374,0.01629999999999998,-0.022440000000000015,-0.08287639999999999,-0.009134799999999998,0.18647999999999998,0.03528999999999982,-0.05952999999999997,-0.052902000000000005,-0.0479409999999999,-0.005636999999999781,2.522887296196558,0.20166106576900233,0.21238336995081308,-0.2518210142717301,0.021985077363441574,-0.018020297032778743,-0.1964691508643921,-0.04707027558356769,0.021985077363441574,-0.1964691508643921,1,Heel-strike,0.8181181329003391
1777223676468,0.13741,1.53404,-0.209443,-1.53393,0.52326,0.879143,0,-6.114374402069946,3.37151,999,log_newX4.csv,0,False,1.46,90.43922549331752,1.554357294816414,1.8438098293883238,-0.022486000000000006,-0.03716200000000003,-0.0014299999999998203,-0.0177299999999998,-0.087527,-0.004650600000000005,0.20733000000000001,0.020850000000000035,-0.08660600000000007,-0.0270760000000001,-0.06743200000000005,-0.019491000000000147,2.715213250673145,0.19232595447658696,0.38593570269112565,0.17355233274031256,0.0057778287340306544,-0.01620724862941092,-0.22981674166563537,-0.033347590801243276,0.0057778287340306544,-0.22981674166563537,1,Heel-strike,0.8181181329003391
1777223676482,0.0774801,1.53538,-0.280289,-1.3114,0.4568,0.781996,0,-5.230318313630681,3.46599,999,log_newX4.csv,0,False,1.474,93.11550055797116,1.5626761768891886,1.5937232959381624,-0.05992990000000001,-0.0374439,0.0013399999999998968,0.002769999999999717,-0.07084600000000002,0.016680999999999974,0.22253000000000012,0.015200000000000102,-0.06645999999999996,0.02014600000000011,-0.09714699999999998,-0.029714999999999936,2.6762750646536375,-0.03893818601950727,0.884056088439265,0.4981203857481393,0.008318882072774647,0.0025410533387439926,-0.2500865334501614,-0.020269791784526037,0.008318882072774647,-0.2500865334501614,1,Heel-strike,0.8181181329003391
1777223676495,0.0191095,1.53368,-0.339643,-1.0678,0.422995,0.662745,0,-4.005608307549476,3.38744,999,log_newX4.csv,0,False,1.487,95.64726352761687,1.5709541313606994,1.3260288628268995,-0.058370599999999995,0.0015593000000000135,-0.0017000000000000348,-0.0030399999999999316,-0.05935399999999996,0.011492000000000058,0.24359999999999982,0.0210699999999997,-0.033804999999999974,0.03265499999999999,-0.119251,-0.022104000000000013,2.531762969645712,-0.14451209500792572,1.2247100060812048,0.34065391764193986,0.008277954471510807,-4.092760126384043e-05,-0.26769443311126295,-0.017607899661101545,0.008277954471510807,-0.26769443311126295,1,Heel-strike,1.0
1777223676509,-0.00554266,1.52631,-0.377439,-0.820218,0.407661,0.547262,0,-2.868902285804345,3.45192,999,log_newX4.csv,0,False,1.501,97.87407236829121,1.5722954989126172,1.0669773920233736,-0.02465216,0.033718439999999995,-0.007369999999999877,-0.005669999999999842,-0.03779600000000005,0.02155799999999991,0.24758200000000008,0.003982000000000263,-0.015334000000000014,0.01847099999999996,-0.115483,0.0037679999999999936,2.2268088406743374,-0.3049541289713744,1.1367060217451312,-0.08800398433607359,0.001341367551917827,-0.00693658691959298,-0.25905147080352586,0.00864296230773709,0.001341367551917827,-0.25905147080352586,1,Heel-strike,1.0
1777223676523,-0.00352542,1.51898,-0.377632,-0.566492,0.393471,0.436013,0,-2.0589868506868605,3.43403,999,log_newX4.csv,0,False,1.515,99.51854910322922,1.5652215806109293,0.8159901654272557,0.0020172399999999996,0.0266694,-0.007330000000000059,3.999999999981796e-05,-0.00019299999999999873,0.03760300000000005,0.253726,0.006143999999999927,-0.01418999999999998,0.0011440000000000339,-0.11124900000000004,0.00423399999999996,1.64447673493801,-0.5823321057363273,0.8099154351174844,-0.3267905866276468,-0.007073918301687909,-0.008415285853605736,-0.25098722659611794,0.008064244207407922,-0.007073918301687909,-0.25098722659611794,1,Heel-strike,1.0
1777223676536,0.00231179,1.43284,-0.334015,-0.336047,0.384088,0.326436,0,-1.5270606426910711,3.38171,999,log_newX4.csv,0,False,1.528,100.49207111527683,1.4712585871280426,0.6058148562465269,0.005837210000000001,0.003819970000000001,-0.0861400000000001,-0.07881000000000005,0.04361700000000002,0.043810000000000016,0.230445,-0.023280999999999996,-0.00938300000000003,0.00480699999999995,-0.10957699999999998,0.0016720000000000623,0.97352201204761,-0.6709547228904,0.5319262079957894,-0.27798922712169505,-0.09396299348288673,-0.08688907518119882,-0.2101753091807288,0.04081191741538914,-0.09396299348288673,-0.2101753091807288,1,Heel-strike,1.0
1777223676550,0.131723,1.47225,0.0777845,-0.119199,0.304259,0.251674,0,-2.493821972613724,3.46551,999,log_newX4.csv,0,False,1.542,96.84052885791029,1.4801761515675254,0.41245817116163425,0.12941121,0.123574,0.03941000000000017,0.12555000000000027,0.4117995,0.36818249999999997,0.21684799999999999,-0.013597000000000026,-0.07982899999999998,-0.07044599999999995,-0.074762,0.034814999999999985,-3.6515422573665433,-4.625064269414153,-0.9667613299226527,-1.4986875379184421,0.008917564439482772,0.1028805579223695,-0.19335668508489262,0.016818624095836177,0.008917564439482772,-0.19335668508489262,1,Heel-strike,1.0
1777223676563,0.0754053,1.37038,0.163373,0.177449,0.291412,0.128545,0,-2.6649946230117147,3.3651,999,log_newX4.csv,0,False,1.555,93.15584417589221,1.3821425544411436,0.3645996686367118,-0.05631770000000001,-0.18572891000000002,-0.10187000000000013,-0.1412800000000003,0.08558849999999998,-0.32621100000000003,0.296648,0.07980000000000004,-0.012846999999999997,0.06698199999999999,-0.12312900000000002,-0.04836700000000002,-3.684684682018073,-0.03314242465152972,-0.1711726503979909,0.7955886795246618,-0.09803359712638171,-0.10695116156586448,-0.047858502524922464,0.14549818255997016,-0.09803359712638171,-0.047858502524922464,1,Heel-strike,1.0
1777223676577,0.0670452,1.34181,0.106424,0.354464,0.273441,0.0493727,0,-2.715389824449963,3.46103,999,log_newX4.csv,0,False,1.569,91.07815518836206,1.3476925475489727,0.4503913534719444,-0.008360099999999995,0.04795760000000002,-0.028569999999999984,0.07330000000000014,-0.056948999999999986,-0.14253749999999998,0.177015,-0.11963300000000002,-0.017971000000000015,-0.005124000000000017,-0.0791723,0.043956700000000015,-2.077688987530152,1.606995694487921,-0.05039520143824827,0.12077744895974263,-0.034450006892170926,0.06358359023421079,0.08579168483523264,0.1336501873601551,-0.034450006892170926,0.08579168483523264,1,Heel-strike,1.0
1777223676590,0.0591755,1.33856,0.04173,0.488428,0.222982,0.0123272,0,-2.665325836159509,3.37757,999,log_newX4.csv,0,False,1.582,90.3044846496758,1.3405170667694797,0.5370613031748238,-0.0078697,0.000490399999999995,-0.003249999999999975,0.02532000000000001,-0.064694,-0.007745000000000016,0.13396399999999997,-0.043051000000000034,-0.050458999999999976,-0.03248799999999996,-0.037045499999999995,0.042126800000000006,-0.773670538686261,1.304018448843891,0.05006398829045411,0.10045918972870238,-0.0071754807794930375,0.027274526112677888,0.08666994970287939,0.0008782648676467497,-0.0071754807794930375,0.08666994970287939,1,Heel-strike,1.0
1777223676604,0.0832596,1.26905,0.0703007,0.575954,0.178478,-0.00666121,0,-2.957801182020588,3.5339,999,log_newX4.csv,0,False,1.596,89.36563258405357,1.2737198482840135,0.603010595527694,0.024084100000000004,0.031953800000000004,-0.06950999999999996,-0.06625999999999999,0.02857069999999999,0.09326469999999999,0.08752599999999999,-0.04643799999999998,-0.044504000000000016,0.00595499999999996,-0.01898841,0.018057089999999994,-0.9388520656222283,-0.16518152693596733,-0.29247534586107893,-0.34253933415153304,-0.06679721848546616,-0.05962173770597312,0.06594929235287017,-0.02072065735000922,-0.06679721848546616,0.06594929235287017,1,Heel-strike,1.0
1777223676618,0.0864114,1.21918,0.119846,0.639644,0.11793,-0.0383882,0,-3.248751311999084,3.42523,999,log_newX4.csv,0,False,1.61,88.02030885751151,1.2281001042936035,0.6515562796376381,0.0031517999999999963,-0.020932300000000008,-0.04987000000000008,0.01963999999999988,0.0495453,0.02097460000000001,0.06369000000000002,-0.02383599999999997,-0.060548000000000005,-0.01604399999999999,-0.03172699,-0.012738579999999996,-1.3453237265420626,-0.4064716609198342,-0.290950129978496,0.0015252158825829198,-0.04561974399041002,0.021177474495056137,0.04854568410994409,-0.017403608242926083,-0.04561974399041002,0.04854568410994409,1,Heel-strike,1.0
1777223676631,0.0361936,1.17884,0.123035,0.675441,0.106392,-0.0620665,0,-2.843608340919572,3.46686,999,log_newX4.csv,0,False,1.623,86.9454461081825,1.185795654194246,0.6865799680789194,-0.0502178,-0.053369599999999996,-0.04033999999999982,0.00953000000000026,0.0031890000000000113,-0.04635629999999999,0.03579699999999997,-0.027893000000000057,-0.011537999999999993,0.04901000000000001,-0.0236783,0.008048689999999997,-1.0748627493290144,0.2704609772130482,0.405142971079512,0.696093101058008,-0.04230445009935746,0.003315293891052562,0.03502368844128134,-0.013521995668662745,-0.04230445009935746,0.03502368844128134,1,Heel-strike,1.0
1777223676645,0.0363786,1.14736,0.107337,0.696735,0.141802,-0.0125363,0,-2.563870674462316,3.33708,999,log_newX4.csv,0,False,1.637,86.32679257270972,1.1529438857580885,0.7111291206572052,0.00018499999999999767,0.0504028,-0.031480000000000175,0.008859999999999646,-0.015698000000000004,-0.018887000000000015,0.021294000000000035,-0.014502999999999933,0.03541000000000001,0.046948000000000004,0.049530199999999996,0.0732085,-0.6186535354727738,0.4562092138562406,0.27973766645725595,-0.12540530462225608,-0.03285176843615756,0.009452681663199902,0.024549152578285827,-0.010474535862995515,-0.03285176843615756,0.024549152578285827,1,Heel-strike,1.0
1777223676658,0.0731183,1.11025,0.105064,0.691592,0.175548,0.0539169,0,-2.884636625967587,3.47858,999,log_newX4.csv,0,False,1.65,85.85870699641697,1.1176044883548428,0.715558262389311,0.0367397,0.0365547,-0.037109999999999976,-0.005629999999999802,-0.0022729999999999972,0.013425000000000006,-0.005143000000000009,-0.026437000000000044,0.033746,-0.0016640000000000127,0.06645319999999999,0.016922999999999994,-0.4680855762927507,0.15056795918002308,-0.3207659515052712,-0.6005036179625272,-0.035339397403245654,-0.0024876289670880958,0.004429141732105735,-0.020120010846180092,-0.035339397403245654,0.004429141732105735,1,Heel-strike,1.0
1777223676672,0.0961372,1.08028,0.115798,0.658197,0.186086,0.0556941,0,-3.471433290299335,3.43355,999,log_newX4.csv,0,False,1.664,85.32460084224162,1.0907137188226064,0.6862602443532702,0.02301890000000001,-0.013720799999999991,-0.029970000000000052,0.007139999999999924,0.010733999999999994,0.01300699999999999,-0.03339499999999995,-0.028251999999999944,0.010537999999999992,-0.023208000000000006,0.0017772000000000066,-0.06467599999999998,-0.5341061541753476,-0.06602057788259685,-0.5867966643317479,-0.2660307128264767,-0.026890769532236458,0.008448627871009196,-0.029298018036040818,-0.03372715976814655,-0.026890769532236458,-0.029298018036040818,1,Heel-strike,1.0
1777223676685,0.118117,1.05683,0.129654,0.618129,0.187642,0.0212209,0,-4.243733034626438,3.46575,999,log_newX4.csv,0,False,1.677,84.69815970730784,1.0712849454300195,0.6463306486635227,0.021979799999999994,-0.001039100000000015,-0.02344999999999997,0.006520000000000081,0.013855999999999993,0.0031219999999999998,-0.04006799999999999,-0.00667300000000004,0.0015560000000000018,-0.00898199999999999,-0.0344732,-0.03625040000000001,-0.6264411349337848,-0.09233498075843727,-0.7722997443271034,-0.18550307999535542,-0.019428773392586862,0.007461996139649596,-0.03992959568974741,-0.010631577653706592,-0.019428773392586862,-0.03992959568974741,1,Heel-strike,1.0
1777223676699,0.141512,1.04773,0.141523,0.586888,0.200898,0.00666631,0,-5.156856009488869,3.43253,999,log_newX4.csv,0,False,1.691,84.05225012506948,1.0666735951419255,0.6203563255396176,0.023395,0.0014152000000000053,-0.009099999999999886,0.014350000000000085,0.011869000000000018,-0.001986999999999975,-0.031241000000000074,0.008826999999999918,0.01325599999999999,0.011699999999999988,-0.014554590000000001,0.019918610000000003,-0.6459095822383603,-0.01946844730457542,-0.9131229748624303,-0.14082323053532697,-0.004611350288094007,0.014817423104492855,-0.02597432312390513,0.01395527256584228,-0.004611350288094007,-0.02597432312390513,1,Heel-strike,1.0
1777223676713,0.17006,1.03192,0.146681,0.565575,0.201384,-0.0122183,0,-6.2671555298733255,3.48275,999,log_newX4.csv,0,False,1.705,83.47349643291923,1.0560750947546296,0.600483041339129,0.02854799999999999,0.005152999999999991,-0.015810000000000102,-0.006710000000000216,0.005157999999999996,-0.0067110000000000225,-0.021312999999999915,0.009928000000000159,0.0004860000000000142,-0.012769999999999976,-0.01888461,-0.004330019999999999,-0.5787536921502436,0.06715589008811662,-1.1102995203844568,-0.19717654552202646,-0.010598500387295928,-0.005987150099201921,-0.019873284200488617,0.006101038923416513,-0.010598500387295928,-0.019873284200488617,1,Heel-strike,1.0
1777223676726,0.175865,1.01851,0.148618,0.534569,0.177706,-0.0530318,0,-7.193452815128811,3.42458,999,log_newX4.csv,0,False,1.718,82.99387744674031,1.0442118694254534,0.5658231260811456,0.005805000000000005,-0.022742999999999985,-0.013409999999999922,0.0024000000000001798,0.0019369999999999943,-0.0032210000000000016,-0.03100600000000009,-0.009693000000000174,-0.023678000000000005,-0.02416400000000002,-0.040813499999999996,-0.021928889999999996,-0.4796189861789202,0.09913470597132346,-0.9262972852554858,0.18400223512897096,-0.011863225329176164,-0.0012647249418802353,-0.0346599152579834,-0.014786631057494781,-0.011863225329176164,-0.0346599152579834,1,Heel-strike,1.0
1777223676740,0.167875,1.01472,0.154127,0.507294,0.160174,-0.0933916,0,-7.759646516138484,3.46014,999,log_newX4.csv,0,False,1.732,82.55336483472726,1.039997031800572,0.5401156391575419,-0.007989999999999997,-0.013795000000000002,-0.00378999999999996,0.009619999999999962,0.005508999999999986,0.003571999999999992,-0.027274999999999938,0.003731000000000151,-0.017531999999999992,0.0061460000000000126,-0.04035980000000001,0.00045369999999998745,-0.4405126120130518,0.039106374165868374,-0.5661937010096727,0.3601035842458131,-0.004214837624881396,0.007648387704294768,-0.025707486923603695,0.008952428334379703,-0.004214837624881396,-0.025707486923603695,1,Heel-strike,1.0
1777223676753,0.152059,1.01301,0.153281,0.482885,0.158491,-0.114938,0,-7.943995282503816,3.39325,999,log_newX4.csv,0,False,1.745,82.24061633698284,1.0357636142199629,0.5210643570136034,-0.015815999999999997,-0.007826,-0.0017100000000001003,0.0020799999999998597,-0.0008459999999999857,-0.006354999999999972,-0.024409000000000014,0.002865999999999924,-0.0016830000000000178,0.015848999999999974,-0.021546399999999993,0.018813400000000015,-0.3127484977444226,0.12776411426862921,-0.18434876636533204,0.38184493464434066,-0.004233417580609133,-1.857995572773774e-05,-0.019051282143938475,0.00665620477966522,-0.004233417580609133,-0.019051282143938475,1,Heel-strike,1.0
1777223676767,0.137909,1.01113,0.150938,0.462213,0.167305,-0.121647,0,-7.873380629125432,3.44075,999,log_newX4.csv,0,False,1.759,82.04317557463887,1.0315934514259968,0.5063889937617128,-0.014149999999999996,0.0016660000000000008,-0.0018799999999998818,-0.00016999999999978144,-0.0023430000000000117,-0.001497000000000026,-0.020672000000000024,0.0037369999999999903,0.008814000000000016,0.010497000000000034,-0.006709000000000007,0.014837399999999987,-0.19744076234397312,0.11530773540044947,0.07061465337838424,0.2549634197437163,-0.004170162793966092,6.325478664304107e-05,-0.014675363251890672,0.004375918892047803,-0.004170162793966092,-0.014675363251890672,1,Heel-strike,0.8778847372755385
1777223676780,0.134471,1.00526,0.150673,0.442175,0.179548,-0.131182,0,-7.782203326552296,3.43716,999,log_newX4.csv,0,False,1.772,81.88986867088533,1.02534504941995,0.4949393215870002,-0.0034379999999999966,0.010712,-0.005870000000000042,-0.00399000000000016,-0.00026499999999998747,0.0020780000000000243,-0.020038,0.0006340000000000234,0.012243000000000004,0.0034289999999999876,-0.009534999999999988,-0.0028259999999999813,-0.1533069037535313,0.04413385859044183,0.0911773025731355,0.02056264919475126,-0.006248402006046705,-0.0020782392120806126,-0.011449672174712544,0.0032256910771781278,-0.006248402006046705,-0.011449672174712544,1,Heel-strike,0.8778847372755385
1777223676794,0.127464,1.00087,0.149091,0.425197,0.196519,-0.146252,0,-7.619340370521951,3.40995,999,log_newX4.csv,0,False,1.786,81.79195657905697,1.0199097776161379,0.4907156546045785,-0.007007000000000013,-0.0035690000000000166,-0.004390000000000116,0.0014799999999999258,-0.001582,-0.0013170000000000126,-0.016977999999999993,0.003060000000000007,0.016970999999999986,0.004727999999999982,-0.01507,-0.005535000000000012,-0.09791209182836269,0.0553948119251686,0.16286295603034517,0.07168565345720967,-0.005435271803812203,0.0008131302022345022,-0.004223666982421714,0.00722600519229083,-0.005435271803812203,-0.004223666982421714,1,Heel-strike,0.8778847372755385
1777223676807,0.117166,0.997117,0.144405,0.406862,0.214593,-0.155261,0,-7.352934172813359,3.42582,999,log_newX4.csv,0,False,1.799,81.78320776280606,1.0143091182031245,0.485482049940057,-0.010297999999999988,-0.0032909999999999745,-0.0037529999999998953,0.0006370000000002207,-0.004685999999999996,-0.0031039999999999957,-0.01833499999999999,-0.001356999999999997,0.018074000000000007,0.0011030000000000206,-0.009009000000000017,0.006060999999999983,-0.008748816250914615,0.08916327557744808,0.26640619770859253,0.10354324167824736,-0.005600659413013354,-0.0001653876092011508,-0.005233604664521496,-0.0010099376820997819,-0.005600659413013354,-0.005233604664521496,1,Heel-strike,0.8778847372755385
1777223676821,0.104043,0.99695,0.140335,0.390884,0.22926,-0.152476,0,-6.960453757739591,3.50962,999,log_newX4.csv,0,False,1.813,81.83838318357711,1.0121403858032738,0.4781206747589985,-0.01312300000000001,-0.002825000000000022,-0.00016700000000002824,0.003585999999999867,-0.004070000000000018,0.0006159999999999777,-0.015977999999999992,0.002356999999999998,0.014666999999999986,-0.003407000000000021,0.0027850000000000097,0.011794000000000027,0.0551754207710502,0.06392423702196481,0.3924804150737673,0.12607421736517477,-0.0021687323998507146,0.003431927013162639,-0.007361375181058505,-0.0021277705165370087,-0.0021687323998507146,-0.007361375181058505,1,Heel-strike,0.8778847372755385
1777223676835,0.0910728,0.997545,0.137156,0.37421,0.233874,-0.140803,0,-6.47624183395203,3.38768,999,log_newX4.csv,0,False,1.827,81.92831904969465,1.0110400834095747,0.4632015293422508,-0.012970200000000001,0.00015280000000000848,0.0005950000000000122,0.0007620000000000404,-0.0031789999999999874,0.0008910000000000307,-0.016674000000000022,-0.0006960000000000299,0.004614000000000007,-0.010052999999999979,0.011672999999999989,0.00888799999999998,0.08993586611754267,0.034760445346492475,0.4842119237875613,0.09173150871379399,-0.0011003023936990708,0.0010684300061516439,-0.014919145416747714,-0.00755777023568921,-0.0011003023936990708,-0.014919145416747714,1,Heel-strike,0.7387008145378691
1777223676848,0.0818385,0.996871,0.136648,0.357809,0.226702,-0.122896,0,-5.98284548209455,3.48473,999,log_newX4.csv,0,False,1.84,82.00028786901693,1.0095157287666447,0.441049321619476,-0.0092343,0.0037359000000000003,-0.0006740000000000634,-0.0012690000000000756,-0.0005080000000000084,0.002670999999999979,-0.016401,0.0002730000000000232,-0.007172000000000012,-0.011786000000000019,0.017907000000000006,0.006234000000000017,0.07196881932227939,-0.017967046795263286,0.49339635185747976,0.009184428069918482,-0.0015243546429299926,-0.0004240522492309218,-0.022152207722774764,-0.007233062306027049,-0.0015243546429299926,-0.022152207722774764,1,Heel-strike,0.7387008145378691
1777223676862,0.0805448,0.997669,0.134277,0.342461,0.205941,-0.0979986,0,-5.60239349278595,3.4449,999,log_newX4.csv,0,False,1.854,82.09059981565181,1.009881780753094,0.4114546847515046,-0.0012936999999999949,0.007940600000000006,0.0007980000000000764,0.0014720000000001399,-0.0023709999999999842,-0.0018629999999999758,-0.015347999999999973,0.0010530000000000261,-0.020760999999999974,-0.013588999999999962,0.0248974,0.006990399999999994,0.09031194663488407,0.01834312731260468,0.38045198930860025,-0.11294436254887952,0.000366051986449234,0.0018904066293792265,-0.029594636867971424,-0.007442429145196661,0.000366051986449234,-0.029594636867971424,1,Heel-strike,0.7387008145378691
1777223676875,0.0820919,0.995917,0.130674,0.327573,0.17817,-0.0737647,0,-5.351118078117124,3.33164,999,log_newX4.csv,0,False,1.867,82.20793896621937,1.0078022847814,0.38011820555596915,0.0015470999999999957,0.0028407999999999906,-0.0017519999999999758,-0.0025500000000000522,-0.003602999999999995,-0.0012320000000000109,-0.014888000000000012,0.00045999999999996044,-0.027771000000000018,-0.007010000000000044,0.024233900000000003,-0.0006634999999999974,0.11733915056755961,0.027027203932675548,0.2512754146688261,-0.12917657463977417,-0.002079495971693879,-0.0024455479581431128,-0.03133647919553545,-0.001741842327564025,-0.002079495971693879,-0.03133647919553545,1,Heel-strike,0.7387008145378691
1777223676889,0.0818909,0.994203,0.126259,0.312163,0.149327,-0.0548167,0,-5.167482781435923,3.45797,999,log_newX4.csv,0,False,1.881,82.35774467588854,1.0055282491271988,0.3503557650401803,-0.00020099999999999285,-0.0017480999999999886,-0.0017140000000001043,3.799999999987147e-05,-0.004415000000000002,-0.0008120000000000072,-0.01540999999999998,-0.0005219999999999669,-0.028843000000000008,-0.0010719999999999896,0.018948,-0.005285900000000003,0.14980570966916673,0.03246655910160712,0.18363529668120115,-0.06764011798762493,-0.0022740356542012563,-0.00019453968250737752,-0.029762440515788857,0.0015740386797465922,-0.0022740356542012563,-0.029762440515788857,1,Heel-strike,0.7387008145378691
1777223676902,0.0810408,0.996125,0.12249,0.30006,0.121513,-0.0389376,0,-5.018630142511546,3.36697,999,log_newX4.csv,0,False,1.894,82.52847970180662,1.006894446796505,0.32606371994252903,-0.0008501000000000064,-0.0006491000000000136,0.0019220000000000903,0.0036360000000001946,-0.0037690000000000085,0.0006459999999999938,-0.01210300000000003,0.003306999999999949,-0.02781399999999999,0.001029000000000016,0.0158791,-0.0030688999999999994,0.1707350259180771,0.020929316248910368,0.14885263892437717,-0.03478265775682399,0.001366197669306235,0.0036402333235074913,-0.02429204509765126,0.005470395418137597,0.001366197669306235,-0.02429204509765126,1,Heel-strike,0.5704372851846402
1777223676916,0.0759917,0.999113,0.118574,0.289134,0.0980422,-0.0242291,0,-4.829701452711031,3.46347,999,log_newX4.csv,0,False,1.908,82.71849586386516,1.008990247085615,0.30626425227840415,-0.005049100000000001,-0.004198999999999994,0.0029879999999999907,0.0010659999999999004,-0.003916000000000003,-0.00014699999999999436,-0.010925999999999991,0.0011770000000000391,-0.0234708,0.0043431999999999915,0.014708500000000003,-0.0011705999999999973,0.19001616205854077,0.019281136140463673,0.18892868980051425,0.04007605087613708,0.002095800289109828,0.0007296026198035932,-0.01979946766412488,0.004492577433526379,0.002095800289109828,-0.01979946766412488,1,Heel-strike,0.5704372851846402
1777223676929,0.0708358,0.999648,0.116557,0.280512,0.0829486,-0.011336,0,-4.612593283563721,3.3834,999,log_newX4.csv,0,False,1.921,82.88895314014107,1.008909990392919,0.29273871845377747,-0.005155899999999991,-0.00010679999999999024,0.0005349999999999522,-0.0024530000000000385,-0.002017000000000005,0.001898999999999998,-0.008622000000000019,0.0023039999999999727,-0.015093599999999999,0.008377200000000001,0.0128931,-0.0018154000000000035,0.17045727627591134,-0.01955888578262943,0.21710816914731002,0.028179479346795766,-8.02566926958459e-05,-0.002176056981805674,-0.013525533824626679,0.0062739338394982025,-8.02566926958459e-05,-0.013525533824626679,1,Heel-strike,0.5704372851846402
1777223676943,0.0659733,1.00291,0.111879,0.275694,0.0745819,0.00018439,0,-4.376982654857322,3.44045,999,log_newX4.csv,0,False,1.935,83.09042721611036,1.0112852491032833,0.2856040536184354,-0.004862500000000006,0.00029339999999998534,0.003261999999999987,0.002727000000000035,-0.004677999999999988,-0.002660999999999983,-0.004817999999999989,0.0038040000000000296,-0.00836669999999999,0.006726900000000008,0.01152039,-0.0013727099999999992,0.20147407596928701,0.031016799693375674,0.23561062870639926,0.018502459559089246,0.0023752587103642586,0.0024555154030601045,-0.007134664835342086,0.006390868989284593,0.0023752587103642586,-0.007134664835342086,1,Heel-strike,0.5704372851846402
1777223676956,0.0668025,1.00439,0.109329,0.272175,0.0679658,0.0108534,0,-4.2164843618577965,3.44079,999,log_newX4.csv,0,False,1.948,83.27881256257234,1.012528852106077,0.28074254555766925,0.0008292000000000022,0.005691700000000008,0.0014799999999999258,-0.0017820000000000613,-0.0025500000000000106,0.002127999999999977,-0.0035189999999999944,0.0012989999999999946,-0.0066161,0.001750599999999991,0.01066901,-0.0008513800000000005,0.18838534646198468,-0.013088729507302332,0.16049829299952556,-0.0751123357068737,0.0012436030027935807,-0.001131655707570678,-0.004861508060766129,0.0022731567745759573,0.0012436030027935807,-0.004861508060766129,1,Heel-strike,0.5704372851846402
1777223676970,0.0660747,1.0062,0.105314,0.271545,0.0605313,0.0202277,0,-4.086874764316893,3.36108,999,log_newX4.csv,0,False,1.962,83.48036951774337,1.013851736979372,0.27894423305022814,-0.0007278000000000007,-0.0015570000000000028,0.0018100000000000893,0.0003300000000001635,-0.004014999999999991,-0.0014649999999999802,-0.0006300000000000194,0.002888999999999975,-0.007434500000000004,-0.0008184000000000038,0.009374300000000002,-0.0012947099999999975,0.20155695517102856,0.01317160870904388,0.1296095975409033,-0.030888695458622273,0.001322884873295127,7.928187050154634e-05,-0.0017983125074411133,0.0030631955533250155,0.001322884873295127,-0.0017983125074411133,4,Toe-off,0.44888690367065126
1777223676983,0.0669548,1.0093,0.0988677,0.267433,0.0580127,0.0230905,0,-4.00323902540954,3.45675,999,log_newX4.csv,0,False,1.975,83.73025694185506,1.016338652884131,0.2746252975247182,0.0008800999999999948,0.0016078999999999954,0.0031000000000001027,0.0012900000000000134,-0.006446300000000002,-0.0024313000000000112,-0.0041120000000000045,-0.003481999999999985,-0.0025186000000000028,0.004915900000000001,0.0028627999999999987,-0.006511500000000003,0.24988742411169085,0.048330468940662286,0.08363573890735321,-0.04597385863355008,0.002486915904758913,0.0011640310314637858,-0.004318935525509937,-0.002520623018068824,0.002486915904758913,-0.004318935525509937,4,Toe-off,0.44888690367065126
1777223676997,0.0708396,1.01429,0.0950727,0.26851,0.0507104,0.0267739,0,-3.9963556548253614,3.36755,999,log_newX4.csv,0,False,1.989,83.97741455431972,1.0211960004394112,0.2745651224925883,0.0038848000000000077,0.003004700000000013,0.004989999999999828,0.0018899999999997252,-0.0037950000000000067,0.0026512999999999953,0.0010770000000000501,0.005189000000000055,-0.007302299999999998,-0.004783699999999995,0.0036834,0.0008206000000000012,0.24715761246466172,-0.0027298116470291234,0.00688337058417865,-0.07675236832317456,0.0048573475552802226,0.0023704316505213097,-6.017503212990549e-05,0.004258760493380032,0.0048573475552802226,-6.017503212990549e-05,4,Toe-off,0.44888690367065126
1777223677010,0.0697407,1.02099,0.0922925,0.272651,0.0432383,0.0308103,0,-3.9681120498478917,3.46508,999,log_newX4.csv,0,False,2.002,84.20903720459876,1.027522384618817,0.2777721961859754,-0.0010988999999999999,-0.004983700000000008,0.00670000000000015,0.0017100000000003224,-0.0027801999999999966,0.0010148000000000101,0.00414099999999995,0.0030639999999999,-0.007472100000000002,-0.00016980000000000467,0.004036399999999999,0.00035299999999999915,0.23162265027903572,-0.015534962185626,0.028243604977469694,0.021360234393291044,0.006326384179405897,0.0014690366241256747,0.0032070736933870747,0.00326724872551698,0.006326384179405897,0.0032070736933870747,4,Toe-off,0.44888690367065126
1777223677024,0.0711351,1.02839,0.0896213,0.278939,0.0333856,0.0319857,0,-3.9610654909816314,3.41819,999,log_newX4.csv,0,False,2.016,84.42796630738037,1.0347357981464158,0.28274484789797677,0.001394400000000004,0.002493300000000004,0.007399999999999851,0.0006999999999997009,-0.0026711999999999986,0.00010899999999999799,0.006288000000000016,0.0021470000000000655,-0.009852699999999999,-0.0023805999999999966,0.0011754,-0.002860999999999999,0.21892910278161537,-0.012693547497420354,0.007046558866260266,-0.021197046111209428,0.007213413527598744,0.0008870293481928471,0.004972651712001397,0.0017655780186143222,0.007213413527598744,0.004972651712001397,4,Toe-off,0.44888690367065126
1777223677038,0.0742438,1.04035,0.088589,0.290096,0.0200478,0.0330288,0,-3.9897601474575635,3.46021,999,log_newX4.csv,0,False,2.03,84.61838951546281,1.0467512958002203,0.292657658588119,0.003108699999999992,0.001714299999999988,0.011960000000000193,0.0045600000000003416,-0.0010322999999999999,0.0016388999999999987,0.011157000000000028,0.004869000000000012,-0.0133378,-0.0034851000000000014,0.0010430999999999982,-0.00013230000000000186,0.19042320808243574,-0.028505894699179635,-0.028694656475932057,-0.03574121534219232,0.012015497653804497,0.004802084126205752,0.009912810690142215,0.004940158978140818,0.012015497653804497,0.009912810690142215,4,Toe-off,0.6603949867682096
1777223677051,0.0753987,1.04797,0.087757,0.302026,0.00260979,0.0332874,0,-4.019781597568235,3.43329,999,log_newX4.csv,0,False,2.043,84.77908664444669,1.0543374108465895,0.3038660340982587,0.0011549000000000004,-0.0019537999999999917,0.00761999999999996,-0.0043400000000002326,-0.0008319999999999994,0.00020030000000000048,0.011929999999999996,0.0007729999999999682,-0.01743801,-0.00410021,0.00025860000000000466,-0.0007844999999999935,0.16069712898388389,-0.02972607909855185,-0.030021450110671477,-0.0013267936347394205,0.007586115046369191,-0.004429382607435306,0.011208375510139701,0.0012955648199974856,0.007586115046369191,0.011208375510139701,4,Toe-off,0.6603949867682096
1777223677065,0.0814201,1.06249,0.0868416,0.318623,-0.0187794,0.0375232,0,-4.113742533280372,3.40816,999,log_newX4.csv,0,False,2.057,84.92720909475933,1.0691378284742197,0.3213740383596659,0.006021399999999996,0.004866499999999996,0.014519999999999866,0.006899999999999906,-0.0009153999999999968,-8.339999999999737e-05,0.016596999999999973,0.004666999999999977,-0.021389190000000002,-0.003951180000000002,0.004235799999999998,0.003977199999999993,0.14812245031264126,-0.012574678671242623,-0.09396093571213715,-0.06393948560146567,0.01480041762763018,0.0072143025812609896,0.017508004261407195,0.006299628751267494,0.01480041762763018,0.017508004261407195,4,Toe-off,0.6603949867682096
1777223677078,0.0813076,1.07321,0.0878807,0.33945,-0.0432322,0.0420963,0,-4.168955929266434,3.44231,999,log_newX4.csv,0,False,2.07,85.03298131440599,1.0798674211912545,0.34477155348220073,-0.00011250000000000149,-0.006133899999999998,0.010720000000000063,-0.0037999999999998035,0.0010391000000000011,0.001954499999999998,0.020826999999999984,0.0042300000000000115,-0.024452799999999997,-0.0030636099999999944,0.0045731000000000036,0.00033730000000000565,0.10577221964665284,-0.04235023066598842,-0.0552133959860619,0.03874753972607525,0.010729592717034775,-0.004070824910595405,0.02339751512253485,0.005889510861127656,0.010729592717034775,0.02339751512253485,4,Toe-off,0.6603949867682096
1777223677092,0.085714,1.10146,0.0832493,0.378117,-0.0740548,0.0379683,0,-4.241397049771966,3.33875,999,log_newX4.csv,0,False,2.084,85.20717042618297,1.107922139568702,0.38716685149548896,0.004406400000000005,0.004518900000000006,0.02825000000000011,0.017530000000000046,-0.004631400000000008,-0.005670500000000009,0.03866700000000001,0.017840000000000023,-0.030822600000000006,-0.006369800000000009,-0.004128,-0.008701100000000003,0.17418911177698249,0.06841689213032964,-0.0724411205055322,-0.0172277245194703,0.02805471837744755,0.017325125660412777,0.04239529801328823,0.01899778289075338,0.02805471837744755,0.04239529801328823,4,Toe-off,0.6603949867682096
1777223677105,0.105658,1.14606,0.0766866,0.444754,-0.11913,0.0204443,0,-4.515406006747444,3.4559,999,log_newX4.csv,0,False,2.097,85.46778722357011,1.1534721371509415,0.46088615385850984,0.019944000000000003,0.015537599999999999,0.04459999999999997,0.016349999999999865,-0.006562700000000005,-0.001931299999999997,0.066637,0.027969999999999995,-0.045075199999999996,-0.01425259999999999,-0.017524000000000005,-0.013396000000000005,0.2606167973871436,0.08642768561016112,-0.2740089569754778,-0.20156783646994558,0.04554999758223954,0.01749527920479199,0.07371930236302088,0.03132400434973265,0.04554999758223954,0.07371930236302088,4,Toe-off,0.7857505109306241
1777223677119,0.134651,1.24447,0.0837287,0.471748,-0.136679,0.0268715,0,-4.960115845191817,3.42134,999,log_newX4.csv,0,False,2.111,85.65233598180741,1.2545305767117396,0.49188352488902287,0.02899299999999999,0.009048999999999988,0.09840999999999989,0.05380999999999991,0.0070421000000000095,0.013604800000000014,0.026994000000000018,-0.039642999999999984,-0.017548999999999995,0.0275262,0.006427200000000001,0.023951200000000006,0.18454875823729822,-0.07606803914984539,-0.44470983844437306,-0.17070088146889528,0.10105843956079807,0.05550844197855853,0.030997371030513032,-0.042721931332507845,0.10105843956079807,0.030997371030513032,4,Toe-off,0.7857505109306241
1777223677132,0.127235,1.21084,0.0780359,0.500019,-0.148658,0.0426219,0,-5.237344442205698,3.46744,999,log_newX4.csv,0,False,2.124,85.8306877855316,1.2200048575779565,0.5233878367755693,-0.007416000000000006,-0.036409,-0.03363000000000005,-0.13203999999999994,-0.005692799999999998,-0.012734900000000007,0.02827099999999999,0.0012769999999999726,-0.011979000000000017,0.005569999999999978,0.015750399999999998,0.009323199999999997,0.17835180372418336,-0.006196954513114861,-0.27722859701388103,0.16748124143049203,-0.034525719133783106,-0.13558415869458118,0.031504311886546454,0.0005069408560334221,-0.034525719133783106,0.031504311886546454,4,Toe-off,0.7857505109306241
1777223677146,0.130801,1.19161,0.0680745,0.54228,-0.158143,0.0310654,0,-5.512017841910505,3.37118,999,log_newX4.csv,0,False,2.138,86.07373733354926,1.200698726263691,0.5657224283393403,0.0035660000000000136,0.01098200000000002,-0.01922999999999986,0.01440000000000019,-0.00996140000000001,-0.004268600000000011,0.04226099999999999,0.013990000000000002,-0.009484999999999993,0.002494000000000024,-0.011556499999999997,-0.027306899999999995,0.24304954801766598,0.06469774429348263,-0.274673399704807,0.002555197309074053,-0.019306131314265507,0.0152195878195176,0.04233459156377095,0.010830279677224497,-0.019306131314265507,0.04233459156377095,4,Toe-off,0.7857505109306241
1777223677159,0.134637,1.18219,0.0603587,0.577295,-0.177308,0.0134959,0,-5.775932712147943,3.38193,999,log_newX4.csv,0,False,2.151,86.34483048878916,1.191362031682515,0.6040610757248062,0.003836000000000006,0.00026999999999999247,-0.009419999999999984,0.009809999999999874,-0.007715799999999995,0.0022456000000000143,0.03501500000000002,-0.007245999999999975,-0.019164999999999988,-0.009679999999999994,-0.017569500000000002,-0.0060130000000000045,0.2710931552398961,0.028043607222230094,-0.2639148702374383,0.01075852946736866,-0.00933669458117592,0.009969436733089587,0.038338647385465885,-0.003995944178305066,-0.00933669458117592,0.038338647385465885,4,Toe-off,0.7857505109306241
1777223677173,0.129603,1.17514,0.0518902,0.615875,-0.190619,0.00216265,0,-5.914131427977696,3.43325,999,log_newX4.csv,0,False,2.165,86.6492491172988,1.1834033758888134,0.6447032618507699,-0.005034000000000011,-0.008870000000000017,-0.007050000000000001,0.0023699999999999832,-0.008468500000000004,-0.0007527000000000089,0.03857999999999995,0.0035649999999999293,-0.013311000000000017,0.00585399999999997,-0.01133325,0.006236250000000002,0.3044186285096373,0.033325473269741224,-0.13819871582975285,0.12571615440768547,-0.007958655793701697,0.0013780387874742228,0.04064218612596371,0.0023035387404978236,-0.007958655793701697,0.04064218612596371,4,Toe-off,0.5748257480837712
1777223677187,0.121758,1.17249,0.0443446,0.662135,-0.19633,-0.00702731,0,-5.9169223224733845,3.33908,999,log_newX4.csv,0,False,2.179,86.96933197984265,1.1796288629111955,0.6906646148535743,-0.007844999999999991,-0.00281099999999998,-0.002650000000000041,0.0043999999999999595,-0.0075455999999999995,0.0009229000000000043,0.04626000000000008,0.007680000000000131,-0.005710999999999994,0.007600000000000023,-0.00918996,0.002143289999999999,0.3200828625438561,0.015664234034218794,-0.0027908944956882564,0.1354078213340646,-0.003774512977617883,0.0041841428160838134,0.04596135300280446,0.005319166876840753,-0.003774512977617883,0.04596135300280446,4,Toe-off,0.5748257480837712
1777223677200,0.119064,1.17151,0.037729,0.709159,-0.20081,-0.0232098,0,-5.885395916158605,3.42573,999,log_newX4.csv,0,False,2.192,87.28975603489165,1.1781491389620418,0.7374075116223322,-0.002694000000000002,0.005150999999999989,-0.0009799999999999809,0.0016700000000000603,-0.006615599999999999,0.0009300000000000003,0.047023999999999955,0.0007639999999998759,-0.004479999999999984,0.0012310000000000099,-0.01618249,-0.00699253,0.32042405504900273,0.0003411925051466369,0.03152640631477954,0.0343173008104678,-0.001479723949153744,0.0022947890284641392,0.04674289676875787,0.0007815437659534075,-0.001479723949153744,0.04674289676875787,4,Toe-off,0.5748257480837712
1777223677214,0.115761,1.17413,0.0317921,0.760037,-0.206616,-0.0434382,0,-5.816052065336065,3.37703,999,log_newX4.csv,0,False,2.206,87.6029255044289,1.1802510765271133,0.7888176532280701,-0.0033030000000000004,-0.0006089999999999984,0.0026199999999998447,0.0035999999999998256,-0.005936900000000002,0.0006786999999999974,0.05087799999999998,0.003854000000000024,-0.005806000000000006,-0.0013260000000000216,-0.020228400000000004,-0.004045910000000003,0.3131694695372431,-0.007254585511759615,0.06934385082254035,0.03781744450776081,0.0021019375650714878,0.0035816615142252317,0.05141014160573787,0.00466724483698,0.0021019375650714878,0.05141014160573787,4,Toe-off,0.5748257480837712
1777223677227,0.109096,1.17657,0.0256725,0.816557,-0.20858,-0.0645954,0,-5.675632245608435,3.40481,999,log_newX4.csv,0,False,2.219,87.91281939052512,1.181895925778683,0.8452476065332335,-0.006665000000000004,-0.003362000000000004,0.0024399999999999977,-0.00017999999999984695,-0.006119599999999996,-0.00018269999999999398,0.056520000000000015,0.005642000000000036,-0.0019639999999999935,0.003842000000000012,-0.021157199999999994,-0.00092879999999999,0.30989388609621926,-0.003275583441023855,0.1404198197276294,0.07107596890508905,0.0016448492515697133,-0.0004570883135017745,0.05642995330516343,0.005019811699425558,0.0016448492515697133,0.05642995330516343,4,Toe-off,0.5748257480837712
1777223677241,0.109294,1.18354,0.0197801,0.880986,-0.207811,-0.0853817,0,-5.567475378196932,3.42218,999,log_newX4.csv,0,False,2.233,88.21801619866669,1.18874024176521,0.9091819282255285,0.00019800000000000373,0.006863000000000008,0.006970000000000143,0.004530000000000145,-0.0058924000000000025,0.00022719999999999338,0.06442900000000007,0.007909000000000055,0.0007689999999999919,0.0027329999999999854,-0.020786300000000008,0.0003708999999999865,0.3051968081415737,-0.004697077954645579,0.10815686741150277,-0.032262952316126636,0.0068443159865270164,0.005199466734957303,0.06393432169229496,0.0075043683871315325,0.0068443159865270164,0.06393432169229496,4,Toe-off,0.44132476824812283
1777223677254,0.116447,1.19178,0.0151146,0.951305,-0.213456,-0.105553,0,-5.570892180699962,3.41568,999,log_newX4.csv,0,False,2.246,88.50313264485514,1.1975508019880243,0.9806559553533543,0.007152999999999993,0.006954999999999989,0.008240000000000025,0.0012699999999998823,-0.004665499999999998,0.0012269000000000047,0.07031899999999991,0.00588999999999984,-0.005645000000000011,-0.006414000000000003,-0.02017129999999999,0.0006150000000000183,0.28511644618845366,-0.02008036195312002,-0.003416802503029892,-0.11157366991453266,0.008810560222814345,0.001966244236287329,0.0714740271278258,0.007539705435530841,0.008810560222814345,0.0714740271278258,4,Toe-off,0.44132476824812283
1777223677268,0.138582,1.19955,0.0144741,1.02983,-0.233389,-0.124959,0,-5.846100999139161,3.42634,999,log_newX4.csv,0,False,2.26,88.7207581378373,1.2076152834387324,1.0633132209758327,0.022135000000000016,0.014982000000000023,0.007769999999999833,-0.0004700000000001925,-0.0006405000000000004,0.004024999999999997,0.07852500000000007,0.008206000000000158,-0.019933000000000006,-0.014287999999999995,-0.019406000000000007,0.0007652999999999827,0.21762549298215106,-0.0674909532063026,-0.2752088184391983,-0.2717920159361684,0.01006448145070804,0.001253921227893695,0.08265726562247844,0.011183238494652636,0.01006448145070804,0.08265726562247844,4,Toe-off,0.44132476824812283
1777223677281,0.164299,1.22309,0.0190011,1.11206,-0.278638,-0.141677,0,-6.333406332475802,3.3751,999,log_newX4.csv,0,False,2.273,88.82590426864147,1.2342221644834492,1.155157543789158,0.02571699999999999,0.003581999999999974,0.023540000000000116,0.015770000000000284,0.004527,0.0051675,0.08223000000000003,0.0037049999999999583,-0.045248999999999984,-0.025315999999999977,-0.016717999999999997,0.00268800000000001,0.10514613080417234,-0.11247936217797871,-0.48730533333664106,-0.21209651489744274,0.026606881044716868,0.016542399594008828,0.09184432281332522,0.009187057190846781,0.026606881044716868,0.09184432281332522,4,Toe-off,0.44132476824812283
1777223677295,0.182541,1.26321,0.0433926,1.20883,-0.336842,-0.163166,0,-6.842504366733903,3.35603,999,log_newX4.csv,0,False,2.287,88.6115889895363,1.2770683766015662,1.2654468165118598,0.018242000000000008,-0.007474999999999982,0.040119999999999933,0.016579999999999817,0.024391500000000003,0.019864500000000004,0.09677000000000002,0.014539999999999997,-0.05820399999999998,-0.012954999999999994,-0.021489000000000008,-0.004771000000000011,-0.2143152791051648,-0.31946140990933714,-0.5090980342581011,-0.021792700921460018,0.04284621211811701,0.016239331073400143,0.11028927272270184,0.018444949909376618,0.04284621211811701,0.11028927272270184,4,Toe-off,0.44132476824812283
1777223677308,0.226176,1.3096,0.0677549,1.32476,-0.412534,-0.189648,0,-7.637664737627301,3.43512,999,log_newX4.csv,0,False,2.3,88.18656152972994,1.3307135189250954,1.4004069846512477,0.04363499999999998,0.02539299999999997,0.04639000000000015,0.00627000000000022,0.024362300000000003,-2.920000000000006e-05,0.11592999999999987,0.019159999999999844,-0.07569200000000004,-0.01748800000000006,-0.026482000000000006,-0.0049929999999999974,-0.42502745980635837,-0.21071218070119357,-0.7951603708933979,-0.2860623366352968,0.05364514232352913,0.010798930205412116,0.13496016813938794,0.0246708954166861,0.05364514232352913,0.13496016813938794,5,Swing,0.325976042851655
1777223677322,0.287931,1.34717,0.11059,1.45038,-0.524313,-0.219694,0,-8.822946658951915,3.41919,999,log_newX4.csv,0,False,2.314,87.40865105741707,1.3820280090363581,1.5578099113836066,0.061755000000000004,0.018120000000000025,0.03756999999999988,-0.008820000000000272,0.04283509999999999,0.018472799999999984,0.12562000000000006,0.009690000000000198,-0.11177900000000002,-0.03608699999999998,-0.03004599999999999,-0.003563999999999984,-0.7779104723128683,-0.3528830125065099,-1.1852819213246146,-0.39012155043121677,0.05131449011126277,-0.0023306522122663598,0.1574029267323589,0.022442758592970957,0.05131449011126277,0.1574029267323589,5,Swing,0.325976042851655
1777223677335,0.350268,1.38716,0.174194,1.58971,-0.671278,-0.258206,0,-10.23921104153179,3.42108,999,log_newX4.csv,0,False,2.327,86.17507468505855,1.4412647525905848,1.7448387821859073,0.06233700000000003,0.0005820000000000269,0.03998999999999997,0.0024200000000000887,0.063604,0.020768900000000007,0.13932999999999995,0.013709999999999889,-0.146965,-0.035185999999999995,-0.03851199999999999,-0.008466000000000001,-1.2335763723585274,-0.4556659000456591,-1.4162643825798753,-0.23098246125526067,0.0592367435542267,0.007922253442963934,0.18702887080230068,0.02962594406994179,0.0592367435542267,0.18702887080230068,5,Swing,0.325976042851655
1777223677349,0.398213,1.39891,0.252548,1.73105,-0.847401,-0.300719,0,-11.700756273550915,3.40686,999,log_newX4.csv,0,False,2.341,84.44375979286049,1.4762463458965784,1.9506548834332536,0.04794499999999996,-0.014392000000000071,0.01175000000000015,-0.02823999999999982,0.07835400000000001,0.014750000000000013,0.14134000000000002,0.0020100000000000673,-0.17612299999999992,-0.029157999999999906,-0.04251300000000002,-0.004001000000000032,-1.731314892198057,-0.49773851983952966,-1.461545232019125,-0.04528084943924959,0.0349815933059936,-0.024255150248233104,0.20581610124734628,0.0187872304450456,0.0349815933059936,0.20581610124734628,5,Swing,0.325976042851655
1777223677362,0.399272,1.38218,0.352587,1.85734,-1.01422,-0.354263,0,-12.764246135331394,3.42969,999,log_newX4.csv,0,False,2.354,82.07870040626287,1.48126880577193,2.1456598885119234,0.0010590000000000321,-0.04688599999999993,-0.016730000000000134,-0.028480000000000283,0.10003899999999999,0.021684999999999982,0.12629,-0.015050000000000008,-0.16681899999999994,0.009303999999999979,-0.05354399999999998,-0.011030999999999958,-2.365059386597622,-0.6337444943995649,-1.0634898617804787,0.39805537023864623,0.005022459875351659,-0.029959133430641938,0.1950050050786698,-0.010811096168676482,0.005022459875351659,0.1950050050786698,5,Swing,0.325976042851655
1777223677376,0.317382,1.33797,0.410168,1.96467,-1.11022,-0.434557,0,-12.768009821694028,3.39129,999,log_newX4.csv,0,False,2.368,79.61429714538185,1.4349678892044937,2.2981201978027603,-0.08189000000000002,-0.08294900000000005,-0.04420999999999986,-0.027479999999999727,0.05758099999999999,-0.042457999999999996,0.10732999999999993,-0.018960000000000088,-0.09600000000000009,0.07081899999999985,-0.08029400000000003,-0.02675000000000005,-2.4644032608810136,-0.09934387428339164,-0.003763686362633578,1.059726175417845,-0.0463009165674364,-0.05132337644278806,0.15246030929083698,-0.04254469578783282,-0.0463009165674364,0.15246030929083698,5,Swing,0.5500400881150834
1777223677389,0.161898,1.37695,0.387678,2.0541,-1.14057,-0.5325,0,-11.063075921021406,3.33595,999,log_newX4.csv,0,False,2.381,78.17199395347329,1.4396167881030006,2.4091041872239565,-0.155484,-0.07359399999999999,0.03897999999999979,0.08318999999999965,-0.022489999999999954,-0.08007099999999995,0.08943000000000012,-0.017899999999999805,-0.0303500000000001,0.06564999999999999,-0.09794299999999995,-0.017648999999999915,-1.4423031919085645,1.022100068972449,1.7049339006726214,1.708697587035255,0.004648898898506948,0.05094981546594335,0.11098398942119614,-0.04147631986964084,0.004648898898506948,0.11098398942119614,5,Swing,0.5500400881150834
1777223677403,-0.0238328,1.45429,0.247316,2.12864,-0.98602,-0.665226,0,-7.824263704274956,3.42325,999,log_newX4.csv,0,False,2.395,78.76002701906322,1.475361857413916,2.4384153298968574,-0.18573079999999997,-0.030246799999999963,0.07734000000000019,0.038360000000000394,-0.14036200000000001,-0.11787200000000006,0.07453999999999983,-0.014890000000000292,0.15455000000000008,0.18490000000000018,-0.132726,-0.034783000000000064,0.5880330655899257,2.0303362574984902,3.2388122167464504,1.533878316073829,0.03574506931091537,0.03109617041240842,0.029311142672900914,-0.08167284674829522,0.03574506931091537,0.029311142672900914,5,Swing,0.5500400881150834
1777223677416,0.0314578,1.41041,0.0948876,2.19075,-0.888973,-0.753006,0,-6.054894320115137,3.43503,999,log_newX4.csv,0,False,2.408,80.75678052989608,1.4139482373533339,2.481265119503557,0.0552906,0.24102139999999997,-0.04388000000000014,-0.12122000000000033,-0.15242840000000002,-0.012066400000000005,0.06211000000000011,-0.012429999999999719,0.097047,-0.05750300000000008,-0.08777999999999997,0.04494600000000004,1.9967535108328605,1.4087204452429347,1.7693693841598188,-1.4694428325866316,-0.06141362006058215,-0.09715868937149752,0.042849789606699495,0.013538646933798582,-0.06141362006058215,0.042849789606699495,5,Swing,0.5500400881150834
