timestamp,ax,ay,az,gx,gy,gz,roll_k,pitch_k,delay_ms,classe_prevista
1774536636867,0.0251447,0.947199,-0.460661,-0.486119,-1.45076,-1.45076,0,0,3.34721,-1
1774536636882,0.0275877,0.940918,-0.453614,-0.397388,-1.37443,-1.87575,0,0,5.2747,-1
1774536636895,0.0217289,0.942871,-0.45459,-0.0627337,-1.25251,-2.00698,0,0,3.28108,-1
1774536636909,0.0219726,0.95166,-0.454346,-0.137035,-1.54815,-1.75697,0,0,3.39375,-1
1774536636922,0.0190432,0.942872,-0.455322,-0.152594,-1.59519,-1.28479,0,0,3.26293,-1
1774536636936,0.0227048,0.943848,-0.455322,-0.585632,-1.40552,-0.659599,0,0,4.00825,-1
1774536636950,0.0136725,0.941162,-0.460449,-0.564988,-0.865283,0.262587,0,0,3.24295,-1
1774536636963,0.0175779,0.934571,-0.45752,-1.0738,-0.558777,0.586176,0,0,3.25327,-1
1774536636977,0.0290519,0.938476,-0.449952,-1.09151,-0.747154,0.564991,0,0,3.2494,-1
1774536636991,0.0234379,0.945068,-0.465331,-1.38784,-0.983557,0.595269,0,0,3.35607,0
1774536637004,0.0249022,0.942871,-0.458985,-1.82986,-0.749257,0.663781,0,0,3.34979,0
1774536637018,0.016358,0.933594,-0.444581,-2.12069,-0.86963,0.732483,0,0,3.35001,0
1774536637032,0.0280754,0.947265,-0.447998,-2.64624,-0.86263,0.84676,0,0,3.38068,0
1774536637045,0.01587,0.944336,-0.444824,-2.46654,-0.892979,0.710601,0,0,3.29629,5
1774536637059,0.0241693,0.958007,-0.448486,-2.1922,-1.10581,0.375712,0,0,3.73062,5
1774536637072,0.0273435,0.960449,-0.444336,-1.33252,-1.31195,0.100605,0,0,3.32599,5
1774536637088,0.0363763,0.968749,-0.440918,-0.135725,-1.45729,-0.440058,0,0,3.36647,5
1774536637102,0.0214854,0.942873,-0.446045,0.455076,-1.26052,-1.01242,0,0,3.3556,5
1774536637116,0.0239256,0.954101,-0.452148,0.890961,-1.20638,-1.31908,0,0,3.29916,5
1774536637129,0.0251464,0.947266,-0.455322,0.779182,-1.09217,-1.47252,0,0,3.29436,5
1774536637143,0.0244141,0.946045,-0.458008,0.733054,-1.14478,-1.54924,0,0,3.30684,5
1774536637156,0.012452,0.937256,-0.451661,0.535335,-1.31974,-1.26857,0,0,3.32118,5
1774536637170,0.00903344,0.940918,-0.446534,0.245716,-1.39656,-1.08488,0,0,3.27729,5
1774536637183,0.0180658,0.947998,-0.452148,0.0467912,-1.54126,-0.33199,0,0,3.25632,5
1774536637197,0.0200194,0.942139,-0.446045,0.159743,-1.35968,0.150272,0,0,3.27666,5
1774536637210,0.0227049,0.948974,-0.44873,-0.234679,-1.1385,0.137468,0,0,3.2569,5
1774536637224,0.0209962,0.948242,-0.455322,0.0899878,-1.28933,-0.00691524,0,0,3.28994,5
1774536637237,0.0156254,0.943848,-0.454834,0.319469,-1.14575,0.144286,0,0,3.25632,5
1774536637252,0.0212398,0.9375,-0.448975,0.411755,-1.0387,0.464058,0,0,4.84887,5
1774536637265,0.016846,0.942871,-0.455566,0.100784,-0.779913,0.982155,0,0,3.28114,5
1774536637279,0.00781313,0.950195,-0.456055,-0.409674,-0.573546,1.59998,0,0,3.94633,5
1774536637293,0.0217275,0.943604,-0.446046,-0.488159,-0.564928,1.81572,0,0,3.2904,5
1774536637306,0.0197755,0.940918,-0.452636,-0.663251,-0.587673,2.04466,0,0,3.24636,5
1774536637320,0.0136723,0.955077,-0.454101,-0.603351,-0.709318,2.24329,0,0,3.28266,5
1774536637333,0.0185543,0.941407,-0.443604,-0.686609,-0.474451,2.50253,0,0,3.26042,5
1774536637348,0.0217283,0.946045,-0.442871,-0.626254,-0.306181,2.876,0,0,3.28955,5
1774536637361,0.0212403,0.943848,-0.44873,-0.124633,-0.533222,2.81709,0,0,3.38375,5
1774536637376,0.0253903,0.94873,-0.448975,-0.479152,-0.390025,3.18899,0,0,4.85389,5
1774536637390,0.0170904,0.953369,-0.452148,-0.564461,-0.123464,3.54024,0,0,3.2592,5
1774536637404,0.0185546,0.944092,-0.452148,-0.397776,-0.350018,4.24079,0,0,3.84744,5
1774536637417,0.0236813,0.95288,-0.443116,-0.427334,-0.0093286,4.70001,0,0,3.2716,5
1774536637430,0.024414,0.943116,-0.452148,-0.28316,0.167061,4.71747,0,0,3.25408,5
1774536637444,0.0278318,0.950683,-0.450928,-0.183701,0.243893,4.66439,0,0,3.27836,5
1774536637457,0.0268555,0.948242,-0.451172,-0.107251,0.0467822,4.3451,0,0,3.25777,5
1774536637472,0.0366204,0.960448,-0.445557,-0.0992763,0.197722,3.91056,0,0,3.28312,5
1774536637485,0.0327151,0.958984,-0.448974,0.0906581,0.0769368,3.36911,0,0,3.25181,5
1774536637500,0.0346678,0.947755,-0.452148,0.296685,0.0611473,2.97904,0,0,4.91175,5
1774536637514,0.0280766,0.941895,-0.452148,-0.0744892,-0.12123,3.02268,0,0,3.25516,5
1774536637528,0.0285644,0.945556,-0.448975,-0.478904,0.174103,3.63056,0,0,3.81134,5
1774536637541,0.0195319,0.945313,-0.44336,-0.541672,0.555355,4.68939,0,0,3.2734,5
1774536637554,0.0195313,0.954833,-0.441895,-0.587558,0.747137,5.75804,0,0,3.25245,5
1774536637568,0.0231931,0.939454,-0.450439,-0.656147,0.77847,6.32542,0,0,3.29658,5
1774536637581,0.0346672,0.946289,-0.453613,-0.54255,0.96852,6.42698,0,0,3.25556,5
1774536637596,0.0300296,0.945313,-0.452637,-0.800245,0.794758,6.32114,0,0,3.28493,5
1774536637609,0.0441885,0.944824,-0.44336,-0.467305,0.839472,6.32061,0,0,3.2781,5
1774536637624,0.0380864,0.953857,-0.448242,-0.00231345,0.892864,6.01678,0,0,4.91953,5
1774536637638,0.0468744,0.954834,-0.441895,0.721589,0.786787,5.48357,0,0,3.28018,5
1774536637652,0.0505369,0.949219,-0.44458,1.08218,0.398877,4.47828,0,0,3.97846,5
1774536637666,0.0529783,0.955322,-0.449218,1.88152,-0.225899,3.34153,0,0,3.69299,5
1774536637679,0.0541991,0.948243,-0.446289,2.49314,-0.380908,3.03967,0,0,3.24899,5
1774536637693,0.0395518,0.951172,-0.446533,2.73164,-0.0626521,3.15211,0,0,3.2811,5
1774536637706,0.0556629,0.947754,-0.450683,3.31769,-0.326929,2.46145,0,0,3.26368,5
1774536637720,0.0532228,0.943604,-0.446778,3.59404,-0.525728,1.78201,0,0,3.28282,5
1774536637733,0.0510255,0.936524,-0.457519,3.12447,-0.564692,0.98868,0,0,3.2521,5
1774536637747,0.0424811,0.937988,-0.461181,2.8487,-0.709205,0.574579,0,0,3.3054,5
1774536637760,0.0473629,0.94165,-0.449708,2.88531,-0.694729,0.792807,0,0,3.2751,5
1774536637774,0.0429691,0.952392,-0.457519,2.94626,-0.497166,0.854654,0,0,3.27058,5
1774536637787,0.0449217,0.927736,-0.459717,2.55918,-0.693679,0.589107,0,0,3.28657,5
1774536637801,0.0419924,0.93872,-0.460449,1.95719,-0.406011,0.914412,0,0,3.27745,5
1774536637814,0.0402833,0.941894,-0.463623,1.67317,-0.275459,1.1439,0,0,3.29038,5
1774536637828,0.0422362,0.941895,-0.461182,1.39072,-0.472303,1.37291,0,0,3.25536,5
1774536637841,0.0434569,0.934083,-0.456299,1.15385,-0.511257,1.85258,0,0,3.27827,5
1774536637855,0.0480954,0.946532,-0.448975,0.955187,-0.32915,2.23474,0,0,3.27658,5
1774536637869,0.0422367,0.952636,-0.459228,1.00737,-0.472569,2.4721,0,0,3.89981,5
1774536637882,0.0500483,0.937013,-0.448487,0.65063,-0.442896,2.54164,0,0,3.28125,5
1774536637895,0.0490723,0.947021,-0.453125,0.610885,-0.723793,2.42045,0,0,3.25836,5
1774536637909,0.048584,0.944092,-0.459472,0.557517,-0.459331,2.57177,0,0,3.28958,5
1774536637922,0.046631,0.944824,-0.458252,0.0863138,-0.518788,2.99788,0,0,3.25555,5
1774536637937,0.0515133,0.951904,-0.45459,0.471367,-0.815319,2.56703,0,0,4.87666,5
1774536637951,0.0502931,0.934083,-0.459716,0.670764,-1.11302,1.73695,0,0,3.25881,5
1774536637965,0.0559078,0.939697,-0.461914,0.535026,-1.16007,1.2695,0,0,3.82683,5
1774536637980,0.0517581,0.953368,-0.460693,1.13442,-1.24386,1.16085,0,0,3.27673,5
1774536637994,0.038331,0.939454,-0.458984,1.23614,-0.674588,1.77557,0,0,3.90334,5
1774536638007,0.0429684,0.943847,-0.459717,1.44173,-0.132468,2.14321,0,0,3.27916,5
1774536638020,0.0515131,0.93628,-0.45752,1.24525,0.287984,2.06148,0,0,3.24429,5
1774536638034,0.0610345,0.940429,-0.459961,1.16832,0.191321,1.461,0,0,3.27868,5
1774536638047,0.0605469,0.934571,-0.462402,0.871705,-0.310481,0.804792,0,0,3.25382,5
1774536638062,0.052979,0.936279,-0.458008,0.832257,-0.669967,0.740777,0,0,3.29218,5
1774536638075,0.0585934,0.942627,-0.463379,0.0345034,-1.86429,-0.0115243,0,0,3.26971,5
1774536638089,0.0490729,0.943359,-0.468017,0.068533,-0.973896,0.0303261,0,0,3.73399,5
1774536638103,0.0441898,0.950683,-0.458009,-0.166768,-0.825167,0.440706,0,0,3.26853,5
1774536638116,0.0419923,0.942628,-0.452393,-0.403403,-0.588961,0.731378,0,0,3.2536,5
1774536638130,0.0505365,0.948242,-0.465575,-0.184296,-0.397897,1.13539,0,0,3.34306,5
1774536638145,0.0527342,0.964598,-0.459717,0.515602,-0.176673,1.04625,0,0,5.01762,5
1774536638158,0.0466313,0.964844,-0.467285,1.19509,0.295361,1.64587,0,0,3.28753,5
1774536638172,0.0395513,0.969238,-0.464112,2.0188,1.36871,2.55274,0,0,3.45077,5
1774536638185,0.0698221,1.00732,-0.463379,2.96476,1.78419,3.05855,0,0,3.29618,5
1774536638199,0.0959454,1.00781,-0.467529,5.7495,0.806392,1.49632,0,0,3.25594,5
1774536638212,0.0766615,1.04028,-0.463867,10.1689,0.117929,-1.87635,0,0,3.27436,5
1774536638226,-0.048087,1.1914,-0.436525,17.1333,2.6743,3.24931,0,0,3.27438,5
1774536638239,0.148424,1.41283,-0.676009,22.143,2.30717,-2.56648,0,0,3.27318,5
1774536638252,0.31078,2.11494,-0.490492,108.562,-5.1917,30.3705,0,0,3.28503,5
1774536638266,0.304444,2.96405,-0.598137,132.803,-31.0697,8.13354,0,0,3.24955,5
1774536638279,0.3291,1.80184,-0.458506,161.863,-38.1708,0.708696,0,0,3.28838,5
1774536638293,0.39233,1.72437,-0.424075,176.674,-47.5108,-6.21745,0,0,4.26885,5
1774536638308,0.392822,1.62818,-0.376224,199.224,-58.6317,-29.3657,0,0,4.74677,5
1774536638322,0.165055,1.50025,-0.425778,202.936,-64.1557,-74.2576,0,0,3.27195,5
1774536638335,-0.258759,0.683407,-0.217056,189.623,-37.6661,-106.595,0,0,3.31943,5
1774536638349,-0.0710581,0.408222,-0.0590931,116.782,4.59129,-55.7264,0,0,3.27371,5
1774536638362,0.0742086,0.427001,0.0207464,61.4736,38.0701,-7.71976,0,0,3.24894,5
1774536638376,0.0646979,0.899625,-0.0493115,41.1545,53.04,1.92909,0,0,3.31121,5
1774536638389,0.0263699,0.836674,-0.0705552,38.4258,59.2363,-5.27712,0,0,3.25312,5
1774536638402,0.0368645,0.644056,-0.0227084,29.3505,63.1713,-6.80917,0,0,3.29862,5
1774536638416,0.0725073,0.474377,0.034664,10.3692,67.4976,-2.77579,0,0,3.25475,5
1774536638429,0.130123,0.431155,0.0593244,-11.7373,67.4202,0.95852,0,0,3.28801,3
1774536638442,0.147704,0.400149,0.0864239,-33.8062,61.8901,2.81519,0,0,3.27158,3
1774536638456,0.132081,0.353275,0.105467,-56.2623,55.0113,6.85775,0,0,3.92116,3
1774536638470,0.106203,0.400631,0.102783,-78.6064,49.1665,8.26779,0,0,3.28371,3
1774536638483,0.0590853,0.401611,0.116942,-98.1471,45.8334,7.49241,0,0,3.28021,3
1774536638497,0.0588379,0.471187,0.0898456,-115.274,42.4975,5.31617,0,0,3.28297,3
1774536638510,0.0700676,0.532711,0.0598166,-129.616,39.2832,3.04185,0,0,3.2554,5
1774536638525,0.108396,0.576413,0.0397963,-144.757,36.3581,5.50682,0,0,4.89744,5
1774536638539,0.147702,0.650385,0.00561763,-157.775,34.4902,10.8665,0,0,3.25579,5
1774536638552,0.130372,0.73974,-0.0310033,-168.344,32.7795,15.0251,0,0,3.28593,5
1774536638565,0.0856965,0.853752,-0.0693333,-175.787,33.6597,17.6738,0,0,3.26545,5
1774536638579,0.0212447,0.941644,-0.126949,-181.665,37.9177,17.6718,0,0,3.26997,5
1774536638592,-0.0236785,1.02831,-0.166745,-186.951,45.2688,16.2589,0,0,3.26168,5
1774536638606,-0.0292965,1.09375,-0.204099,-194.36,54.3669,12.6363,0,0,3.25997,5
1774536638619,-0.0451649,1.12573,-0.207275,-206.801,64.7423,8.05334,0,0,3.24575,5
1774536638632,0.00146158,1.29125,-0.224364,-217.876,74.0225,0.313318,0,0,3.24992,5
1774536638646,0.0837345,1.49022,-0.276364,-221.63,79.7805,-7.53348,0,0,3.26582,5
1774536638659,0.146968,1.59789,-0.353754,-219.492,81.9131,-13.8616,0,0,3.2791,5
1774536638672,0.250969,1.60889,-0.444818,-217.309,78.703,-20.2734,0,0,3.28855,5
1774536638686,0.378897,1.62231,-0.532709,-213.857,68.5999,-30.2861,0,0,3.28638,5
1774536638699,0.481438,1.69091,-0.650382,-202.803,55.8649,-32.1966,0,0,3.25562,5
1774536638712,0.517576,1.64795,-0.723139,-184.693,42.9877,-24.5115,0,0,3.26736,5
1774536638726,0.470951,1.56421,-0.760007,-161.725,34.5154,-8.80334,0,0,3.26431,5
1774536638739,0.427249,1.51807,-0.705082,-132.291,26.4979,5.85835,0,0,3.28501,5
1774536638753,0.376957,1.32057,-0.733396,-107.049,18.2092,30.3894,0,0,3.24453,5
1774536638766,0.353761,1.16603,-0.770993,-84.5547,3.19683,37.7193,0,0,3.25679,5
1774536638779,0.256354,1.14429,-0.804197,-62.4079,-16.6949,33.7981,0,0,3.28381,5
1774536638793,0.139168,1.06666,-0.806152,-38.9032,-34.7954,27.7477,0,0,3.2352,5
1774536638806,0.0461491,0.715357,-0.683846,-34.3205,-45.5116,17.7444,0,0,3.25597,5
1774536638819,0.0507809,0.918199,-0.629154,-26.8084,-52.7958,-0.291944,0,0,3.23625,5
1774536638833,0.0786113,0.999994,-0.562261,-8.38935,-57.6096,-14.2664,0,0,3.26858,3
1774536638846,0.0627453,0.958743,-0.437509,6.56681,-55.7193,-14.3963,0,0,3.29049,3
1774536638859,-0.0170843,0.84034,-0.361333,11.449,-45.7215,-10.9788,0,0,3.25832,3
1774536638873,-0.0783649,0.921137,-0.343263,15.5065,-33.101,-19.211,0,0,3.27379,3
1774536638886,-0.0886223,0.943358,-0.385739,23.882,-22.3132,-32.0734,0,0,3.27079,3
1774536638900,-0.0319864,0.938233,-0.505363,31.8307,-13.9196,-40.6064,0,0,3.25753,3
1774536638913,0.00195075,0.988522,-0.64623,45.664,-5.08973,-38.9928,0,0,3.24345,3
1774536638926,-0.371068,3.99967,0.662018,249.118,-44.6581,-14.7694,0,0,3.27131,3
1774536638940,0.916902,1.42328,0.234649,118.778,-75.1156,-67.9492,0,0,3.25305,3
1774536638953,0.0757425,-0.254521,0.0847273,193.278,-27.223,-76.3247,0,0,3.25025,3
1774536638966,-0.348115,1.12539,0.0556661,217.285,11.8286,-52.5762,0,0,3.25377,3
1774536638980,0.0456267,1.28295,-0.00951692,211.95,18.5467,-47.2631,0,0,3.29971,3
1774536638993,0.0283215,1.09474,-0.167714,191.453,8.72824,-35.8735,0,0,3.29699,3
1774536639006,-0.0327106,0.981209,-0.25268,171.99,-4.32437,-15.6123,0,0,3.25714,3
1774536639020,0.0190393,0.952639,-0.244874,159.231,-13.4204,-2.05979,0,0,3.28473,3
1774536639033,-0.0353966,0.935792,-0.280515,148.094,-12.7514,6.56776,0,0,3.25364,3
1774536639046,-0.0925253,0.864751,-0.359614,131.556,-2.97232,21.8856,0,0,3.24877,2
1774536639060,0.0163498,0.843996,-0.393308,117.771,2.27162,25.2428,0,0,3.25388,2
1774536639073,0.0161133,0.866942,-0.409667,104.281,6.17903,27.918,0,0,3.25395,2
1774536639086,0.0124514,0.88452,-0.425536,92.2811,7.82388,28.5465,0,0,3.27671,2
1774536639100,0.0512668,0.856691,-0.462644,77.106,8.53843,24.6909,0,0,3.23643,2
1774536639113,0.141839,0.760749,-0.538081,55.4133,2.64003,12.2299,0,0,3.26355,5
1774536639126,0.107424,0.922108,-0.442634,45.6972,3.05898,7.20059,0,0,3.24503,5
1774536639140,0.133299,0.901613,-0.422853,39.7927,0.675978,2.71696,0,0,3.24653,5
1774536639153,0.133057,0.825201,-0.49438,34.3021,-1.55379,-3.43504,0,0,3.25451,5
1774536639167,0.122559,0.77515,-0.52075,21.871,-3.98789,-12.4361,0,0,3.2844,5
1774536639181,0.10132,0.886223,-0.480472,12.1324,-3.7189,-16.9546,0,0,4.66361,5
1774536639195,0.0690941,0.887939,-0.454836,9.91941,-2.23638,-16.2174,0,0,3.35653,5
1774536639208,0.0317409,0.932126,-0.473631,8.1994,-0.436436,-12.5754,0,0,3.29114,5
1774536639222,0.0214851,0.940673,-0.454347,6.3451,-0.359163,-8.19735,0,0,3.25032,5
1774536639235,0.0349112,0.931641,-0.460937,4.70283,0.415991,-5.14496,0,0,3.27362,5
1774536639248,0.028809,0.962156,-0.457764,3.14515,0.336274,-1.56742,0,0,3.25347,5
1774536639262,0.0607888,0.946534,-0.466308,2.79563,0.0624311,-1.08636,0,0,3.25597,5
1774536639275,0.0522467,0.965819,-0.452638,1.97356,-0.387077,-0.0281656,0,0,3.27671,5
1774536639288,0.0664053,0.96167,-0.454346,2.39485,-0.396898,-0.402717,0,0,3.27956,5
1774536639302,0.0781242,0.942628,-0.451904,2.01715,-1.00461,-1.4452,0,0,3.29006,5
1774536639315,0.0483419,0.942627,-0.46289,1.14936,-1.7672,-1.89851,0,0,3.25762,5
1774536639329,0.05664,0.949462,-0.447999,1.26659,-1.77097,-1.17156,0,0,3.28127,5
1774536639342,0.0627437,0.941163,-0.446777,0.431635,-2.69768,-1.70726,0,0,3.2546,5
1774536639356,0.0429701,0.94458,-0.449951,0.275586,-3.03648,-1.27695,0,0,3.35936,5
1774536639369,0.0693341,0.955566,-0.452881,0.76854,-3.19008,-1.47991,0,0,3.28836,5
1774536639382,0.0749508,0.941407,-0.453369,0.664639,-3.88205,-3.8432,0,0,3.28001,5
1774536639396,0.0571302,0.927247,-0.45044,0.5274,-4.50074,-5.62472,0,0,3.28201,5
1774536639409,0.0676262,0.946776,-0.449219,0.5647,-4.20757,-7.66922,0,0,3.24695,5
1774536639422,0.0522472,0.934327,-0.451904,0.625651,-4.44158,-9.25167,0,0,3.25366,5
1774536639436,0.0561521,0.929444,-0.445801,-0.0120942,-4.94406,-10.3381,0,0,3.24125,5
1774536639449,0.0588377,0.964597,-0.446533,0.129069,-5.36432,-11.1562,0,0,3.25347,5
1774536639462,0.0446787,0.951661,-0.457519,1.62614,-5.67783,-12.0946,0,0,3.24245,5
1774536639476,0.00512972,0.945069,-0.461914,1.33731,-5.37555,-10.3066,0,0,3.24499,5
1774536639489,0.0144036,0.955077,-0.463867,2.33093,-4.23468,-9.05964,0,0,3.2714,3
1774536639502,0.00781296,0.959472,-0.461914,2.35104,-3.41629,-6.74434,0,0,3.23873,3
1774536639516,0.0190422,0.973388,-0.448731,4.21971,-2.68304,-5.59351,0,0,3.32732,3
1774536639529,0.0187988,0.968262,-0.448975,5.48227,-2.08694,-5.02573,0,0,3.24532,3
1774536639543,0.0158693,0.967285,-0.457031,6.2481,-1.59026,-4.52159,0,0,3.25927,3
1774536639556,0.0246576,0.951905,-0.454834,7.61913,-2.21065,-4.29122,0,0,3.26131,3
1774536639569,0.0158698,0.966552,-0.451172,9.12229,-2.11498,-4.26729,0,0,3.25603,3
1774536639583,0.0146485,0.970703,-0.458007,10.778,-2.50189,-3.79624,0,0,3.25029,3
1774536639596,0.0139161,0.948732,-0.464843,10.9533,-2.75447,-2.95077,0,0,3.26451,3
1774536639609,-0.00854335,0.970457,-0.464356,11.8961,-1.24416,0.418352,0,0,3.26197,3
1774536639623,-0.032469,0.981933,-0.476318,12.3641,0.616696,4.70387,0,0,3.23821,3
1774536639636,-0.00122289,0.993896,-0.478515,13.7185,2.95782,7.55072,0,0,3.26045,3
1774536639649,0.00683537,0.967287,-0.469971,15.419,5.13421,9.7524,0,0,3.25199,3
1774536639663,-0.000487769,1.00097,-0.4812,17.22,2.82067,12.3839,0,0,3.24901,3
1774536639676,0.0488247,0.953617,-0.480957,16.6137,1.09257,14.5389,0,0,3.25168,5
1774536639690,0.0707992,0.951416,-0.487548,17.4766,-0.336402,16.0535,0,0,3.8939,5
1774536639704,0.14062,0.958496,-0.476075,16.8277,-3.5565,16.2737,0,0,3.33892,5
1774536639717,0.0100189,1.59248,-0.479248,27.7928,-7.6286,16.0697,0,0,3.35418,5
1774536639730,0.237045,1.23464,-0.599357,24.4821,-15.4193,14.7774,0,0,3.29301,5
1774536639744,-0.367633,1.97285,-0.707756,61.4041,-4.33758,46.1189,0,0,3.25121,5
1774536639757,0.0502637,0.756189,-0.518324,81.9284,-0.302518,47.4362,0,0,3.27244,5
1774536639771,-0.0832426,2.02603,-0.582759,107.446,-1.83208,26.4479,0,0,3.24734,5
1774536639784,0.0895875,1.83009,-0.514409,144.594,-1.37631,27.9923,0,0,3.23879,5
1774536639797,0.094238,1.57448,-0.463627,176.923,-5.10359,14.206,0,0,3.28073,5
1774536639811,0.257069,1.56494,-0.445314,193.027,-11.8063,7.01289,0,0,3.2356,5
1774536639824,0.388907,2.06247,-0.515376,223.307,-23.1041,0.566424,0,0,3.27601,5
1774536639837,0.393554,2.20531,-0.529296,249.997,-32.5256,-16.0319,0,0,3.24436,5
1774536639851,0.516105,2.30492,-0.533203,250.129,-45.8497,-30.4398,0,0,3.26601,5
1774536639864,0.406502,2.54295,-0.572751,250.13,-59.4666,-40.1426,0,0,3.24997,5
1774536639877,0.386476,2.18411,-0.640376,250.13,-64.0535,-44.1708,0,0,3.35403,5
1774536639891,0.25416,1.63212,-0.936259,250.13,-68.8008,-54.0121,0,0,3.42801,5
1774536639904,0.277586,1.92845,-0.845954,250.13,-57.2483,-49.4046,0,0,3.24442,5
1774536639918,-0.0756589,2.37472,0.0538921,250.13,-47.6432,-112.108,0,0,3.25514,5
1774536639931,-0.936463,2.38476,-0.269997,250.13,-2.59816,-185.733,0,0,3.24477,5
1774536639944,-0.416784,-1.0625,-0.131113,216.898,60.3357,-121.996,0,0,3.27445,5
1774536639958,-0.233655,-1.05493,-0.0459044,146.647,117.251,-66.4595,0,0,3.23943,5
1774536639971,0.115698,0.796257,-0.20702,100.299,138.247,-35.2849,0,0,3.24477,3
1774536639984,0.152097,0.926016,-0.313957,93.0665,132.927,-21.3897,0,0,3.25236,5
1774536639998,0.206539,0.434361,-0.0720384,80.7863,117.284,-23.0984,0,0,3.27495,5
1774536640011,0.230711,0.282481,0.0248956,61.4929,98.2702,-28.6366,0,0,3.2541,5
1774536640024,0.309321,0.0818012,0.138664,36.0199,73.4061,-32.9024,0,0,3.23416,5
1774536640038,0.346433,-0.0278244,0.334947,7.30318,45.999,-27.5685,0,0,3.29512,5
1774536640051,0.334718,-0.232896,0.451652,-31.6231,15.7459,-20.0754,0,0,3.24899,2
1774536640065,0.23365,-0.327386,0.476805,-77.5273,-10.6321,-22.9703,0,0,3.29434,5
1774536640078,0.0976658,-0.184092,0.464845,-121.172,-28.2862,-30.9375,0,0,3.24849,5
1774536640092,0.0317429,-0.0932681,0.42676,-159.755,-37.8911,-38.003,0,0,3.81688,5
1774536640105,-0.00927447,0.0439357,0.348638,-193.747,-41.5467,-38.4861,0,0,3.26142,5
1774536640119,-0.0451635,0.160636,0.264166,-220.637,-38.4429,-33.6044,0,0,3.23849,5
1774536640132,-0.0634753,0.271232,0.17652,-243.208,-31.2419,-30.5116,0,0,3.26205,5
1774536640145,-0.0844712,0.37719,0.0793525,-250.103,-21.0735,-29.0303,0,0,3.2349,5
1774536640159,-0.0861815,0.479485,-0.00097094,-250.137,-9.28005,-23.6603,0,0,3.26058,5
1774536640172,-0.0327186,0.550532,-0.0642046,-250.137,3.06833,-14.6403,0,0,3.23564,5
1774536640185,0.0119598,0.695546,-0.159661,-250.137,13.2167,-6.36939,0,0,3.26527,5
1774536640199,0.0798292,0.890123,-0.277336,-250.137,19.336,-1.31522,0,0,3.27068,5
1774536640217,0.150142,1.10423,-0.412588,-250.137,19.0852,3.02421,0,0,7.97576,3
1774536640230,0.205318,1.33372,-0.507806,-250.137,14.9367,12.4645,0,0,3.28777,3
1774536640243,0.156498,1.45922,-0.602777,-250.137,10.0472,19.8184,0,0,3.2854,3
1774536640257,0.00757878,1.57079,-0.6831,-250.137,7.07585,17.1887,0,0,3.27971,3
1774536640270,-0.145985,1.61401,-0.759028,-250.137,8.91452,6.23009,0,0,3.24999,3
1774536640284,-0.190915,1.68969,-0.829097,-250.137,14.0964,-13.1023,0,0,3.28642,3
1774536640297,-0.0715416,1.84423,-0.950431,-250.137,16.5755,-30.4025,0,0,3.26953,3
1774536640311,0.182844,1.90454,-1.10961,-250.137,12.6759,-30.2147,0,0,3.27038,3
1774536640324,0.410873,1.96191,-1.23266,-250.137,0.753971,-15.0297,0,0,3.26756,3
1774536640338,0.506097,2.04955,-1.35204,-250.137,-14.9752,4.04252,0,0,3.26794,3
1774536640351,0.456791,2.00464,-1.45287,-250.137,-30.6244,18.9867,0,0,3.27497,5
1774536640364,0.362311,1.98486,-1.56615,-250.137,-39.3535,27.5072,0,0,3.23506,5
1774536640378,0.305424,1.82692,-1.70189,-243.476,-45.6936,34.7578,0,0,3.27171,5
1774536640391,0.327879,1.60158,-1.70972,-208.479,-52.5081,37.908,0,0,3.23984,5
1774536640405,0.294436,1.32277,-1.82616,-168.094,-59.9705,41.1062,0,0,4.41472,5
1774536640419,0.0339538,1.21192,-1.89868,-117.337,-55.7386,56.2605,0,0,3.28007,5
1774536640433,-0.400848,0.921895,-1.90527,-79.167,-45.8355,48.603,0,0,3.6106,3
1774536640446,-0.687236,0.936278,-1.95044,-38.0899,-35.7373,-9.55796,0,0,3.27584,3
1774536640459,-0.604742,1.11766,-1.948,16.3095,-24.0429,-61.71,0,0,3.25749,3
1774536640473,-0.366716,1.10108,-1.82252,66.6655,-10.1835,-68.1815,0,0,3.27884,3
1774536640486,3.99957,3.99968,2.23238,5.38884,-30.5779,-54.8906,0,0,3.2811,3
1774536640499,1.56194,-3.79535,1.58794,142.243,-21.0322,-79.4351,0,0,3.28397,3
1774536640513,-0.257197,3.29272,0.309416,249.596,-31.8773,-121.151,0,0,3.26662,3
1774536640526,-0.689667,1.86363,-0.224328,250.127,-15.6456,-69.205,0,0,3.29538,3
1774536640540,-0.0681587,0.743242,-0.187503,225.428,4.3357,-29.913,0,0,3.26668,3
1774536640553,0.204571,0.610849,-0.199706,203.21,-5.06772,-30.2426,0,0,3.25675,3
1774536640566,-0.050031,0.740225,-0.219969,194.311,-14.5331,-13.4879,0,0,3.27568,3
1774536640580,-0.0610344,0.844231,-0.276119,179.532,-16.7295,-1.90496,0,0,3.2489,3
1774536640594,-0.0852034,0.892575,-0.358881,154.415,-10.9828,13.025,0,0,3.28958,3
1774536640607,-0.0144093,0.868654,-0.397214,137.246,-8.93386,15.6738,0,0,3.27856,3
1774536640621,0.0346645,0.92236,-0.405029,120.154,-2.88506,21.4218,0,0,4.10886,3
1774536640635,0.0180676,0.803475,-0.456539,101.452,-0.18139,24.4278,0,0,3.26899,3
1774536640648,0.00878971,0.467553,-0.39478,68.12,0.773873,16.4671,0,0,3.75014,3
1774536640662,0.042234,0.890351,-0.49804,56.6905,1.80403,4.57064,0,0,3.27142,3
1774536640675,0.0649398,0.82105,-0.454593,43.083,2.71303,1.47342,0,0,3.25966,3
1774536640689,0.139155,0.827148,-0.531489,31.5611,0.19573,-5.64398,0,0,3.27856,3
1774536640702,0.0905796,0.734626,-0.526123,20.2395,-1.23715,-10.4418,0,0,3.2577,3
1774536640715,0.0761729,0.929918,-0.466069,14.0613,-2.85455,-10.8757,0,0,3.29312,3
1774536640729,0.015141,0.896487,-0.475829,10.6733,-2.17134,-8.29528,0,0,3.26332,3
1774536640742,0.0173338,0.910644,-0.475586,6.89665,-1.31723,-5.83666,0,0,3.33686,3
1774536640756,-0.00585775,0.931151,-0.480713,3.91559,0.585951,-0.211194,0,0,3.82616,3
1774536640770,0.00756742,1.00659,-0.456056,4.00718,2.25885,4.36654,0,0,3.6384,5
1774536640784,0.0129391,0.949223,-0.474364,3.81014,3.38372,8.29344,0,0,3.3756,5
1774536640797,0.0373518,0.961669,-0.478027,5.53341,3.77667,10.0447,0,0,3.35823,5
1774536640811,0.0534657,0.981444,-0.477539,6.42305,4.82684,11.6561,0,0,3.29129,5
1774536640824,0.0178248,0.938968,-0.468262,5.85018,5.16625,12.3477,0,0,3.2644,5
1774536640838,0.025146,0.923341,-0.464112,5.46755,4.81852,12.1688,0,0,3.34069,5
1774536640851,0.0661592,0.957517,-0.466797,4.88078,3.23688,10.8994,0,0,3.27112,5
1774536640865,0.0666504,0.935548,-0.461914,4.49049,2.00612,9.98167,0,0,3.76907,5
1774536640878,0.067871,0.930909,-0.474853,3.92647,1.22526,9.71127,0,0,3.27149,5
1774536640892,0.0803214,0.940673,-0.460206,3.3388,-0.601598,8.00847,0,0,3.25105,5
1774536640905,0.0683602,0.919435,-0.465088,2.56112,-1.09677,7.60506,0,0,3.28608,5
1774536640919,0.0698241,0.936766,-0.472412,2.40536,-1.19037,7.20808,0,0,3.28227,5
1774536640932,0.06543,0.926514,-0.464356,2.17671,-0.64394,7.07699,0,0,3.29414,5
1774536640946,0.0607913,0.942138,-0.459961,2.38066,-0.337403,7.27383,0,0,3.27968,5
1774536640959,0.0751943,0.945556,-0.459473,2.3437,-0.677696,6.3785,0,0,3.31329,5
1774536640972,0.0957017,0.927003,-0.469726,1.92574,-1.05917,5.18912,0,0,3.28119,5
1774536640986,0.087647,0.935058,-0.4563,2.12117,-1.84343,3.10958,0,0,3.56914,5
1774536641000,0.0830081,0.941894,-0.469726,2.22088,-1.90808,2.61316,0,0,3.28903,5
1774536641013,0.09912,0.930421,-0.466309,2.16061,-2.91104,0.71175,0,0,3.27245,5
1774536641026,0.0788588,0.943603,-0.473876,2.00839,-2.7413,0.854253,0,0,3.29749,5
1774536641040,0.0886224,0.958007,-0.465577,2.72924,-2.87719,0.589105,0,0,3.26618,5
1774536641053,0.0671402,0.943605,-0.464356,2.32263,-3.28803,0.132045,0,0,3.27751,5
1774536641067,0.0805655,0.946777,-0.470947,3.23212,-3.25209,-0.37154,0,0,3.27153,5
1774536641080,0.107176,0.941895,-0.462159,2.79606,-4.42926,-3.64023,0,0,3.69953,5
1774536641094,0.101319,0.931153,-0.480712,3.713,-5.53648,-7.20365,0,0,3.29236,5
1774536641107,0.0959476,0.933838,-0.473633,4.08973,-6.21039,-11.2167,0,0,3.26784,5
1774536641121,0.1062,0.931885,-0.474365,5.01069,-6.57832,-14.6395,0,0,3.27806,5
1774536641134,0.0874037,0.93042,-0.489013,6.26096,-7.06627,-17.2086,0,0,3.25401,5
1774536641148,0.0598164,0.954588,-0.480958,7.54324,-6.15719,-16.644,0,0,3.29718,5
1774536641161,0.0231959,0.961181,-0.484863,9.12951,-4.40566,-13.7093,0,0,3.2573,5
1774536641174,0.0463851,0.96582,-0.48169,9.54754,-4.20709,-9.72213,0,0,3.29064,5
1774536641188,0.0224626,0.940187,-0.477539,8.8432,-3.65162,-4.16505,0,0,3.27357,5
1774536641201,0.0300288,0.956298,-0.481933,8.49031,-3.55772,0.518682,0,0,3.24849,3
1774536641215,0.0441885,0.968505,-0.47876,7.06055,-2.41029,4.97022,0,0,3.28614,3
1774536641228,0.00146783,1.10253,-0.481933,9.355,-4.24279,6.89121,0,0,3.25297,3
1774536641241,0.127433,0.889907,-0.511717,11.3033,-7.50286,8.86043,0,0,3.29519,3
1774536641255,0.101808,0.99511,-0.514648,16.0147,-9.56987,11.9161,0,0,3.33732,3
1774536641268,-0.0285553,1.27439,-0.562741,24.082,-7.85586,15.7823,0,0,3.33155,3
1774536641282,0.00707758,1.40917,-0.537111,45.5953,-2.43157,27.4306,0,0,3.3204,3
1774536641296,-0.0051261,1.19606,-0.57324,52.4772,0.717159,24.336,0,0,3.61879,3
1774536641309,-0.00170922,1.25097,-0.550539,69.1841,4.6066,40.7808,0,0,3.29027,3
1774536641323,0.0131826,1.40917,-0.56494,80.1667,4.04098,39.2823,0,0,3.27623,3
1774536641336,0.0961856,1.84274,-0.605466,113.681,0.339029,25.7088,0,0,3.28668,3
1774536641350,0.202873,1.67018,-0.50904,141.602,-4.41148,22.6488,0,0,3.25956,3
1774536641363,0.277827,1.65357,-0.515136,162.567,-10.3445,22.0564,0,0,3.35642,5
1774536641377,0.221928,1.65771,-0.51294,191.049,-15.3795,15.9616,0,0,3.26406,5
1774536641390,0.260007,1.87669,-0.488771,221.832,-22.7572,18.9394,0,0,3.75434,5
1774536641404,0.171393,1.82398,-0.494873,249.99,-26.8271,18.3541,0,0,3.27049,5
1774536641417,0.229244,2.14304,-0.54443,250.129,-29.6881,29.1448,0,0,3.26908,5
1774536641431,0.172856,2.45384,-0.717761,250.13,-33.9938,44.0404,0,0,3.28192,5
1774536641444,0.141116,2.29493,-0.438252,250.13,-33.529,59.5108,0,0,3.28625,5
1774536641459,-0.00999919,2.11354,-0.539544,250.13,-31.4911,59.557,0,0,3.30303,5
1774536641472,0.0358855,1.66458,-0.457525,250.13,-34.375,58.7749,0,0,3.26718,5
1774536641487,0.298077,2.74675,-0.816869,250.13,-29.0038,107.171,0,0,4.64253,5
1774536641501,0.00539158,1.55209,-0.072806,250.13,-26.577,144.144,0,0,3.26721,5
1774536641515,0.0134272,1.89109,0.332247,250.13,-40.883,172.774,0,0,4.54583,5
1774536641529,0.255598,0.907295,0.0246797,250.13,-78.8493,165.669,0,0,3.28123,5
1774536641542,-0.393265,-2.43531,0.436983,183.044,-82.8959,59.999,0,0,3.25479,5
1774536641556,-0.724098,-2.11184,0.372319,6.01055,-72.6312,16.1571,0,0,3.28484,5
1774536641569,-0.628425,0.304274,-0.28804,-50.4519,-42.5466,-28.2599,0,0,3.25277,4
1774536641584,-0.397721,0.600809,-0.219731,-68.2094,-15.5086,-41.6433,0,0,3.28284,1
1774536641597,-0.265878,0.220974,-0.142339,-90.3403,-6.34331,-40.3196,0,0,3.25305,1
1774536641612,-0.267822,0.106697,-0.149902,-114.711,2.6651,-44.5135,0,0,4.74311,1
1774536641625,-0.187261,7.46778e-06,-0.0324789,-146.529,9.13575,-61.1083,0,0,3.27649,1
1774536641640,-0.0700766,-0.147451,0.108144,-189.306,4.7926,-79.6482,0,0,4.51916,1
1774536641653,0.0851942,-0.119875,0.170894,-234.926,-4.32867,-78.9121,0,0,3.27355,1
1774536641667,0.230459,0.0649285,0.173584,-250.062,-13.466,-59.9949,0,0,3.24631,1
1774536641680,0.271237,0.31468,0.0954645,-250.137,-21.2058,-35.6099,0,0,3.27405,1
1774536641694,0.231936,0.44213,0.0109922,-250.137,-27.146,-16.5376,0,0,3.25868,1
1774536641707,0.14234,0.536126,-0.0624949,-250.137,-30.4112,-7.13837,0,0,3.28273,1
1774536641720,0.071294,0.655265,-0.15429,-250.137,-28.8551,-7.98814,0,0,3.2921,1
1774536641734,0.0459002,0.751458,-0.250726,-250.137,-24.6241,-13.6512,0,0,3.30694,1
1774536641747,0.101314,0.810787,-0.315181,-250.137,-19.5444,-17.0062,0,0,3.26401,3
1774536641761,0.172602,0.921379,-0.421623,-250.137,-16.0859,-15.1315,0,0,3.58208,3
1774536641774,0.203123,1.03442,-0.499995,-250.137,-11.1467,-6.12876,0,0,3.27871,3
1774536641788,0.205078,1.15844,-0.609367,-250.137,-3.43531,6.32734,0,0,3.28034,3
1774536641801,0.121344,1.16333,-0.661373,-250.137,8.6422,13.3847,0,0,3.4634,3
1774536641815,0.0114823,1.15772,-0.653565,-250.137,25.1697,7.54053,0,0,3.31595,3
1774536641829,0.00708039,1.33397,-0.720454,-250.137,43.8308,-0.760228,0,0,3.27644,3
1774536641842,0.111077,1.45653,-0.792231,-250.137,61.4011,2.53323,0,0,3.27468,3
1774536641856,0.29198,1.47095,-0.843746,-250.137,72.5248,18.045,0,0,3.71175,3
1774536641869,0.422354,1.50879,-0.875486,-250.137,73.9319,37.2176,0,0,3.26519,3
1774536641883,0.441893,1.61669,-0.949946,-250.137,68.6978,55.9298,0,0,3.26838,3
1774536641896,0.338142,1.77221,-1.03271,-250.137,58.6834,68.2061,0,0,3.26684,3
1774536641909,0.075702,1.85082,-1.06689,-250.137,49.7923,68.8821,0,0,3.24484,3
1774536641923,-0.0356367,1.77027,-1.04199,-248.466,40.1624,44.3055,0,0,3.39892,3
1774536641936,0.0275835,1.92186,-1.05786,-222.731,26.1992,9.60774,0,0,3.25523,3
1774536641950,0.294415,1.80177,-1.05908,-187.823,5.09735,-18.3343,0,0,3.60308,3
1774536641963,0.744597,1.41848,-0.98438,-165.455,-22.6558,-26.9267,0,0,3.27616,3
1774536641977,0.797115,1.44824,-0.963624,-143.316,-39.3976,13.5619,0,0,3.28557,3
1774536641990,0.544695,1.32179,-0.915775,-120.024,-43.8709,58.0307,0,0,3.27453,3
1774536642004,-0.0172946,1.32031,-1.00097,-93.3996,-31.9144,59.6636,0,0,3.27199,3
1774536642017,-0.353736,1.36352,-1.10717,-54.2786,-12.2581,32.494,0,0,3.27019,5
1774536642030,-0.376952,1.27686,-1.12646,-14.4425,10.9988,9.58725,0,0,3.28027,5
1774536642044,-0.192396,1.1692,-1.08692,18.204,27.7411,1.11087,0,0,3.2846,5
1774536642057,-0.0651945,1.09693,-0.995612,44.9053,36.3389,-0.131225,0,0,3.27216,5
1774536642071,-0.066162,1.0835,-0.90113,63.4345,46.1649,-4.93032,0,0,3.57484,5
1774536642084,1.91319,-0.146887,2.78783,249.206,35.2907,-106.981,0,0,3.27488,5
1774536642098,-0.378502,3.99959,0.667385,250.125,49.7829,-68.5348,0,0,3.25573,5
1774536642111,-0.00271185,0.92209,0.225617,229.515,37.3291,-44.5088,0,0,3.28368,5
1774536642125,0.130362,0.477814,0.126228,245.599,8.57816,-27.3297,0,0,3.42694,5
1774536642138,0.0766639,0.664538,-0.0761577,244.805,-18.8103,-13.6634,0,0,3.34225,5
1774536642152,-0.135971,0.913801,-0.17431,222.12,-26.6936,12.8908,0,0,3.29931,5
1774536642166,-0.103762,1.05736,-0.175781,206.87,-15.544,26.201,0,0,3.86938,5
1774536642179,-0.0900888,0.908214,-0.350574,183.293,-3.63938,26.3352,0,0,3.29021,5
1774536642192,-0.119383,0.83399,-0.407467,154.137,8.51966,28.3032,0,0,3.27038,5
1774536642206,0.0336807,0.83252,-0.40625,126.815,11.1624,20.869,0,0,3.30036,5
1774536642219,0.0925252,0.844482,-0.419433,106.361,11.6313,17.4901,0,0,3.27453,5
1774536642233,0.0874027,0.831056,-0.430175,86.7161,8.91428,14.3515,0,0,3.31388,5
1774536642246,0.125974,0.85327,-0.403566,72.445,7.13101,10.4621,0,0,3.29355,5
1774536642260,0.108644,0.87451,-0.440183,64.3988,4.9194,4.48774,0,0,3.32495,5
1774536642273,0.113281,0.79981,-0.456054,47.2077,-0.180732,-0.418339,0,0,3.28805,5
1774536642287,0.0559122,0.869624,-0.449952,38.8887,0.257362,-0.678097,0,0,3.65249,5
1774536642300,0.03174,0.933101,-0.447022,34.404,0.920366,0.627094,0,0,3.31525,5
1774536642314,-0.0100068,0.956785,-0.445313,31.2979,1.69082,5.20623,0,0,3.29912,5
1774536642328,0.062739,0.913821,-0.441162,27.0213,3.73031,6.3075,0,0,3.47112,5
1774536642341,0.0451672,0.904542,-0.45581,23.2098,4.70507,5.56097,0,0,3.2934,5
1774536642355,0.0415042,0.919677,-0.462646,19.2867,4.99094,5.39016,0,0,4.32786,5
1774536642369,0.027833,0.941893,-0.472411,14.9073,4.29355,4.27274,0,0,3.28195,5
1774536642383,0.0683565,0.920412,-0.452882,12.8575,2.4747,2.55055,0,0,3.78084,5
1774536642396,0.0805656,0.929687,-0.440186,11.9739,1.5542,0.605099,0,0,3.31271,5
1774536642410,0.0847165,0.944091,-0.455565,10.9896,-1.10129,-2.24536,0,0,3.27847,5
1774536642423,0.0737312,0.932862,-0.458496,10.3999,-2.30698,-3.81661,0,0,3.29947,5
1774536642437,0.0705569,0.98071,-0.443605,10.7084,-2.54842,-5.49546,0,0,3.29366,5
1774536642451,0.0478532,0.952395,-0.467772,10.4669,-2.45087,-5.85318,0,0,3.31831,5
1774536642465,0.0800759,0.9126,-0.455567,10.3517,-1.55408,-6.75126,0,0,3.28508,5
1774536642478,0.0524922,0.943845,-0.459228,11.293,-1.23062,-7.76594,0,0,3.32332,5
1774536642492,0.0468754,0.946289,-0.453125,11.2825,-1.53285,-8.16595,0,0,3.30566,5
1774536642506,0.0549311,0.953613,-0.448731,11.3356,-2.08124,-7.97044,0,0,3.82744,5
1774536642519,0.0551758,0.939698,-0.469237,12.3613,-2.67643,-8.88097,0,0,3.29425,5
1774536642533,0.039796,0.946533,-0.476318,12.5943,-2.67937,-7.25997,0,0,3.29216,5
1774536642546,0.0402832,0.959228,-0.472657,12.4207,-2.89967,-7.89759,0,0,3.30484,5
1774536642560,0.0559071,0.93799,-0.47583,12.9667,-3.84264,-9.29078,0,0,3.27797,5
1774536642573,0.00952473,0.938965,-0.482177,11.7921,-3.89288,-7.41392,0,0,3.31195,5
1774536642586,0.0280749,0.9458,-0.489501,12.0749,-3.52853,-6.19689,0,0,3.28632,5
1774536642600,0.00781392,0.926027,-0.490723,10.8002,-1.70374,-2.7044,0,0,3.31336,5
1774536642613,0.000732918,0.931152,-0.48584,10.1863,-2.07449,0.533509,0,0,3.28769,5
1774536642627,0.00415015,0.927735,-0.488525,9.45402,-0.91417,4.02082,0,0,3.6809,5
1774536642641,0.0144036,0.939452,-0.490967,7.40713,-0.748914,6.42316,0,0,3.30151,5
1774536642654,0.0502905,1.04076,-0.540768,7.9363,-2.12293,8.53909,0,0,3.28075,5
1774536642668,0.0437016,0.873547,-0.531007,12.7547,-2.47155,11.4739,0,0,3.31305,5
1774536642681,0.0107445,1.05687,-0.480472,14.5407,-2.92902,12.5975,0,0,3.28064,5
1774536642695,0.00585972,1.07934,-0.521482,14.8154,-2.46035,12.36,0,0,3.30862,5
1774536642708,-0.0327121,1.0586,-0.550047,23.2405,0.238481,22.5903,0,0,3.28675,5
1774536642722,-0.111323,1.31077,-0.395275,32.0934,1.76341,45.1549,0,0,3.89968,5
1774536642735,0.0446668,0.902128,-0.542714,37.553,8.35651,37.6101,0,0,3.29771,5
1774536642749,0.0651841,1.22996,-0.55249,43.7402,6.98393,39.9882,0,0,3.27686,5
1774536642762,0.168694,1.09962,-0.548584,51.6249,3.11087,37.6452,0,0,3.31182,5
1774536642776,0.11182,1.28563,-0.55664,63.2323,0.152125,24.2878,0,0,3.27914,5
1774536642789,0.179927,1.29956,-0.545167,78.5801,-4.32885,22.1101,0,0,3.32386,5
1774536642803,0.155763,1.21802,-0.556152,91.6905,-8.14893,17.99,0,0,3.28866,5
1774536642816,0.138673,1.19385,-0.574706,105.139,-10.7428,13.2754,0,0,3.32775,5
1774536642830,0.155272,1.07984,-0.573242,113.364,-13.8547,11.6493,0,0,3.31184,5
1774536642843,0.0395589,1.2019,-0.607419,119.739,-11.8117,7.97249,0,0,3.72699,5
1774536642857,0.153068,1.27221,-0.595216,137.522,-15.1285,8.40244,0,0,3.31044,5
1774536642870,-0.0283076,1.25977,-0.590576,149.862,-12.9726,9.01983,0,0,3.28771,5
1774536642884,0.00561286,1.50902,-0.647701,171.465,-9.5058,11.256,0,0,3.30664,5
1774536642897,0.202623,1.52344,-0.531746,201.864,-11.1673,7.96295,0,0,3.28071,5
1774536642911,0.162112,1.9548,-0.671377,230.598,-15.9913,13.879,0,0,3.3056,5
1774536642924,0.275627,2.23899,-0.606938,250.033,-24.211,15.9439,0,0,3.29266,5
1774536642939,0.315183,2.29223,-0.587892,250.129,-36.6936,16.5542,0,0,3.84701,5
1774536642952,0.230231,2.55418,-0.821273,250.13,-39.5583,31.802,0,0,3.29229,5
1774536642966,0.0219872,2.27517,-0.785647,250.13,-30.5031,56.8145,0,0,3.27464,5
1774536642979,0.350075,1.51739,-0.642832,250.13,-29.6455,83.083,0,0,3.3021,5
1774536642992,-0.112761,1.4231,-0.80907,250.13,-30.1578,78.4581,0,0,3.27849,5
1774536643006,0.284152,1.61937,-0.776858,250.13,-18.797,120.334,0,0,3.31925,5
1774536643019,0.485582,1.29812,-0.346466,250.13,-26.0479,191.691,0,0,3.30847,5
1774536643033,0.37159,1.2212,0.225302,250.13,-46.8355,221.766,0,0,3.3276,5
1774536643046,0.0302973,0.322329,0.563453,250.13,-72.3236,173.773,0,0,3.30564,5
1774536643060,-0.609574,-2.24787,-0.151805,250.13,-36.947,52.9902,0,0,3.70844,5
1774536643074,-0.983128,0.107501,-0.104251,158.243,13.8389,-47.7279,0,0,3.30482,5
1774536643087,-0.553253,-0.672065,-0.0896006,33.1415,62.7186,-102.331,0,0,3.27881,5
1774536643100,0.0995637,-0.83495,-0.0075741,-56.6069,74.4455,-149.779,0,0,3.31229,1
1774536643114,0.510713,-0.24052,-0.0551724,-118.38,65.8291,-159.949,0,0,3.28195,1
1774536643127,0.688464,-0.03395,-0.11523,-161.936,41.1153,-129.791,0,0,3.30727,1
1774536643141,0.706298,0.0080537,-0.0278381,-198.422,14.1266,-83.262,0,0,3.30343,1
1774536643155,0.661868,0.0754347,-0.0366205,-225.225,-12.2884,-47.8328,0,0,3.79773,5
1774536643168,0.510265,0.0764159,-0.0449213,-250.014,-39.802,-37.3043,0,0,3.29782,5
1774536643182,0.31764,-0.0156186,0.00487933,-250.137,-65.5665,-43.3972,0,0,3.28434,5
1774536643195,0.170909,-0.023437,0.0756786,-250.137,-86.8179,-52.9828,0,0,3.30364,5
1774536643209,0.137698,0.184312,0.0476094,-250.137,-100.596,-45.3434,0,0,3.27929,5
1774536643222,0.151366,0.503152,-0.0100057,-250.137,-104.371,-8.95964,0,0,3.31023,5
1774536643236,0.0913128,0.677478,-0.0256337,-250.137,-99.8621,41.3224,0,0,3.27727,5
1774536643250,0.0214893,0.893051,-0.0307614,-250.137,-89.5703,84.2521,0,0,3.71142,5
1774536643263,-0.234845,0.97973,-0.114984,-250.137,-71.8743,109.85,0,0,3.2951,5
1774536643276,-0.49339,0.997801,-0.165768,-250.137,-46.675,98.8486,0,0,3.27682,3
1774536643290,-0.576654,0.924322,-0.190428,-250.137,-19.0914,52.4446,0,0,3.30362,3
1774536643303,-0.364029,1.26951,-0.270258,-250.137,-0.231239,12.4509,0,0,3.27812,3
1774536643317,-0.274664,1.62498,-0.458239,-250.137,18.7985,6.82949,0,0,3.31943,3
1774536643330,-0.183356,1.52759,-0.502194,-250.137,41.5433,25.5025,0,0,3.28271,3
1774536643344,-0.210203,1.37428,-0.47925,-250.137,68.3172,46.6505,0,0,3.3206,3
1774536643357,-0.251218,1.42016,-0.462648,-250.137,96.8124,54.7536,0,0,3.32671,2
1774536643373,-0.309566,1.77903,-0.527583,-250.137,127.686,39.7084,0,0,6.0617,2
1774536643387,-0.3374,2.18747,-0.70531,-250.137,150.945,16.4364,0,0,3.30994,2
1774536643400,-0.157727,2.14405,-0.706543,-250.137,162.606,2.45885,0,0,3.28069,2
1774536643414,0.129863,2.06544,-0.695557,-250.137,159.671,-7.16586,0,0,3.30407,2
1774536643427,0.498265,2.13354,-0.787347,-250.137,140.523,-22.6254,0,0,3.28368,5
1774536643441,0.944549,2.13818,-0.952381,-250.137,110.531,-30.518,0,0,3.32762,5
1774536643454,1.47848,2.13696,-1.19993,-250.137,67.5573,0.768009,0,0,3.30762,5
1774536643468,1.5808,1.87917,-1.58347,-221.615,20.0987,89.1101,0,0,3.34051,5
1774536643481,0.933639,1.69313,-1.74804,-173.795,-23.8425,145.999,0,0,3.29627,5
1774536643495,-0.382964,1.70581,-1.9702,-108.994,-38.849,125.476,0,0,3.6371,5
1774536643508,-1.03535,1.25589,-1.9956,-38.04,-27.3169,27.5331,0,0,3.30334,5
1774536643522,-0.550571,0.975606,-1.88355,8.4557,-19.2615,-62.134,0,0,3.27579,5
1774536643535,0.228949,1.13305,-1.72901,56.2963,-23.3157,-61.4234,0,0,3.32653,5
1774536643549,0.415758,1.01295,-1.43093,88.7394,-37.2133,-38.0856,0,0,3.33019,5
1774536643562,0.0876694,1.13842,-1.23219,113.123,-43.3967,-39.4208,0,0,3.3093,5
1774536643576,0.623254,2.02313,2.34716,85.6937,-41.9158,-89.6736,0,0,3.30244,5
1774536643589,1.24849,-3.99958,-0.00886829,185.625,-13.3254,-74.7764,0,0,3.7881,3
1774536643603,0.482964,3.99932,0.590534,249.81,-31.2087,-147.364,0,0,3.29377,3
1774536643616,-0.151811,1.18989,-0.230167,250.128,-58.5814,-132.82,0,0,3.27871,3
1774536643630,-0.318104,0.080644,-0.0737414,250.13,-15.6791,-74.8989,0,0,3.2989,3
1774536643643,0.217736,0.254138,-0.17968,238.387,-23.4727,-69.1659,0,0,3.28042,3
1774536643657,-0.247038,0.800255,-0.137942,221.003,-13.0215,-48.3251,0,0,3.32493,3
1774536643670,-0.0571422,0.951161,-0.291493,203.469,-10.1137,-30.4021,0,0,3.28805,3
1774536643684,-0.211903,0.933351,-0.332761,173.941,-12.378,-17.2714,0,0,3.36149,3
1774536643697,0.0178062,0.998775,-0.429681,149.017,-12.131,-3.47323,0,0,3.28669,3
1774536643711,-0.151111,0.955569,-0.427979,127.147,-3.88074,14.0578,0,0,3.28634,3
1774536643724,-0.15332,0.935304,-0.464353,106.249,2.14559,31.8428,0,0,3.30288,2
1774536643737,-0.0346763,0.928956,-0.494139,90.9919,2.59319,39.5039,0,0,3.28105,2
1774536643751,0.0124479,0.723403,-0.444339,61.8017,5.69449,33.731,0,0,3.3164,2
1774536643764,0.0458961,0.84545,-0.498043,48.9267,8.80893,22.5366,0,0,3.28616,2
1774536643778,0.105953,0.944817,-0.451175,42.1862,8.77878,16.6628,0,0,3.91451,2
1774536643792,0.0898449,0.936768,-0.467284,40.3223,6.81132,13.7777,0,0,3.30003,2
1774536643805,0.100829,0.824959,-0.480956,29.4207,5.34318,3.83572,0,0,3.28119,2
1774536643819,0.169185,0.890865,-0.471924,26.8829,4.97132,-3.49786,0,0,3.30429,5
1774536643832,0.0661693,0.908202,-0.490965,19.5403,2.58439,-7.30169,0,0,3.28453,5
1774536643846,0.0131873,0.928221,-0.479493,15.8352,2.50422,-3.3707,0,0,3.31721,5
1774536643859,0.0344223,0.987056,-0.457521,18.2551,3.05831,0.287145,0,0,3.30014,5
1774536643872,-0.0236776,0.984131,-0.480711,17.0138,3.60795,7.73394,0,0,3.32414,5
1774536643886,0.00878679,0.943118,-0.478272,15.3214,3.70942,14.4931,0,0,3.31138,5
1774536643900,0.0307602,0.950683,-0.467286,14.6294,4.00616,19.5094,0,0,3.74482,5
1774536643913,0.0646949,0.947998,-0.482421,14.4741,4.04561,19.6406,0,0,3.30547,5
1774536643927,0.0798329,0.928956,-0.463868,13.5542,3.83312,17.6511,0,0,3.2918,5
1774536643940,0.116208,0.927246,-0.481688,14.051,2.6851,12.6356,0,0,3.30316,5
1774536643954,0.146726,0.928955,-0.471436,13.7496,1.47169,7.37731,0,0,3.33732,5
1774536643967,0.11841,0.943358,-0.470459,13.7101,-0.494037,3.56097,0,0,3.30592,5
1774536643981,0.100831,0.920168,-0.47705,12.0161,-1.10384,2.14445,0,0,3.29592,5
1774536643995,0.0998536,0.922363,-0.48291,10.8607,-2.20065,0.0713827,0,0,3.95707,5
1774536644008,0.0866708,0.941893,-0.480225,10.1486,-3.01883,-1.04787,0,0,3.28801,5
1774536644022,0.107909,0.934815,-0.494872,10.1375,-4.36734,-4.78294,0,0,3.29751,5
1774536644035,0.145017,0.916749,-0.478761,8.46633,-6.94899,-10.0729,0,0,3.2999,5
1774536644049,0.0981478,0.94409,-0.467774,7.59973,-6.57438,-12.0057,0,0,3.28429,5
1774536644062,0.0664085,1.02734,-0.518795,10.2692,-7.65113,-12.7292,0,0,3.3524,5
1774536644076,0.11816,0.937506,-0.497072,12.47,-7.60329,-12.2771,0,0,3.33814,5
1774536644089,0.0556684,0.86646,-0.48877,14.5621,-8.11957,-10.7936,0,0,3.32871,5
1774536644103,0.0639643,0.96386,-0.478516,16.836,-5.19774,-6.88965,0,0,3.29221,5
1774536644117,0.00171334,0.896977,-0.504637,21.0477,-5.33519,-1.59125,0,0,3.69147,5
1774536644130,0.0654252,1.13817,-0.536619,27.1149,-6.15622,2.62786,0,0,3.2968,5
1774536644144,0.0212433,1.19116,-0.552489,37.027,-5.29436,7.92783,0,0,3.28308,5
1774536644157,-0.00463686,1.03028,-0.599118,40.555,0.566262,13.5446,0,0,3.32916,5
1774536644170,-0.112785,0.97559,-0.577394,43.8614,0.35221,24.9661,0,0,3.2844,5
1774536644184,0.0568729,1.04907,-0.570801,46.4604,1.22467,29.4889,0,0,3.36399,5
1774536644197,0.0417491,1.11303,-0.595457,50.2711,0.894771,21.3383,0,0,3.2873,5
1774536644211,0.0683575,1.15991,-0.585938,62.109,2.23,18.2976,0,0,3.76345,5
1774536644225,0.0595709,1.07325,-0.584229,69.0798,2.02393,19.0573,0,0,3.30579,5
1774536644238,0.0771472,1.13745,-0.585693,77.5229,2.15203,18.7572,0,0,3.28418,5
1774536644252,0.0949695,0.984386,-0.593261,83.892,1.87922,15.687,0,0,3.31217,5
1774536644265,0.187494,1.01294,-0.593262,88.6101,-1.60101,13.8488,0,0,3.27469,5
1774536644279,0.171388,0.985842,-0.630124,94.2164,-5.43132,9.11515,0,0,3.29666,5
1774536644292,0.194578,1.00757,-0.594973,102.136,-8.35948,5.22546,0,0,3.31031,5
1774536644306,0.172853,1.04053,-0.624266,110.257,-12.9542,3.9529,0,0,3.29505,5
1774536644319,0.154298,1.04077,-0.625,122.937,-15.3393,-0.519732,0,0,3.27277,5
1774536644333,0.187742,1.27489,-0.688716,137.637,-18.5489,0.31645,0,0,3.5716,5
1774536644346,0.0869211,1.16798,-0.658205,150.463,-18.7623,-2.96839,0,0,3.27573,5
1774536644360,0.118162,1.229,-0.671386,166.721,-19.4394,-1.89086,0,0,3.27419,5
1774536644373,0.125488,1.47581,-0.716305,186.353,-20.7872,-2.50838,0,0,3.2866,5
1774536644386,0.0383362,1.5105,-0.721191,212.587,-17.3758,0.952248,0,0,3.26443,5
1774536644400,0.21239,1.90061,-0.715821,244.505,-21.1947,3.55955,0,0,3.36257,5
1774536644414,0.131842,2.05834,-0.717773,250.102,-22.1707,5.6537,0,0,3.2889,5
1774536644428,-0.0258679,1.76955,-0.63941,250.13,-23.5428,9.15054,0,0,3.84405,5
1774536644441,0.0661557,1.93187,-0.850083,250.13,-23.5952,-1.92201,0,0,3.28205,5
1774536644454,0.229237,2.083,-0.900387,250.13,-20.8002,6.97102,0,0,3.30516,5
1774536644468,0.297603,1.803,-0.845463,250.13,-16.9125,37.3147,0,0,3.28373,3
1774536644481,-0.0309829,1.3411,-1.32077,250.13,-16.4679,59.751,0,0,3.26551,3
1774536644495,0.244121,1.43383,-1.02981,250.13,0.0172193,90.2984,0,0,3.29118,3
1774536644508,0.783165,1.37598,-0.673365,250.13,-13.3153,150.912,0,0,3.26279,3
1774536644522,0.718266,1.01638,0.128362,250.13,-37.2777,181.998,0,0,3.27414,3
1774536644535,-0.394453,1.02026,0.402569,250.13,-48.1824,111.435,0,0,3.24518,3
1774536644549,-0.526358,-3.99965,-0.385931,228.588,-25.6541,-19.1138,0,0,3.57407,3
1774536644562,-0.819071,-0.644766,-0.00222412,131.544,8.31193,-104.947,0,0,3.46899,3
1774536644576,-0.274452,-0.301782,0.0078118,10.3587,35.4224,-135.831,0,0,3.27801,3
1774536644589,0.353716,-0.206306,-0.0598097,-72.9063,24.4515,-145.934,0,0,3.29366,3
1774536644603,0.683571,-0.0549422,-0.0671382,-119.805,-9.25976,-127.831,0,0,3.28888,3
1774536644616,0.64429,-0.0742174,-0.0134315,-163.242,-50.2237,-83.4878,0,0,3.27653,3
1774536644629,0.516855,-0.098387,0.128652,-203.783,-84.3189,-51.4799,0,0,3.27818,3
1774536644643,0.305191,-0.117186,0.2434,-248.214,-116.595,-45.3739,0,0,3.59008,3
1774536644657,0.0366399,-0.0771512,0.328363,-250.128,-141.844,-52.6128,0,0,3.27408,1
1774536644670,-0.0358836,-0.0639658,0.394282,-250.137,-159.865,-53.3779,0,0,3.2721,1
1774536644684,-0.08984,0.0934948,0.393799,-250.137,-164.671,-30.6474,0,0,3.29318,2
1774536644697,-0.0537135,0.467015,0.345462,-250.137,-158.641,8.43912,0,0,3.26005,2
1774536644710,-0.117427,0.95065,0.153822,-250.137,-140.062,51.3666,0,0,3.26269,2
1774536644724,-0.203119,1.20482,-0.0204956,-250.137,-113.362,80.1697,0,0,3.27731,2
1774536644737,-0.416977,1.09351,-0.198474,-250.137,-81.3197,89.6855,0,0,3.6004,2
1774536644751,-0.514153,0.972665,-0.251949,-250.137,-47.77,71.4495,0,0,3.25714,2
1774536644764,-0.494874,1.16869,-0.379141,-250.137,-8.90329,42.2142,0,0,3.39792,2
1774536644778,-0.344981,1.62619,-0.562731,-250.137,28.8883,24.6295,0,0,3.26843,2
1774536644791,-0.191173,1.64282,-0.647699,-250.137,63.6819,20.9572,0,0,3.29594,2
1774536644805,-0.0153932,1.4153,-0.554694,-250.137,94.3284,28.9374,0,0,3.27362,2
1774536644818,0.142323,1.37647,-0.446541,-250.137,121.916,43.3482,0,0,3.27055,2
1774536644831,0.301503,1.64085,-0.415285,-250.137,143.883,54.7752,0,0,3.28069,2
1774536644845,0.444326,1.87742,-0.407959,-250.137,153.73,68.4814,0,0,3.27092,2
1774536644859,0.547356,2.05345,-0.455319,-250.137,157.364,78.9099,0,0,3.69599,2
1774536644872,0.585447,2.30247,-0.647447,-250.137,152.573,89.3602,0,0,3.29206,2
1774536644885,0.503424,2.29346,-0.787588,-250.137,138.832,95.5418,0,0,3.25445,5
1774536644899,0.42359,2.08571,-0.881585,-250.137,116.364,84.4293,0,0,3.28221,5
1774536644912,0.573964,2.12964,-1.07982,-250.137,81.8587,45.5826,0,0,3.26397,5
1774536644926,0.979708,2.36278,-1.58346,-250.137,31.4721,16.9592,0,0,3.3546,5
1774536644939,1.43551,2.14748,-2.03024,-212.614,-29.9539,48.7122,0,0,3.30579,5
1774536644953,1.02444,1.83767,-2.32835,-150.059,-75.8632,126.696,0,0,3.62445,5
1774536644967,-0.397117,1.58254,-2.38794,-90.7455,-79.0224,162.782,0,0,3.50077,5
1774536644980,-1.67398,1.08793,-2.37256,-33.4758,-35.9092,111.165,0,0,3.26064,5
1774536644994,-1.79809,0.501262,-2.32935,12.9218,15.067,-23.7106,0,0,3.28171,5
1774536645007,-1.05327,1.09835,-2.23902,59.8885,48.6041,-93.6444,0,0,3.26062,5
1774536645021,-0.227109,1.16186,-1.9031,100.751,64.4479,-75.4721,0,0,3.29605,5
1774536645034,-0.445541,0.529829,2.25508,249.39,99.4746,-56.385,0,0,3.27473,5
1774536645048,0.871002,3.99964,1.05404,250.126,-25.3484,-113.13,0,0,3.28303,5
1774536645061,-0.174243,-0.563645,-0.0419155,250.13,-24.3713,-96.9963,0,0,3.27343,5
1774536645075,-0.0488369,0.0336496,-0.0402833,250.13,-14.4995,-42.5837,0,0,3.68366,5
1774536645088,0.147935,0.475799,-0.399877,250.13,-18.3169,-31.9992,0,0,3.2676,5
1774536645102,-0.0812828,1.03072,-0.335942,240.21,-15.0392,-23.28,0,0,3.27336,5
1774536645115,-0.297836,0.900888,-0.422357,195.11,2.09035,-1.09511,0,0,3.2948,5
1774536645129,-0.130139,0.803962,-0.449705,158.7,12.3611,3.10126,0,0,3.25927,2
1774536645142,-0.0510309,0.853024,-0.436768,133.385,10.6497,17.1894,0,0,3.30121,2
1774536645155,0.0471123,0.801273,-0.479977,108.194,5.74197,29.0631,0,0,3.26545,2
1774536645169,-0.0275827,0.862545,-0.589104,86.7935,6.84945,29.6915,0,0,3.32399,2
1774536645182,0.127431,0.778326,-0.498053,59.6237,6.83974,13.5536,0,0,3.27162,2
1774536645196,0.0422423,0.859369,-0.515624,47.5942,6.6574,5.61963,0,0,3.25181,2
1774536645209,0.0773901,0.918453,-0.448735,38.8678,6.51217,4.72962,0,0,3.28019,2
1774536645222,0.076172,0.965329,-0.43921,37.2599,5.66072,1.24634,0,0,3.26864,5
1774536645236,0.0654304,0.87525,-0.462645,33.4237,3.317,-1.15599,0,0,3.2848,5
1774536645249,0.0300318,0.935299,-0.469238,29.4928,1.99892,-0.514641,0,0,3.2731,5
1774536645263,0.0561505,0.934326,-0.488036,26.8376,2.47093,0.316476,0,0,3.31605,5
1774536645276,-0.0224554,0.89844,-0.472657,17.1399,1.1592,1.35362,0,0,3.28277,5
1774536645290,0.0541939,0.877443,-0.482665,18.8009,0.279187,1.91325,0,0,3.59407,5
1774536645303,0.0190454,0.920895,-0.480225,16.3253,2.63712,4.28591,0,0,3.28686,5
1774536645317,0.0195312,0.953123,-0.449465,18.1056,2.39054,4.47995,0,0,3.25943,5
1774536645330,0.0224607,0.906009,-0.464354,14.4001,1.82723,5.5823,0,0,3.29501,5
1774536645344,0.0432114,0.931883,-0.490477,13.9336,3.13092,7.5095,0,0,3.26606,5
1774536645357,0.0368657,0.916017,-0.486817,11.7437,2.45375,8.32419,0,0,3.29332,5
1774536645370,0.0588364,0.918213,-0.488525,11.3683,2.19214,7.73575,0,0,3.33823,5
1774536645384,0.0607909,0.930907,-0.483643,9.68775,1.59837,7.36824,0,0,3.60605,5
1774536645398,0.0612793,0.907228,-0.490966,8.53247,2.0208,6.99423,0,0,3.27951,5
1774536645411,0.0978978,0.874758,-0.48169,5.97456,1.8254,4.15155,0,0,3.25969,5
1774536645424,0.0827647,0.909666,-0.49536,4.89848,2.25739,4.92744,0,0,3.26984,5
1774536645438,0.0812989,0.942869,-0.47754,4.14877,1.83417,4.03497,0,0,3.27188,5
1774536645451,0.0817871,0.918947,-0.478516,4.19823,0.707894,3.46847,0,0,3.32716,5
1774536645465,0.0695809,0.914307,-0.489501,3.15785,0.383294,2.41744,0,0,3.28997,5
1774536645479,0.0732419,0.902345,-0.495117,2.37033,-0.628554,0.756356,0,0,3.68238,5
1774536645492,0.0800776,0.93408,-0.492432,2.34364,-1.19565,0.451896,0,0,3.27114,5
1774536645505,0.0803222,0.930176,-0.500976,2.48024,-1.35797,0.260494,0,0,3.26794,5
1774536645519,0.058107,0.899172,-0.489259,2.07834,-1.36637,0.684911,0,0,3.28125,5
1774536645532,0.0556642,0.921141,-0.492187,2.39537,-1.18411,2.29732,0,0,3.26501,5
1774536645546,0.0471197,0.906251,-0.488282,4.4554,-0.552759,3.42189,0,0,3.30423,5
1774536645559,0.0786111,0.956539,-0.495849,5.3619,-1.18768,3.86041,0,0,3.2621,5
1774536645573,0.0664071,0.928713,-0.500976,4.76632,-1.12246,4.94878,0,0,3.32466,5
1774536645586,0.0478529,0.891116,-0.501709,5.57612,-0.749945,5.85048,0,0,3.27595,5
1774536645600,0.0798317,0.936276,-0.499024,5.99031,-1.00636,5.72581,0,0,3.56831,5
1774536645613,0.0952138,0.968015,-0.492676,7.42796,-1.64567,4.21363,0,0,3.27751,5
1774536645627,0.0771497,0.889654,-0.495605,7.98198,-1.70961,4.63151,0,0,3.27982,5
1774536645640,0.074219,0.925046,-0.506103,8.05308,-2.1049,4.2234,0,0,3.5436,5
1774536645654,0.0693363,0.922852,-0.499512,8.23573,-2.37271,4.43407,0,0,3.83918,5
1774536645670,0.0664065,0.939452,-0.509277,9.04179,-2.49557,3.554,0,0,3.54001,5
1774536645684,0.0708005,0.905032,-0.517822,8.97742,-2.98231,4.66622,0,0,3.43595,5
1774536645698,0.08911,0.939207,-0.526855,9.26574,-3.86583,4.01089,0,0,3.51019,5
1774536645712,0.0583518,1.04662,-0.542479,13.9993,-3.5132,4.0988,0,0,3.52599,5
1774536645727,0.100339,1.01831,-0.541504,17.5928,-3.10129,7.09198,0,0,3.88933,5
1774536645741,0.327865,1.08544,-0.442146,21.2566,-5.69701,16.7687,0,0,3.44666,5
1774536645755,0.031759,0.939952,-0.526605,25.2549,-2.25377,10.626,0,0,3.58751,5
1774536645769,0.0527329,1.07543,-0.547606,32.6806,-1.00621,14.9935,0,0,3.80118,5
1774536645786,0.0922824,1.04541,-0.55664,35.9456,-0.255643,20.393,0,0,3.86408,5
1774536645800,0.00733016,1.18993,-0.5874,45.2742,1.94326,28.6384,0,0,3.28088,5
1774536645814,0.140372,1.21972,-0.586914,54.4277,-0.149891,27.3195,0,0,3.28695,5
1774536645827,0.0864296,1.39598,-0.612791,71.6927,-2.6061,19.1703,0,0,3.27268,5
1774536645840,0.0969231,1.23707,-0.55225,91.4437,-2.67903,18.5831,0,0,3.27182,5
1774536645854,0.043949,1.16944,-0.586912,97.8536,-1.71472,18.9296,0,0,3.29229,5
1774536645867,0.0627428,1.05006,-0.588867,106.826,0.166214,17.8907,0,0,3.29543,5
1774536645881,0.110592,1.14452,-0.608397,116.821,0.524933,19.511,0,0,3.41836,5
1774536645894,0.142576,1.21557,-0.622802,130.839,-0.787364,21.3572,0,0,3.31406,5
1774536645908,0.172117,1.27734,-0.624023,146.677,-3.54354,23.4096,0,0,3.27877,5
1774536645921,0.191161,1.28931,-0.649656,163.489,-5.25864,19.8802,0,0,3.29594,5
1774536645935,0.175538,1.41772,-0.627687,183.822,-9.16378,25.5064,0,0,3.28769,5
1774536645948,0.174805,1.4314,-0.643554,205.518,-12.2594,25.3823,0,0,3.34258,5
1774536645961,0.128177,1.68406,-0.643311,231.269,-14.6446,31.5419,0,0,3.2691,5
1774536645975,0.165281,1.67847,-0.687985,250.036,-18.4847,35.0664,0,0,3.82771,5
1774536645989,0.151612,1.97312,-0.745601,250.129,-21.4889,41.9809,0,0,3.3111,5
1774536646002,0.0793508,2.00903,-0.813716,250.13,-17.9869,48.783,0,0,3.28082,5
1774536646016,0.0766603,1.77419,-0.899408,250.13,-8.4824,77.9997,0,0,3.28719,5
1774536646029,0.0771484,1.48879,-0.844242,250.13,-1.69028,117.924,0,0,3.27556,5
1774536646043,0.0771484,0.898479,-0.657972,250.13,11.3018,149.78,0,0,3.28629,5
1774536646056,0.343731,2.2399,-1.10519,250.13,15.9084,223.336,0,0,3.2654,5
1774536646070,-0.0134027,0.917085,-0.50346,250.13,12.0877,249.997,0,0,3.30555,5
1774536646083,0.0815363,1.51802,-0.313246,250.13,-9.73874,250.129,0,0,3.29195,5
1774536646097,-0.0202565,0.677061,0.011696,250.13,-35.437,246.119,0,0,3.57299,5
1774536646110,0.115225,1.22604,-0.272929,250.13,-45.7046,183.715,0,0,3.28419,5
1774536646124,-0.649849,-0.931734,-0.142587,199.276,-40.3852,75.0445,0,0,3.25703,5
1774536646137,-0.467298,-1.56709,-0.0610409,107.001,-16.379,-10.6652,0,0,3.28203,5
1774536646150,-0.188496,-1.19973,0.0768946,10.4498,-13.5408,-76.5653,0,0,3.27577,1
1774536646164,0.193821,-0.776885,0.101073,-81.2537,-28.7716,-109.789,0,0,3.36484,1
1774536646177,0.36034,-0.325471,0.031499,-146.355,-57.5439,-110.994,0,0,3.27464,1
1774536646191,0.340333,-0.123793,0.0996046,-198.815,-88.3809,-87.2555,0,0,3.75838,1
1774536646205,0.212655,-0.134032,0.229971,-247.134,-111.367,-60.6742,0,0,3.28199,1
1774536646218,0.0549427,-0.205561,0.362051,-250.123,-129.3,-51.1694,0,0,3.25155,1
1774536646232,-0.0400324,-0.179445,0.508779,-250.137,-141.603,-48.7601,0,0,3.2786,1
1774536646245,-0.0190444,-0.0254014,0.588373,-250.137,-148.705,-29.2877,0,0,3.2581,1
1774536646258,0.0312465,0.823183,0.441417,-250.137,-145.717,11.4842,0,0,3.28934,2
1774536646272,-0.0227013,1.28976,0.242201,-250.137,-131.118,65.7453,0,0,3.27169,2
1774536646285,-0.1787,1.23633,0.153082,-250.137,-109.953,110.882,0,0,3.2936,2
1774536646299,-0.456035,1.24878,0.0888717,-250.137,-80.1027,109.427,0,0,3.61664,2
1774536646313,-0.606191,1.21729,-0.0898312,-250.137,-45.9941,69.3293,0,0,3.6579,2
1774536646326,-0.364275,1.25219,-0.14233,-250.137,-21.5947,28.2502,0,0,3.28605,2
1774536646340,-0.266853,1.48851,-0.29662,-250.137,-3.57059,17.8229,0,0,3.25971,2
1774536646353,-0.192876,1.70897,-0.46947,-250.137,17.5666,19.3056,0,0,3.27897,2
1774536646366,-0.280756,1.84447,-0.643787,-250.137,48.457,28.7849,0,0,3.2666,2
1774536646380,-0.396476,1.78125,-0.749016,-250.137,89.2247,30.5029,0,0,3.27721,2
1774536646393,-0.407226,1.78052,-0.782224,-250.137,133.315,22.0117,0,0,3.27462,2
1774536646407,-0.288338,2.11155,-0.923818,-250.137,173.89,2.25099,0,0,3.56429,2
1774536646420,-0.0285826,2.26952,-1.11229,-250.137,199.59,1.87971,0,0,3.32553,2
1774536646434,0.220197,2.12086,-1.25927,-250.137,206.5,15.6035,0,0,3.26349,2
1774536646448,0.323235,2.07935,-1.41723,-250.137,198.331,12.6407,0,0,3.27353,5
1774536646461,0.446525,1.98487,-1.54198,-231.763,178.078,-11.3007,0,0,3.25679,5
1774536646476,0.791236,1.74782,-1.52271,-194.248,138.852,-39.0604,0,0,3.30281,5
1774536646492,1.34835,1.57911,-1.61425,-150.743,77.686,-10.8047,0,0,3.34853,5
1774536646506,1.43725,1.34352,-1.7141,-110.43,14.6495,49.9496,0,0,4.12597,5
1774536646520,0.797408,1.28174,-1.79565,-75.0691,-35.2935,88.3433,0,0,3.29149,5
1774536646533,0.055716,1.21192,-1.75537,-32.4715,-65.9999,67.3715,0,0,3.28438,5
1774536646547,-0.408171,1.06202,-1.60914,8.47567,-74.7428,10.36,0,0,3.2629,5
1774536646560,-0.303474,0.966804,-1.34694,37.2538,-74.6797,-40.6242,0,0,3.24884,5
1774536646573,0.0514888,0.975097,-1.08644,55.6034,-73.0159,-49.6801,0,0,3.25486,5
1774536646587,0.189199,1.07641,-0.819355,74.4862,-67.8577,-31.6774,0,0,3.2373,5
1774536646600,-0.590522,2.08489,0.548732,249.26,-54.0002,-46.2937,0,0,3.25877,5
1774536646613,-0.336688,2.71333,0.59277,113.842,-37.3424,-9.87584,0,0,3.27521,5
1774536646627,-0.280277,-0.585218,0.0769404,161.914,-5.02339,-3.6493,0,0,3.3016,3
1774536646640,-0.13087,0.458667,0.0522478,180.138,10.7688,4.82046,0,0,3.2561,3
1774536646653,0.180886,1.02242,-0.0314883,184.816,3.00048,-2.9233,0,0,3.25514,3
1774536646670,0.000500907,1.15941,-0.161856,173.803,-11.6143,11.6527,0,0,6.42515,3
1774536646683,-0.0288065,1.01173,-0.232173,155.929,-15.2111,22.8982,0,0,3.28705,3
1774536646697,0.0559023,1.05273,-0.245605,143.976,-16.6873,21.807,0,0,3.25701,3
1774536646710,0.0993622,1.03906,-0.278806,136.86,-16.4592,14.0235,0,0,3.26525,3
1774536646723,0.0615261,1.03613,-0.313962,125.712,-10.3434,11.5087,0,0,3.26386,3
1774536646737,0.0212431,0.88795,-0.413079,113.321,-5.17077,6.93877,0,0,3.24592,3
1774536646750,0.00683695,0.862062,-0.42163,98.7215,-2.10685,3.98417,0,0,3.27766,2
1774536646764,0.062252,0.845948,-0.438475,84.2476,-1.06625,1.91108,0,0,3.2564,2
1774536646777,0.0771474,0.840332,-0.446289,67.1158,-0.567368,1.03489,0,0,3.2613,2
1774536646790,0.0383328,0.714364,-0.633288,51.771,0.384577,0.650766,0,0,3.25803,5
1774536646804,-0.0363717,0.918931,-0.470715,39.1924,1.85528,1.40085,0,0,3.23556,5
1774536646817,0.0100065,0.96069,-0.44507,32.8408,2.94876,6.53932,0,0,3.28112,5
1774536646830,0.0476048,0.874518,-0.448242,27.872,3.6226,10.2183,0,0,3.44499,5
1774536646844,0.0512693,0.948969,-0.409915,28.0905,4.65137,13.9281,0,0,3.30049,5
1774536646857,0.0788555,0.895512,-0.443113,27.5143,5.89458,11.1436,0,0,3.25742,5
1774536646871,0.0871576,0.867189,-0.478757,20.6145,5.7716,6.62553,0,0,3.26723,5
1774536646884,0.0978996,0.881347,-0.480225,13.0529,3.62898,2.2052,0,0,3.24997,5
1774536646897,0.0681173,0.918943,-0.446536,11.6178,3.94499,1.8567,0,0,3.25386,5
1774536646911,0.0903305,0.919189,-0.454833,10.1903,2.79959,0.351003,0,0,3.27703,5
1774536646924,0.0827642,0.930175,-0.456787,8.20833,1.00891,-0.00585812,0,0,3.2578,5
1774536646937,0.0788577,0.926026,-0.464111,6.45149,-0.382391,-0.387415,0,0,3.25449,5
1774536646951,0.0781251,0.937499,-0.458741,5.58447,-1.50586,-0.921009,0,0,3.25816,5
1774536646964,0.070313,0.902102,-0.467285,2.76213,-1.67093,-0.323583,0,0,3.24955,5
1774536646977,0.0656742,0.952633,-0.457764,2.20886,-0.745064,1.434,0,0,3.25729,5
1774536646991,0.062012,0.919436,-0.465332,2.63149,0.353314,2.43016,0,0,3.24075,5
1774536647004,0.0673824,0.943846,-0.460205,1.43344,1.51331,3.98463,0,0,3.26151,5
1774536647020,0.0791007,0.974363,-0.44922,2.58207,2.37738,3.6885,0,0,3.27797,5
1774536647034,0.0766603,0.942141,-0.45874,2.23076,1.06759,3.0262,0,0,3.30271,5
1774536647048,0.0874016,0.948486,-0.461914,2.68476,1.81308,3.22041,0,0,3.26766,5
1774536647062,0.0900877,0.963378,-0.453614,2.18569,0.912876,2.16555,0,0,3.29392,5
1774536647076,0.0822759,0.932375,-0.456787,1.40845,-0.246142,2.08437,0,0,3.25197,5
1774536647091,0.0759282,0.951659,-0.458984,1.89073,-0.700032,1.74216,0,0,4.82244,5
1774536647104,0.0932605,0.962157,-0.460693,2.51597,-1.86444,-0.226845,0,0,3.25958,5
1774536647118,0.0866704,0.963135,-0.45752,3.04318,-2.58421,-1.80892,0,0,3.85607,5
1774536647131,0.0922848,0.933352,-0.464111,3.58509,-2.73968,-3.35111,0,0,3.27734,5
1774536647145,0.0827643,0.9458,-0.471435,4.57523,-2.38345,-4.42975,0,0,3.24345,5
1774536647158,0.0627455,0.931153,-0.468262,3.50912,-2.03988,-4.33634,0,0,3.27662,5
1774536647171,0.0529792,0.931396,-0.461915,3.16963,-1.43051,-4.00926,0,0,3.23695,5
1774536647186,0.0847146,0.917237,-0.466552,2.49192,-1.31356,-4.56973,0,0,3.2844,5
1774536647201,0.100585,0.906495,-0.455079,1.65303,-2.62705,-6.66895,0,0,4.52199,5
1774536647216,0.0864268,0.910644,-0.462158,1.03362,-3.98561,-8.9201,0,0,4.82242,5
1774536647229,0.0751961,0.941648,-0.45337,1.04574,-4.69115,-10.891,0,0,3.24273,5
1774536647243,0.0615244,0.934083,-0.462402,1.74461,-4.48196,-10.1791,0,0,3.73523,5
1774536647256,0.0578616,0.971677,-0.463867,2.46968,-3.84287,-9.49197,0,0,3.26855,5
1774536647270,0.0290548,0.955323,-0.475585,2.82267,-3.16368,-7.13387,0,0,3.25103,5
1774536647283,0.047362,0.944093,-0.470948,3.34093,-2.80332,-5.80812,0,0,3.27582,5
1774536647296,0.0380866,0.967528,-0.476318,3.77646,-2.02676,-3.84184,0,0,3.2539,5
1774536647310,0.0468744,0.952638,-0.468506,4.21158,-1.50641,-2.44967,0,0,3.28742,5
1774536647323,0.0515133,0.951904,-0.473632,5.01129,-1.54181,-2.29087,0,0,3.27277,5
1774536647337,0.0537108,0.948487,-0.465088,5.69887,-1.65592,-2.38883,0,0,3.2789,5
1774536647350,0.0551757,0.948975,-0.471191,6.196,-1.30708,-2.35893,0,0,3.45955,5
1774536647364,0.0505374,0.945557,-0.478515,6.25923,-1.28256,-2.07773,0,0,3.67495,3
1774536647378,0.046387,0.945801,-0.468507,6.47222,-1.06217,-0.838228,0,0,3.27566,3
1774536647391,0.0585929,0.938965,-0.478027,6.54924,-1.23578,-0.90805,0,0,3.25951,3
1774536647404,0.0473641,0.918947,-0.482177,5.60014,-1.57085,-0.66533,0,0,3.27899,3
1774536647418,0.0410161,0.921142,-0.472657,4.91942,-1.52694,-0.284338,0,0,3.28579,3
1774536647431,0.0500482,0.921631,-0.480956,4.23243,-1.67104,-0.366006,0,0,3.29727,3
1774536647445,0.0349132,0.934081,-0.488281,3.76568,-1.36792,0.233658,0,0,3.30814,3
1774536647458,0.0444329,0.927735,-0.482666,3.14051,-1.2145,0.943036,0,0,3.59149,3
1774536647472,0.0488278,0.941161,-0.48584,3.32731,-1.12259,0.931356,0,0,3.2669,5
1774536647485,0.0395514,0.950439,-0.481201,3.00162,-0.734754,1.97952,0,0,3.25925,5
1774536647499,0.0524893,0.938233,-0.480225,3.1899,-0.732834,1.76443,0,0,3.28371,5
1774536647512,0.0417488,0.930176,-0.480957,3.19843,-0.998677,1.42915,0,0,3.25938,5
1774536647525,0.0393068,0.937011,-0.481934,2.90224,-0.726545,1.73892,0,0,3.29434,5
1774536647539,0.0483392,0.922853,-0.488281,2.84,-0.284641,1.68728,0,0,3.42981,5
1774536647552,0.0498046,0.918946,-0.488769,2.2928,-0.692627,1.31483,0,0,3.3394,5
1774536647566,0.0483399,0.929687,-0.49414,1.83434,-0.611093,1.31299,0,0,3.28203,5
1774536647580,0.0522458,0.928223,-0.488038,1.39911,-0.519539,1.76113,0,0,3.59171,5
1774536647593,0.042237,0.921387,-0.487305,1.60204,-0.0253594,2.84955,0,0,3.28101,5
1774536647606,0.0439452,0.919922,-0.486572,1.38277,0.189769,3.05243,0,0,3.25916,5
1774536647620,0.0556632,0.929443,-0.489502,0.819596,-0.0294437,2.86354,0,0,3.28784,5
1774536647633,0.0544434,0.926514,-0.494873,0.604125,-0.0533163,2.72588,0,0,3.25721,5
1774536647647,0.0549316,0.927734,-0.486817,0.314418,-0.273713,2.59607,0,0,3.34769,5
1774536647660,0.0624995,0.924561,-0.499511,0.305388,-0.646998,2.0865,0,0,3.26468,5
1774536647674,0.0649412,0.925781,-0.493409,0.107853,-0.777974,1.59026,0,0,3.76371,5
1774536647688,0.056153,0.926025,-0.491943,-0.257723,-0.831793,1.3979,0,0,3.26638,5
1774536647701,0.0537111,0.936279,-0.487061,-0.631727,-1.05234,1.26023,0,0,3.2469,5
1774536647714,0.0634759,0.930909,-0.484619,-0.253789,-1.1142,0.856968,0,0,3.28914,5
1774536647728,0.0561529,0.925782,-0.486328,-0.692474,-1.20565,0.991696,0,0,3.2771,5
1774536647741,0.0454109,0.93042,-0.500731,-0.861753,-0.940252,1.37975,0,0,3.39334,5
1774536647755,0.0642077,0.923584,-0.486329,-1.13604,-0.711064,1.54878,0,0,3.25838,5
1774536647768,0.0607913,0.947752,-0.491211,-0.453776,-0.687142,1.85345,0,0,3.30088,5
1774536647782,0.0693353,0.944092,-0.490723,-0.093396,-1.37824,1.06499,0,0,3.27562,5
1774536647795,0.059571,0.93213,-0.496093,-0.129591,-1.57156,0.673702,0,0,3.59505,5
1774536647809,0.0546878,0.928467,-0.488526,-0.0462163,-1.27628,0.907235,0,0,3.28853,5
1774536647822,0.0654289,0.935302,-0.491699,-0.448381,-1.32039,0.764071,0,0,3.2741,5
1774536647836,0.0539559,0.93042,-0.487793,-0.67065,-1.47253,1.07479,0,0,3.29169,5
1774536647849,0.0541992,0.926514,-0.484375,-1.39335,-1.22262,1.13709,0,0,3.26325,5
1774536647862,0.0578611,0.920655,-0.48999,-1.79951,-1.45685,1.10702,0,0,3.27127,3
1774536647876,0.0642085,0.926269,-0.486573,-1.68758,-1.4732,0.628336,0,0,3.34106,3
1774536647890,0.054444,0.922119,-0.476807,-2.01364,-1.88346,0.428475,0,0,3.70336,3
1774536647903,0.0629877,0.929443,-0.483886,-1.77979,-2.07538,0.192016,0,0,3.27292,3
1774536647916,0.060547,0.92212,-0.493652,-1.82421,-2.37257,-0.0674116,0,0,3.25336,3
1774536647930,0.0624999,0.928466,-0.479005,-2.0599,-2.65508,-0.919425,0,0,3.29845,3
1774536647943,0.058594,0.919922,-0.486816,-2.01549,-2.92993,-1.44016,0,0,3.25514,3
1774536647957,0.0607909,0.924804,-0.481446,-1.94691,-2.9161,-1.64782,0,0,3.33401,3
1774536647970,0.0498055,0.922363,-0.489501,-2.0681,-2.87805,-1.67164,0,0,3.26777,3
1774536647984,0.044434,0.926025,-0.483155,-2.28138,-2.67278,-1.51224,0,0,3.74273,3
1774536647997,0.0517573,0.925293,-0.486572,-2.63944,-2.34514,-0.926578,0,0,3.27001,3
1774536648011,0.0446782,0.929931,-0.488037,-2.69438,-1.89537,-0.55908,0,0,3.24377,3
1774536648024,0.0476072,0.934326,-0.485352,-2.4288,-1.62729,-0.154684,0,0,3.27734,3
1774536648038,0.0502928,0.93457,-0.486572,-2.44268,-1.67154,-0.031149,0,0,3.25134,3
1774536648051,0.0551754,0.936279,-0.482178,-2.1617,-1.67175,-0.228028,0,0,3.29997,3
1774536648065,0.0468756,0.929444,-0.477051,-2.01599,-1.55782,-0.54043,0,0,3.28012,3
1774536648078,0.0573723,0.931152,-0.480224,-1.71144,-1.76234,-0.830617,0,0,3.38295,3
1774536648092,0.0507817,0.932861,-0.48706,-1.59599,-1.92287,-0.930799,0,0,3.35623,3
1774536648105,0.0551755,0.931397,-0.479981,-1.56504,-2.15153,-1.02244,0,0,3.54869,3
1774536648119,0.0534669,0.934082,-0.483642,-1.64084,-2.29699,-1.06088,0,0,3.27523,3
1774536648132,0.0517579,0.934326,-0.479737,-1.66401,-2.50279,-1.06107,0,0,3.26927,3
1774536648146,0.0468753,0.936279,-0.478516,-1.50461,-2.45064,-1.03069,0,0,3.2791,3
1774536648159,0.0383307,0.930176,-0.481201,-1.96716,-2.36683,-0.415276,0,0,3.26051,3
1774536648173,0.0478509,0.930664,-0.480469,-2.18214,-2.2069,-0.381846,0,0,3.33417,3
1774536648186,0.0471192,0.926514,-0.482422,-2.33512,-2.039,0.127238,0,0,3.25893,3
1774536648200,0.0473633,0.929687,-0.472169,-2.82201,-1.91664,0.137354,0,0,3.75825,3
1774536648213,0.0500486,0.944091,-0.475342,-2.93076,-1.9768,-0.23479,0,0,3.26238,3
1774536648227,0.050293,0.940186,-0.484374,-2.65025,-2.25055,-0.684784,0,0,3.26855,3
1774536648240,0.0568843,0.949462,-0.477051,-2.19311,-2.72284,-1.35544,0,0,3.47236,3
1774536648254,0.0429697,0.946778,-0.472657,-1.75029,-2.78595,-1.72336,0,0,3.26677,3
1774536648267,0.0539543,0.947266,-0.472168,-1.50504,-3.21922,-1.85431,0,0,3.30414,3
1774536648280,0.0422371,0.952148,-0.475097,-0.759435,-3.3429,-1.73343,0,0,3.26156,3
1774536648294,0.0405275,0.924562,-0.470459,-1.0064,-3.43466,-1.58851,0,0,3.28912,3
1774536648307,0.0354007,0.93579,-0.472412,-1.22791,-3.34396,-1.05608,0,0,3.26101,3
1774536648321,0.0292973,0.933594,-0.477295,-1.73032,-2.86498,-0.263485,0,0,3.52503,3
1774536648334,0.0322264,0.926026,-0.47876,-2.34807,-2.42205,1.0773,0,0,3.27788,3
1774536648348,0.0280765,0.940917,-0.478027,-2.71573,-2.19198,1.8739,0,0,3.24286,3
1774536648361,0.0290527,0.940186,-0.471436,-3.11253,-1.5452,2.66021,0,0,3.26588,3
1774536648374,0.0310057,0.928712,-0.468018,-3.13728,-1.07106,3.05149,0,0,3.24042,3
1774536648388,0.035156,0.933105,-0.473632,-3.35768,-0.734499,3.06862,0,0,3.24162,3
1774536648401,0.0390622,0.933838,-0.474365,-3.4879,-0.147956,2.93198,0,0,3.28088,3
1774536648414,0.0397949,0.937744,-0.473877,-3.88353,0.00686332,2.68824,0,0,3.26279,3
1774536648428,0.0422362,0.947997,-0.463136,-3.42214,0.258291,2.64905,0,0,3.57351,3
1774536648441,0.0434569,0.941895,-0.472411,-2.60711,0.0772367,2.50454,0,0,3.23525,3
1774536648455,0.0373539,0.946289,-0.472412,-2.08656,0.615642,2.77727,0,0,3.27142,3
1774536648468,0.0410154,0.952636,-0.467041,-1.84092,0.694265,3.44705,0,0,3.23762,3
1774536648481,0.0263682,0.964843,-0.463867,-0.966184,1.41626,4.90876,0,0,3.27188,3
1774536648495,0.0468736,0.954835,-0.465088,0.359815,1.94394,5.76672,0,0,3.2509,3
1774536648508,0.0314952,0.952637,-0.474365,1.28547,2.13645,7.06985,0,0,3.25134,3
1774536648521,0.0314941,0.940431,-0.46875,0.469707,3.48945,8.73219,0,0,3.25666,3
1774536648535,0.00634942,0.933106,-0.471191,-0.658509,5.01531,10.1988,0,0,3.26223,5
1774536648548,0.0280747,0.957518,-0.474853,-0.542562,7.00537,12.1126,0,0,3.25082,5
1774536648561,-0.00365989,0.943116,-0.466065,1.09111,9.36992,14.0742,0,0,3.2418,5
1774536648575,-0.0300275,0.978025,-0.461182,3.89445,13.3846,17.4716,0,0,3.41147,5
1774536648588,-0.0693332,1.00146,-0.479735,6.86309,18.9722,19.6685,0,0,3.34975,5
1774536648602,-0.130611,0.999268,-0.49536,9.5743,26.345,20.1275,0,0,3.33901,5
1774536648615,-0.291981,1.02344,-0.525389,13.454,35.261,18.3903,0,0,3.28169,5
1774536648629,-1.27044,1.03223,-0.591548,20.4461,73.4968,-40.744,0,0,3.54134,5
1774536648642,-0.694376,0.969731,-0.448985,29.7324,110.898,-58.0209,0,0,3.25995,5
1774536648656,-0.317409,0.919925,-0.388432,24.5221,126.465,-52.4324,0,0,3.24321,5
1774536648669,-0.357907,0.961179,-0.39624,26.8738,139.933,-55.4734,0,0,3.26143,5
1774536648682,-0.383787,0.919437,-0.388917,23.6041,156.847,-61.1246,0,0,3.24027,5
1774536648696,-0.371339,0.893312,-0.342288,20.7167,172.472,-66.8114,0,0,3.24679,5
1774536648709,-0.291265,0.940182,-0.326661,19.4946,186.404,-70.9869,0,0,3.24747,5
1774536648722,-0.182137,0.902591,-0.291262,15.8654,196.545,-77.0082,0,0,3.23634,5
1774536648736,0.0378264,0.891114,-0.25635,10.9633,198.502,-77.0304,0,0,3.28351,5
1774536648749,0.297345,0.883057,-0.303708,6.3284,192.496,-74.7214,0,0,3.23992,5
1774536648763,0.575176,0.860353,-0.266848,0.471886,177.631,-66.7496,0,0,3.52547,5
1774536648776,0.800765,0.8147,-0.249513,-6.48447,153.259,-53.8201,0,0,3.27808,5
1774536648789,1.02977,0.815918,-0.254638,-16.0289,120.195,-35.002,0,0,3.25362,5
1774536648803,1.30027,0.818847,-0.288328,-25.0847,82.1663,-20.0439,0,0,3.2609,5
1774536648816,2.37517,1.49409,-0.128917,-14.0929,14.3603,24.1769,0,0,3.24636,5
1774536648829,0.271632,0.521797,-0.417949,-25.6676,-12.3632,-51.5241,0,0,3.25767,5
1774536648843,-0.134493,1.00851,-0.426757,-13.8983,-20.1521,-55.4158,0,0,3.26606,3
1774536648856,-0.088138,1.02368,-0.485347,-20.3344,-22.5302,-47.5582,0,0,3.27203,3
1774536648869,0.110826,0.740742,-0.47046,-8.31172,-24.0535,-46.585,0,0,3.24025,3
1774536648883,-0.141096,0.950425,-0.466065,-0.132298,-18.5161,-37.3209,0,0,3.25868,3
1774536648896,-0.122072,1.03173,-0.493895,-2.15027,-16.1492,-27.1195,0,0,3.24679,3
1774536648909,-0.0490774,0.903085,-0.485108,-4.21872,-11.3065,-18.3186,0,0,3.30514,3
1774536648923,-0.0690904,0.926512,-0.468263,-6.15069,-5.16035,-8.00551,0,0,3.28077,3
1774536648937,-0.0485854,0.951658,-0.473632,-8.67447,-0.359762,-0.275102,0,0,3.8747,3
1774536648950,0.111805,0.973387,-0.461915,-8.46668,0.446371,-1.29265,0,0,3.27136,3
1774536648963,0.0998544,0.966553,-0.443117,-5.78434,-1.15235,-7.00213,0,0,3.24212,3
1774536648977,0.0927739,0.961914,-0.454345,-3.12772,-4.19099,-13.5248,0,0,3.28195,3
1774536648990,0.068117,0.979735,-0.449707,-0.934576,-6.6063,-17.9551,0,0,3.24184,3
1774536649004,0.0363792,0.972901,-0.453857,0.92206,-8.7223,-20.3089,0,0,3.27799,3
1774536649017,0.0190442,0.974853,-0.446534,2.101,-10.1228,-21.0118,0,0,3.26367,3
1774536649030,-0.00610176,0.978759,-0.451904,4.11213,-10.464,-20.8481,0,0,3.24556,3
1774536649044,-0.0407691,0.948488,-0.459228,3.51442,-10.2985,-17.3836,0,0,3.27888,3
1774536649057,-0.0476069,0.963378,-0.467285,2.63795,-7.74553,-12.6799,0,0,3.23805,3
1774536649070,-0.0449221,0.948243,-0.459961,2.4665,-4.70976,-8.29662,0,0,3.29277,3
1774536649084,-0.0456542,0.954834,-0.462646,1.8352,-1.82352,-4.36308,0,0,3.24149,3
1774536649097,-0.0388188,0.928713,-0.461914,1.10288,0.325188,-1.34327,0,0,3.35536,3
1774536649111,0.000729654,0.945067,-0.458008,0.0510347,1.45241,0.183245,0,0,3.35468,3
1774536649125,-0.0170886,0.919924,-0.453125,-1.06316,3.12906,2.09735,0,0,3.70857,3
1774536649138,-0.0344226,0.942869,-0.459228,-1.57,3.13736,4.3096,0,0,3.28058,3
1774536649151,-0.0263678,0.93213,-0.464355,-2.34728,3.3197,6.43978,0,0,3.24667,3
1774536649165,-0.0170905,0.935303,-0.462402,-5.16157,3.22186,8.45562,0,0,3.27432,3
1774536649178,0.00707839,0.948241,-0.446046,-4.57544,2.38584,8.50358,0,0,3.24303,3
1774536649191,0.00585946,0.95166,-0.449951,-3.737,1.69048,7.68347,0,0,3.29584,3
1774536649205,0.00122103,0.952881,-0.449951,-3.33786,1.55032,7.20847,0,0,3.25988,3
1774536649218,0.0197741,0.941407,-0.448242,-2.51554,2.21046,5.55023,0,0,3.25838,3
1774536649232,0.0156253,0.938721,-0.457519,-1.53161,2.35804,3.76461,0,0,3.27725,5
1774536649245,0.0114749,0.952392,-0.447999,-0.896291,3.36902,2.09989,0,0,3.26858,5
1774536649258,0.0256338,0.93091,-0.459228,-0.718442,2.71319,-0.407373,0,0,3.3058,5
1774536649272,0.00976674,0.926758,-0.452637,-0.907457,3.18088,-1.42243,0,0,3.26029,5
1774536649288,-0.0104966,0.935546,-0.465575,-1.76672,3.51741,-1.03247,0,0,3.74747,5
1774536649301,-0.00561558,0.938476,-0.448976,-2.21912,1.68089,0.230358,0,0,3.29845,5
1774536649316,-0.0104977,0.943603,-0.445069,-3.0645,1.4971,2.00643,0,0,5.02533,5
1774536649329,-0.00805681,0.955566,-0.450195,-3.41809,1.89876,3.39766,0,0,3.26669,5
1774536649344,-0.00854489,0.957275,-0.448242,-3.50339,2.21978,5.22754,0,0,4.09325,5
1774536649357,0.000487649,0.959961,-0.450928,-3.33671,2.20617,5.89743,0,0,3.32871,5
1774536649370,0.00732374,0.951905,-0.437501,-2.95609,2.69983,7.03252,0,0,3.24101,5
1774536649384,0.0158685,0.962157,-0.447753,-2.68835,3.35552,7.6458,0,0,3.2763,5
1774536649397,0.0251458,0.958496,-0.458251,-2.21609,3.2904,7.48173,0,0,3.24306,5
1774536649411,0.000734131,0.960693,-0.441163,-2.09222,4.08004,8.54433,0,0,3.28255,5
1774536649424,0.00317366,0.960693,-0.433838,-1.59788,4.48653,8.40527,0,0,3.24442,5
1774536649438,0.0122064,0.948975,-0.449462,-0.828257,4.83795,8.94389,0,0,3.29529,5
1774536649451,0.00756868,0.956054,-0.448242,-0.718105,5.62205,9.78969,0,0,3.28327,5
1774536649465,0.0170892,0.942872,-0.431642,-0.208642,6.0513,9.63436,0,0,3.72125,5
1774536649478,0.0258783,0.925294,-0.44287,-0.449185,6.74464,8.98795,0,0,3.26092,5
1774536649492,0.0224612,0.93164,-0.438477,-1.53657,7.39372,7.45799,0,0,3.23575,5
1774536649505,0.00195456,0.938232,-0.466307,-2.15722,9.99469,6.15154,0,0,3.24808,5
1774536649518,0.0275861,0.951415,-0.458985,-1.87165,11.8685,4.22333,0,0,3.23777,5
1774536649532,0.0493149,0.960937,-0.467529,-1.20181,13.359,2.11735,0,0,3.26616,5
1774536649545,0.0136744,0.979247,-0.431399,-0.454102,15.6831,-0.141434,0,0,3.27299,5
1774536649558,0.0114748,0.942385,-0.460935,-0.526358,18.657,-3.19093,0,0,3.26555,5
1774536649572,0.0278309,0.986081,-0.444337,-1.13438,21.7024,-5.6063,0,0,3.24877,5
1774536649585,-0.043452,0.953616,-0.467528,-2.10206,27.3839,-4.83589,0,0,3.23392,5
1774536649598,-0.0231948,0.961913,-0.445558,-2.05368,32.1443,-4.85487,0,0,3.25068,5
1774536649612,-0.0849566,0.945314,-0.441162,-2.98012,41.2144,-3.73078,0,0,3.24014,5
1774536649628,-0.167475,0.956054,-0.462889,-3.28095,60.226,-9.25496,0,0,3.35971,5
1774536649642,-0.35692,0.946778,-0.457276,-3.15331,92.0326,-16.3996,0,0,3.3746,5
1774536649655,-0.568589,0.98364,-0.465576,-1.71707,144.707,-32.3405,0,0,3.34718,5
1774536649669,-0.780259,0.951907,-0.450196,-0.752889,218.427,-54.265,0,0,3.25506,5
1774536649682,-0.661141,0.92383,-0.35572,3.61947,249.973,-82.5311,0,0,3.25834,5
1774536649695,-0.18851,0.952391,-0.332765,-0.582149,250.129,-96.3511,0,0,3.25949,5
1774536649709,0.00267217,0.974608,-0.2544,0.779485,250.13,-102.876,0,0,3.23608,5
1774536649722,0.0676224,0.958741,-0.241456,1.84204,250.13,-104.989,0,0,3.25058,5
1774536649735,0.122799,1.0061,-0.249999,2.80437,250.13,-104.407,0,0,3.23271,5
1774536649749,0.0947285,1.02539,-0.20557,4.98913,250.13,-101.45,0,0,3.3051,5
1774536649762,0.160152,1.00708,-0.150639,5.60001,250.13,-97.8804,0,0,3.25364,5
1774536649775,0.0971724,1.02002,-0.167235,7.44882,250.13,-95.4244,0,0,3.24703,5
1774536649789,0.0859383,1.04907,-0.213132,8.92396,250.13,-95.3667,0,0,3.27064,5
1774536649802,0.119138,1.02564,-0.187014,10.9897,250.13,-95.374,0,0,3.33912,5
1774536649816,0.132079,1.01538,-0.189209,11.2354,250.13,-95.7083,0,0,3.29218,5
1774536649829,0.128906,1.06445,-0.200927,12.4975,250.13,-95.6795,0,0,3.24779,5
1774536649842,0.130859,1.02271,-0.21411,12.6177,250.13,-93.0285,0,0,3.27495,5
1774536649856,0.112794,1.03369,-0.241697,11.9575,250.13,-87.7818,0,0,3.27386,5
1774536649869,0.129882,1.03101,-0.257811,13.048,246.279,-81.3374,0,0,3.25766,5
1774536649882,0.0488338,1.01441,-0.253662,14.3371,239.401,-76.4442,0,0,3.25251,5
1774536649896,-0.0214795,1.0188,-0.307369,17.321,238.015,-73.2829,0,0,3.23538,5
1774536649909,-0.0861771,1.02588,-0.347898,20.1842,238.403,-70.9657,0,0,3.25045,5
1774536649922,-0.0871581,1.02661,-0.317873,23.6697,239.43,-72.0253,0,0,3.23508,5
1774536649936,-0.112303,1.03882,-0.362057,26.2087,242.018,-74.1649,0,0,3.28914,5
1774536649949,-0.181148,1.05517,-0.322513,31.7966,247.439,-80.1686,0,0,3.26917,5
1774536649963,-0.282952,1.06128,-0.308106,35.9716,250.116,-88.774,0,0,3.31949,5
1774536649976,-0.25635,1.0398,-0.276125,38.0583,250.13,-96.6934,0,0,3.26499,5
1774536649989,-0.30859,0.99097,-0.221195,36.314,250.13,-103.987,0,0,3.23432,5
1774536650003,-0.339109,1.0974,-0.246824,39.2146,250.13,-103.096,0,0,3.25194,5
1774536650016,-0.130874,0.991707,-0.109873,41.371,250.13,-116.042,0,0,3.23527,5
1774536650029,0.167215,1.23802,-0.195062,16.3155,250.13,-95.1194,0,0,3.26436,5
1774536650043,0.00245294,0.892114,-0.112555,24.6,234.315,-96.4438,0,0,3.23514,5
1774536650056,0.247786,1.30783,-0.212151,22.2711,219.835,-64.0543,0,0,3.27917,5
1774536650069,-0.063943,1.16163,-0.155033,31.9746,208.423,-71.2011,0,0,3.24777,5
1774536650083,-0.0646972,1.09766,-0.122805,37.7423,188.504,-77.0169,0,0,3.2449,5
1774536650096,-0.0595707,1.02271,-0.246573,29.7497,176.897,-60.1754,0,0,3.24904,5
1774536650109,-0.128169,1.05737,-0.357902,34.5031,176.749,-57.0157,0,0,3.23529,5
1774536650123,-0.323717,0.799823,-0.36084,28.2753,189.091,-67.3456,0,0,3.25164,5
1774536650136,-0.0881513,0.905266,-0.302006,25.3276,196.756,-75.2052,0,0,3.28455,5
1774536650150,0.183819,0.937742,-0.31372,20.3682,194.272,-75.677,0,0,3.43684,5
1774536650166,0.35326,0.908693,-0.273929,16.1659,182.828,-71.0991,0,0,3.29677,5
1774536650181,0.479239,0.872805,-0.255372,10.6534,169.775,-70.7802,0,0,4.88829,5
1774536650195,0.692856,0.840823,-0.256348,2.85559,147.166,-64.2462,0,0,3.25886,5
1774536650208,0.807121,0.80762,-0.270507,-5.57637,122.094,-54.2938,0,0,3.26455,5
1774536650221,0.887201,0.788087,-0.312985,-15.2648,95.1873,-39.3795,0,0,3.25377,5
1774536650235,0.90161,0.796874,-0.336668,-22.7186,68.2865,-25.0256,0,0,3.23669,5
1774536650248,0.823492,0.715582,-0.31299,-33.3745,41.682,-18.3158,0,0,3.24614,5
1774536650261,0.737799,1.19284,-0.464345,-53.9207,16.2867,-38.3887,0,0,3.27269,5
1774536650275,0.574718,0.432182,-0.26686,-22.3707,-9.86227,-49.9957,0,0,3.28218,3
1774536650288,-0.195747,1.36834,-0.48436,-0.171515,-13.3035,-40.4293,0,0,3.24699,3
1774536650301,-0.141849,0.770061,-0.511961,-15.0177,-13.1154,-22.9572,0,0,3.25577,3
1774536650315,-0.0617732,0.835933,-0.45142,-11.5288,-7.59236,-17.3409,0,0,3.24621,3
1774536650328,-0.0134311,0.981435,-0.456543,-13.9422,-5.33186,-12.0492,0,0,3.65418,3
1774536650342,0.00707864,0.957765,-0.432863,-13.3541,-3.17106,-5.9388,0,0,3.25988,3
1774536650355,0.00463884,0.994382,-0.447509,-10.7154,-1.02594,-2.04988,0,0,3.26656,3
1774536650369,-0.000976169,1.02002,-0.431153,-8.32487,1.92425,1.63814,0,0,3.27317,3
1774536650382,0.0319801,0.996095,-0.433105,-5.23674,4.11885,4.99095,0,0,3.25008,3
1774536650395,0.0534653,0.996338,-0.438232,-2.33505,4.78296,5.04553,0,0,3.25934,3
1774536650409,0.0832499,0.966311,-0.42212,-1.15853,4.77105,3.79249,0,0,3.25512,3
1774536650422,0.0878903,0.963135,-0.43872,0.0930099,3.76835,0.861909,0,0,3.23825,3
1774536650435,0.0898436,0.961426,-0.444091,0.570145,1.91001,-1.57566,0,0,3.25125,3
1774536650449,0.0842289,0.942384,-0.432618,0.390208,-0.0892896,-3.58542,0,0,3.23977,3
1774536650462,0.0683605,0.962889,-0.427979,0.298168,-2.4235,-4.41572,0,0,3.28975,3
1774536650475,0.0402852,0.945558,-0.42334,-0.120057,-3.05032,-3.72101,0,0,3.24116,3
1774536650489,0.0480952,0.962401,-0.419678,0.493132,-3.68387,-2.98078,0,0,3.28432,3
1774536650502,0.0178244,0.943849,-0.43994,0.222719,-2.7907,-0.212247,0,0,3.25597,3
1774536650515,0.0327138,0.969481,-0.438233,1.20883,-1.46461,2.42201,0,0,3.24556,3
1774536650529,0.0554183,0.949708,-0.449218,1.54034,-0.873172,2.45784,0,0,3.25342,3
1774536650542,0.0520022,0.949951,-0.444336,0.972292,-0.163834,2.78463,0,0,3.23816,5
1774536650555,0.0588374,0.956787,-0.434083,1.17457,0.705598,2.3457,0,0,3.41529,5
1774536650569,0.0693352,0.947999,-0.444091,1.17557,0.299729,1.43203,0,0,3.23403,5
1774536650582,0.0659182,0.968016,-0.439209,1.02366,-0.0213035,1.35914,0,0,3.27921,5
1774536650596,0.056153,0.956544,-0.439697,0.521582,-0.509024,1.41195,0,0,3.25119,5
1774536650609,0.0393078,0.963867,-0.438477,0.154498,-0.724121,2.12622,0,0,3.25201,5
1774536650622,0.0488275,0.971191,-0.435791,-0.356238,-1.49996,2.9425,0,0,3.25236,5
1774536650636,0.0502929,0.969971,-0.442138,0.104578,-1.76205,3.5618,0,0,3.23369,5
1774536650649,0.0600579,0.974609,-0.434083,1.77034,-2.00642,2.74452,0,0,3.24949,5
1774536650664,0.0551761,0.955812,-0.435547,2.31029,-2.19752,2.23916,0,0,3.35049,5
1774536650678,0.0478521,0.962158,-0.427491,2.20662,-1.43129,2.5101,0,0,3.49982,5
1774536650691,0.0581048,0.953126,-0.447264,3.60374,-1.00973,2.0405,0,0,3.3158,5
1774536650705,0.0527348,0.959716,-0.447754,3.48152,-0.248064,2.27365,0,0,3.28264,5
1774536650718,0.0529785,0.933351,-0.440674,3.17709,0.0899215,2.38114,0,0,3.25714,5
1774536650731,0.0554198,0.939941,-0.449706,2.81858,0.403022,2.36649,0,0,3.24358,5
1774536650745,0.0681143,0.941406,-0.441895,1.97367,-0.172708,1.72077,0,0,3.25116,5
1774536650758,0.0583503,0.949218,-0.444336,1.80238,-0.745243,2.12775,0,0,3.26547,5
1774536650771,0.0556643,0.947266,-0.442383,1.38376,-1.03672,2.06899,0,0,3.25429,5
1774536650785,0.0468756,0.951416,-0.441895,1.16901,-1.00018,2.85107,0,0,3.2429,5
1774536650798,0.0534663,0.958496,-0.443603,1.29707,-0.878468,3.50818,0,0,3.27105,5
1774536650811,0.0627435,0.955567,-0.445557,1.60154,-0.786716,3.19241,0,0,3.24806,5
1774536650825,0.0593264,0.959472,-0.449707,2.14235,-0.86222,3.19085,0,0,3.24512,5
1774536650838,0.0646969,0.960205,-0.446778,2.74509,-0.672699,3.16046,0,0,3.26375,5
1774536650852,0.0537117,0.953858,-0.432862,3.20382,-0.390716,3.44135,0,0,3.64016,5
1774536650865,0.0642082,0.955322,-0.444335,4.26951,0.0664279,3.24525,0,0,3.28192,5
1774536650879,0.0576176,0.955322,-0.456298,4.90523,0.547226,3.33543,0,0,3.24593,5
1774536650892,0.0600584,0.951416,-0.449952,5.00713,0.709118,3.00926,0,0,3.29084,5
1774536650905,0.0683588,0.94336,-0.455078,5.20512,0.459258,2.3544,0,0,3.25418,5
1774536650919,0.0764155,0.953857,-0.454102,4.99342,-0.00532218,1.75869,0,0,3.25888,5
1774536650932,0.0776366,0.957031,-0.443848,6.21529,-0.121559,0.867032,0,0,3.26888,5
1774536650945,0.076172,0.968993,-0.447265,7.12524,-0.60067,-0.504626,0,0,3.24586,5
1774536650959,0.0700688,0.958253,-0.454589,8.07922,-0.785341,-0.936781,0,0,3.50275,5
1774536650972,0.0671389,0.952881,-0.457519,8.75997,-1.0749,-1.37948,0,0,3.23595,5
1774536650986,0.0634768,0.965087,-0.466796,9.96348,-0.0660878,-1.15379,0,0,3.29705,5
1774536650999,0.0410172,0.985106,-0.454347,11.2076,0.956743,-0.453864,0,0,3.25651,5
1774536651012,0.0637191,1.00757,-0.483396,14.2216,-1.57519,-0.495974,0,0,3.31681,5
1774536651026,0.078124,1.02344,-0.473633,16.3862,-1.86877,2.2459,0,0,3.26977,5
1774536651039,0.0151411,1.05005,-0.375495,23.5218,-0.586532,4.65975,0,0,3.25038,5
1774536651052,0.0610319,2.21037,-0.662333,32.5353,-6.63403,13.5664,0,0,3.27682,5
1774536651066,0.323224,1.37115,-0.543465,84.482,-4.0814,33.4887,0,0,3.2671,5
1774536651079,0.321289,2.23822,-0.563475,105.985,-19.0857,16.9753,0,0,3.29045,5
1774536651093,0.241705,2.15967,-0.48316,154.036,-22.5249,8.34827,0,0,3.24464,5
1774536651106,0.613743,1.85329,-0.531003,178.223,-38.6298,12.1794,0,0,3.26708,5
1774536651119,0.547856,1.79663,-0.419686,197.089,-54.4936,22.8553,0,0,3.27627,5
1774536651133,0.339126,1.56813,-0.387209,208.835,-69.4371,-4.90008,0,0,3.26286,5
1774536651146,-0.23287,0.230806,-0.124774,176.755,-74.9269,-62.644,0,0,3.27325,5
1774536651159,0.153782,0.211671,0.0832374,63.5252,-64.9504,-24.085,0,0,3.26982,5
1774536651173,0.215816,1.38761,-0.23777,39.4556,-56.9786,20.6173,0,0,3.28197,5
1774536651186,-0.0883576,1.11354,-0.206301,53.4039,-52.055,25.3429,0,0,3.35236,5
1774536651200,-0.426246,0.676544,-0.0886313,39.0941,-38.1531,4.50064,0,0,3.41488,5
1774536651213,-0.350347,0.52711,-0.0346717,11.0176,-16.4287,-8.1432,0,0,3.31879,5
1774536651227,-0.0901061,0.628411,-0.0324709,-6.02969,-3.05888,-1.25564,0,0,3.29619,3
1774536651240,0.0141529,0.49415,0.0253866,-20.5765,0.531754,13.6206,0,0,3.28592,3
1774536651253,0.0122072,0.347911,0.0871539,-40.9976,-0.0809213,19.6038,0,0,3.25145,3
1774536651267,-0.0112288,0.376707,0.122312,-59.4122,-2.08924,19.3904,0,0,3.28197,3
1774536651280,-0.0119628,0.394774,0.138427,-73.0467,-5.95785,21.2579,0,0,3.2433,3
1774536651293,-0.0456519,0.350345,0.166502,-89.2704,-9.46347,22.2546,0,0,3.29758,3
1774536651307,-0.0583487,0.375242,0.165772,-105.188,-10.3468,21.4923,0,0,3.24651,3
1774536651320,-0.0312519,0.433834,0.17041,-120.58,-9.96374,24.4357,0,0,3.2771,3
1774536651334,-0.0305176,0.437256,0.170654,-137.185,-9.53648,30.3902,0,0,3.27034,3
1774536651347,-0.0861777,0.599354,0.127689,-151.486,-6.56441,32.6832,0,0,3.24575,3
1774536651360,-0.151363,0.685541,0.0908229,-162.328,-0.321138,30.7881,0,0,3.27105,3
1774536651374,-0.193356,0.745845,0.0515164,-174.55,8.44494,26.8972,0,0,3.30169,3
1774536651388,-0.181153,0.845696,0.0156275,-184.652,18.4844,25.2752,0,0,3.31017,3
1774536651401,-0.147463,0.985098,-0.0331997,-189.609,27.7022,23.6113,0,0,3.26199,3
1774536651414,-0.127931,0.999511,-0.0578596,-195.437,35.1993,18.7038,0,0,3.28277,5
1774536651428,-0.0893582,1.06958,-0.0698234,-202.233,41.07,10.7115,0,0,3.2658,5
1774536651441,0.0146412,1.10473,-0.0539562,-213.296,44.7755,2.01274,0,0,3.24838,5
1774536651454,0.119622,1.23827,-0.100827,-221.44,46.2066,-1.82062,0,0,3.27118,5
1774536651468,0.192622,1.31738,-0.152584,-226.464,48.1962,2.49,0,0,3.27205,5
1774536651481,0.195068,1.36963,-0.213619,-231.904,53.1205,9.59063,0,0,3.30216,5
1774536651494,0.165529,1.48778,-0.287592,-228.794,59.9887,13.0743,0,0,3.25988,5
1774536651508,0.148195,1.5747,-0.385979,-218.669,68.9478,13.0383,0,0,3.27308,5
1774536651521,0.187497,1.63696,-0.484368,-203.898,74.5902,5.51833,0,0,3.26612,5
1774536651535,0.312003,1.58399,-0.56933,-190.676,77.6413,1.53129,0,0,3.28167,5
1774536651548,0.409905,1.6748,-0.674309,-171.986,76.5019,1.91413,0,0,3.27673,5
1774536651561,0.419677,1.64722,-0.761713,-147.39,74.5745,8.03064,0,0,3.24666,5
1774536651575,0.296884,1.58033,-0.798093,-117.264,74.9219,12.0411,0,0,3.29032,5
1774536651588,0.311278,1.38307,-0.718511,-88.7905,72.3791,4.2373,0,0,3.30414,5
1774536651601,0.40722,1.24464,-0.741942,-69.8348,61.74,11.954,0,0,3.31784,5
1774536651618,0.462398,1.0381,-0.651374,-51.7769,38.4441,16.2686,0,0,3.27219,5
1774536651633,0.473144,1.13866,-0.546638,-35.2578,14.3033,12.4085,0,0,4.88505,5
1774536651647,0.456544,0.998301,-0.365003,-19.1716,-12.7357,16.4608,0,0,3.24612,5
1774536651660,0.339852,0.979005,-0.15187,-9.89349,-33.0364,18.8203,0,0,3.80657,5
1774536651674,0.207529,0.87989,-0.0119727,-5.17614,-45.7915,13.3782,0,0,3.28566,5
1774536651687,0.207764,0.942134,0.0417443,0.338973,-53.2833,9.1508,0,0,3.23967,5
1774536651701,0.205567,0.906253,0.0397951,5.72891,-56.4803,11.401,0,0,3.27882,5
1774536651714,0.188478,0.934324,-0.00976216,11.5436,-58.152,15.6658,0,0,3.28264,5
1774536651729,0.23071,1.90936,0.0146467,6.48319,-65.3991,-33.7617,0,0,5.16653,5
1774536651743,1.73451,-1.45509,1.20011,248.924,-75.1576,-129.691,0,0,3.26897,3
1774536651756,-0.644121,3.9995,0.277897,222.589,-64.0932,-82.859,0,0,3.31966,3
1774536651769,-0.335471,-0.202098,0.176765,196.223,-9.28794,-30.5807,0,0,3.27327,3
1774536651783,0.0322008,0.593938,0.200926,235.355,-1.40563,-33.7324,0,0,3.95055,3
1774536651797,0.0224616,1.11373,-0.0373368,230.004,-4.32897,-27.1701,0,0,3.27662,3
1774536651810,-0.028805,1.11914,-0.160636,205.2,-11.681,-9.56089,0,0,3.24847,3
1774536651824,0.00195097,1.03541,-0.148927,185.07,-20.1183,5.39126,0,0,3.27599,3
1774536651837,-0.0585895,0.981205,-0.194821,174.457,-18.0333,14.322,0,0,3.24516,3
1774536651852,0.00390188,0.9397,-0.229002,160.641,-12.7894,16.85,0,0,3.28053,3
1774536651866,-0.0153795,0.84571,-0.324944,140.133,-3.02568,17.455,0,0,3.84245,3
1774536651879,0.0390587,0.954338,-0.335937,122.318,2.56759,18.8632,0,0,3.28277,3
1774536651893,0.0646955,0.937989,-0.369382,109.917,0.741908,16.6522,0,0,4.3651,3
1774536651907,0.0397967,0.892093,-0.384765,97.4589,-1.65221,14.6284,0,0,3.64577,3
1774536651921,0.0693339,0.898925,-0.392089,84.6895,-3.43388,10.661,0,0,3.26543,3
1774536651934,0.0788568,0.871828,-0.357668,74.7669,-2.97176,5.62809,0,0,3.28667,3
1774536651948,0.0954578,0.728526,-0.609113,60.9238,-4.79247,-3.03324,0,0,3.27158,3
1774536651961,-0.0156172,0.98216,-0.50904,46.9398,-3.63932,-6.22838,0,0,3.27316,3
1774536651975,0.0104962,0.916264,-0.433843,40.7332,-1.02826,-4.12497,0,0,3.59321,3
1774536651989,0.0251455,0.996821,-0.43042,40.71,0.929192,-0.362232,0,0,3.27662,5
1774536652002,0.0830038,0.792983,-0.530511,34.2535,3.10369,0.226081,0,0,3.27429,5
1774536652015,0.0273476,0.819578,-0.510499,19.8883,4.34497,1.74815,0,0,3.27595,5
1774536652029,0.0446765,1.00926,-0.436284,16.4674,4.9208,6.10048,0,0,3.70906,5
1774536652043,0.0539544,0.900398,-0.466306,15.3643,3.921,6.58537,0,0,3.27995,5
1774536652056,0.0773909,1.01293,-0.450441,14.7056,3.58184,6.91439,0,0,3.27686,5
1774536652070,0.0854487,0.927252,-0.466063,12.2489,1.59006,4.37903,0,0,3.28616,5
1774536652083,0.0935053,0.916749,-0.453126,10.4593,0.00787179,2.36878,0,0,3.28001,5
1774536652096,0.0895999,0.910645,-0.462402,9.2351,-1.23048,-0.641512,0,0,3.30664,5
1774536652110,0.0690932,0.977534,-0.456299,8.32514,-1.45689,-0.489307,0,0,3.2654,5
1774536652124,0.0834951,0.973389,-0.45459,9.1106,-1.62512,-1.6659,0,0,3.58288,5
1774536652137,0.0698252,0.950685,-0.44629,9.60821,-0.972712,-2.13507,0,0,3.27469,5
1774536652150,0.0622564,0.938477,-0.449951,9.26886,-1.31889,-3.01851,0,0,3.24745,5
1774536652164,0.0761709,0.956053,-0.43921,10.1331,-0.81928,-3.42546,0,0,3.28179,5
1774536652177,0.0769042,0.944337,-0.467527,10.3501,-2.23722,-4.92384,0,0,3.50232,5
1774536652191,0.0639657,0.954101,-0.466553,10.5258,-3.06459,-4.96924,0,0,3.30258,5
1774536652204,0.0585941,0.937501,-0.465576,10.8609,-3.49405,-5.41002,0,0,3.25573,5
1774536652218,0.0661616,0.927247,-0.458252,10.6423,-4.26335,-5.39701,0,0,3.29429,5
1774536652231,0.0510265,0.931884,-0.471191,10.2462,-4.29754,-5.4729,0,0,3.33992,5
1774536652245,0.0471194,0.941406,-0.468506,9.45432,-4.35088,-4.79725,0,0,3.65486,5
1774536652258,0.0419925,0.926759,-0.463135,9.21493,-4.16884,-4.77112,0,0,3.28493,5
1774536652272,0.0363773,0.920411,-0.478759,8.82636,-3.90209,-4.04939,0,0,3.24647,5
1774536652286,0.050292,0.935302,-0.473877,8.61935,-3.55136,-4.25091,0,0,3.29367,5
1774536652299,0.0456546,0.939209,-0.483154,9.06648,-3.2306,-4.28229,0,0,3.25023,5
1774536652313,0.0468749,0.936035,-0.479737,9.58521,-3.00114,-4.26725,0,0,4.43429,5
1774536652327,0.0493162,0.932617,-0.48291,8.95732,-2.52907,-4.17603,0,0,3.25893,5
1774536652340,0.0239276,0.927002,-0.486328,8.68077,-2.80777,-2.97544,0,0,3.28729,5
1774536652354,0.0544412,0.945555,-0.48291,9.25668,-3.18894,-3.22775,0,0,3.26619,5
1774536652367,0.0258809,0.942627,-0.491943,8.72782,-3.85926,-1.93012,0,0,3.24234,3
1774536652380,0.0288084,0.925782,-0.498046,9.30248,-3.53596,-0.753943,0,0,3.27542,3
1774536652394,0.0346676,0.938964,-0.491456,8.74324,-2.7444,1.03689,0,0,3.24684,3
1774536652407,0.036621,0.937744,-0.493896,8.78605,-2.27713,2.66366,0,0,3.33127,3
1774536652420,0.0271003,0.9209,-0.499755,8.61156,-2.03176,3.01353,0,0,3.27545,3
1774536652434,0.0537091,0.972653,-0.500244,9.4918,-2.20524,2.7646,0,0,3.28192,3
1774536652447,0.0483402,1.02856,-0.510009,12.4965,-2.41119,3.53054,0,0,3.28025,3
1774536652461,0.0534664,1.00025,-0.497559,14.5091,-3.72628,2.77475,0,0,3.23595,3
1774536652474,0.100339,0.98462,-0.49707,14.5038,-6.22421,4.40411,0,0,3.27736,3
1774536652487,0.135007,1.02392,-0.510741,19.5398,-9.8142,5.03503,0,0,3.2661,3
1774536652501,0.145263,1.28099,-0.542478,29.3026,-13.1741,3.37467,0,0,3.28677,3
1774536652514,-0.0451527,1.34985,-0.609859,38.0329,-5.83043,13.5752,0,0,3.24106,3
1774536652527,-0.0737285,1.25513,-0.593263,62.2004,-2.87729,25.3308,0,0,3.28388,3
1774536652541,-0.0583507,1.28882,-0.62988,60.9604,-1.67772,39.54,0,0,3.25762,3
1774536652554,-0.0661616,1.78805,-0.634277,87.4408,-0.198201,22.3299,0,0,3.24671,5
1774536652567,0.0419846,1.4905,-0.552496,112.866,-0.783348,28.3365,0,0,3.29534,5
1774536652581,-0.115223,1.30299,-0.566405,128.168,3.20914,26.6952,0,0,3.30293,5
1774536652594,0.106186,1.23926,-0.510746,147.363,2.46173,19.0837,0,0,3.31436,5
1774536652608,0.101563,1.41307,-0.531493,159.429,0.8933,24.5833,0,0,3.27021,5
1774536652621,0.190179,1.64256,-0.569333,184.311,-3.3909,22.1115,0,0,3.41901,5
1774536652635,0.252681,1.90648,-0.510502,223.378,-10.1648,13.5844,0,0,3.28042,5
1774536652648,0.322261,2.00488,-0.53369,249.997,-19.7842,9.48604,0,0,3.74001,5
1774536652662,0.360349,2.30369,-0.534424,250.129,-32.2282,1.45978,0,0,3.27725,5
1774536652675,0.431147,2.75998,-0.607905,250.13,-44.0177,7.11689,0,0,3.25136,5
1774536652688,0.136983,2.44973,-0.681147,250.13,-44.4938,9.90977,0,0,3.28082,5
1774536652702,-0.0182997,2.20534,-0.572273,250.13,-39.7792,15.2027,0,0,3.25503,5
1774536652715,0.211166,1.4771,-0.59741,250.13,-40.6597,37.0972,0,0,3.40388,5
1774536652729,-0.28146,1.78367,-0.668696,250.13,-23.057,20.1606,0,0,3.24144,5
1774536652743,0.219936,1.52492,-0.260771,250.13,-16.4679,58.1621,0,0,4.06764,5
1774536652756,0.328606,1.90061,0.0573508,250.13,-21.6916,110.989,0,0,3.28873,5
1774536652770,0.399409,1.70338,0.672808,250.13,-36.909,140.692,0,0,3.29451,5
1774536652783,2.79547e-05,0.927789,-0.166445,250.13,-53.7559,146.004,0,0,3.30071,5
1774536652796,-0.381809,-1.83867,0.420369,191.786,-36.2246,111.538,0,0,3.27253,5
1774536652810,-0.87521,-2.78973,0.504877,23.5014,4.00595,39.6705,0,0,3.29201,5
1774536652824,-0.611591,-0.554112,-0.0429304,-94.1247,33.4337,-61.8992,0,0,3.26903,5
1774536652837,-0.499275,0.197701,-0.17504,-143.411,47.2898,-153.271,0,0,3.40232,5
1774536652851,-0.109646,-0.0344076,0.0190294,-182.637,33.9519,-211.975,0,0,3.27553,5
1774536652864,0.194315,0.0673757,0.108636,-220.172,15.3521,-209.508,0,0,3.74488,1
1774536652878,0.396958,0.384988,-0.00951321,-240.585,3.79035,-148.464,0,0,3.2776,5
1774536652891,0.639631,0.235118,0.0222146,-250.09,-9.20253,-75.3257,0,0,3.26523,5
1774536652904,0.665526,0.0813096,0.0639619,-250.137,-25.5902,3.79718,0,0,3.28497,5
1774536652918,0.465834,0.331281,0.0212432,-250.137,-41.463,46.4063,0,0,3.25653,5
1774536652933,0.235612,0.457511,-0.0270962,-250.137,-50.8996,51.9571,0,0,4.86148,5
1774536652946,-0.0449022,0.363776,-0.0170905,-250.137,-53.4074,35.9043,0,0,3.27558,5
1774536652960,-0.224353,0.420162,-0.0344226,-250.137,-45.353,10.0371,0,0,3.84368,5
1774536652976,-0.212891,0.695781,-0.113764,-250.137,-30.9191,-7.59928,0,0,3.30705,5
1774536652989,-0.128668,0.888658,-0.24999,-250.137,-17.2968,-5.42304,0,0,3.2788,5
1774536653003,-0.0253979,1.0537,-0.352044,-250.137,-5.24318,7.26512,0,0,3.33073,5
1774536653016,-0.00146652,1.03858,-0.392087,-250.137,8.5421,26.1503,0,0,3.26397,5
1774536653030,-0.0158681,0.993655,-0.375734,-250.137,22.4575,33.042,0,0,3.30934,3
1774536653043,0.00854321,1.18236,-0.397704,-250.137,34.5277,30.3948,0,0,3.3098,3
1774536653059,-0.000731773,1.34398,-0.432126,-250.137,48.5486,35.9571,0,0,5.69446,3
1774536653072,-0.0790961,1.44091,-0.436523,-250.137,60.9839,40.9371,0,0,3.26321,3
1774536653086,-0.228261,1.57763,-0.491207,-250.137,77.0195,31.6113,0,0,3.94673,3
1774536653100,-0.253172,1.78758,-0.557368,-250.137,92.9513,9.49933,0,0,3.27325,3
1774536653113,-0.121103,1.92162,-0.664787,-250.137,106.71,-5.11811,0,0,3.26506,3
1774536653126,0.154766,2.00244,-0.787345,-250.137,112.771,-1.05077,0,0,3.26225,3
1774536653140,0.382552,2.13232,-0.965075,-250.137,111.548,15.194,0,0,3.27606,5
1774536653153,0.500968,2.18261,-1.17601,-250.137,108.185,28.286,0,0,3.2743,5
1774536653167,0.723617,2.32811,-1.39085,-250.137,88.9127,28.7762,0,0,3.2589,5
1774536653180,0.828606,2.11745,-1.57567,-208.839,58.0619,23.8793,0,0,3.28903,5
1774536653193,0.897212,1.53276,-1.61303,-166.197,20.5986,21.8042,0,0,3.27775,5
1774536653207,0.879152,1.43555,-1.79686,-123.335,-16.267,35.6791,0,0,3.29782,5
1774536653220,0.363806,1.35059,-1.93578,-69.7627,-36.6239,57.6388,0,0,3.26781,5
1774536653234,-0.197226,1.11427,-1.93945,-22.2972,-42.657,38.591,0,0,3.38408,5
1774536653247,-0.3994,0.963878,-1.86524,20.7553,-39.9144,-16.345,0,0,3.27423,5
1774536653260,-0.169694,1.06689,-1.74952,62.1452,-36.1865,-49.7119,0,0,3.25249,5
1774536653274,3.99959,3.99967,-1.34378,126.254,-123.877,-4.68965,0,0,3.40653,5
1774536653288,2.32556,-3.33298,-0.177084,150.817,-85.0481,-40.205,0,0,3.47695,5
1774536653304,0.570679,1.53359,0.360802,249.638,-43.7778,-74.7746,0,0,4.89544,5
1774536653317,-0.263613,2.02682,-0.0231665,250.127,-7.44793,-47.7604,0,0,3.2584,3
1774536653331,0.0624772,1.36797,-0.214586,250.13,6.5259,-38.4661,0,0,3.68745,3
1774536653344,0.0246609,0.962919,-0.304193,228.694,-2.23124,-24.7704,0,0,3.25306,3
1774536653358,0.0715299,0.73732,-0.360348,199.2,-14.0329,-13.7951,0,0,3.23991,3
1774536653371,-0.0341723,0.772458,-0.405759,163.893,-11.3492,5.30193,0,0,3.25571,3
1774536653384,-0.00659373,0.69068,-0.477778,138.979,-3.39074,10.7515,0,0,3.23397,3
1774536653398,-0.0646932,0.739987,-0.524899,109.855,3.92543,18.0932,0,0,3.29097,3
1774536653411,-0.0590824,0.785641,-0.448248,87.5765,9.90916,27.8218,0,0,3.23936,3
1774536653424,0.0344173,0.698737,-0.558586,67.1398,8.67029,26.3584,0,0,3.24706,3
1774536653438,0.00976735,0.934798,-0.446053,50.8596,9.96303,24.7713,0,0,3.29269,3
1774536653451,0.12963,0.833991,-0.449951,43.6921,8.4047,19.7654,0,0,3.35075,3
1774536653465,0.191158,0.761968,-0.464843,35.1114,5.31309,9.35713,0,0,3.73334,3
1774536653478,0.183594,0.797361,-0.476806,22.7561,1.28721,-5.19478,0,0,3.24169,3
1774536653492,0.163576,0.891595,-0.465089,13.4965,-2.88003,-14.1463,0,0,3.77331,3
1774536653506,0.111332,0.890869,-0.456544,11.1567,-3.9185,-18.938,0,0,3.25119,5
1774536653519,0.077395,0.886719,-0.461425,6.261,-4.19709,-21.2405,0,0,3.29543,5
1774536653532,0.0595716,0.908202,-0.442384,5.92533,-4.98843,-21.7456,0,0,3.24142,5
1774536653546,0.04712,0.997064,-0.449951,7.1466,-3.77702,-18.4895,0,0,3.27619,5
1774536653559,-0.00634391,0.971681,-0.445801,7.2286,-2.1759,-13.2702,0,0,3.25086,5
1774536653572,-0.00195343,0.969483,-0.459472,8.07973,-0.474116,-6.86393,0,0,3.23973,5
1774536653586,0.00756769,0.989745,-0.459961,9.14736,1.68392,-1.40122,0,0,3.25412,5
1774536653599,0.0332013,0.953616,-0.455323,8.10443,2.99348,3.67702,0,0,3.26932,5
1774536653613,0.0258794,0.96289,-0.450684,7.95494,3.50889,7.99379,0,0,3.29927,5
1774536653626,0.0727506,0.97705,-0.456298,8.57706,2.99492,9.44317,0,0,3.25321,5
1774536653639,0.0778805,0.951906,-0.449952,8.13958,1.67831,9.28324,0,0,3.25095,5
1774536653653,0.078125,0.959228,-0.468993,8.31212,0.585589,8.31018,0,0,3.24554,5
1774536653666,0.0937489,0.944093,-0.454347,8.95102,-0.673127,5.95067,0,0,3.23343,5
1774536653679,0.108642,0.936036,-0.464111,8.85544,-2.4188,2.74116,0,0,3.25586,5
1774536653693,0.0708034,0.936279,-0.473632,8.30807,-2.98953,1.72262,0,0,3.27212,5
1774536653706,0.0681154,0.943847,-0.468994,8.68515,-2.32392,1.41375,0,0,3.28693,5
1774536653719,0.0820303,0.937012,-0.459717,8.80095,-2.5485,-0.213279,0,0,3.23906,5
1774536653733,0.0878902,0.92212,-0.473388,8.11031,-3.40794,-2.15826,0,0,3.25551,5
1774536653746,0.0910642,0.937987,-0.475342,7.82584,-3.92111,-4.09722,0,0,3.26314,5
1774536653759,0.0925292,0.914064,-0.473877,7.26994,-4.88072,-6.75016,0,0,3.23534,5
1774536653773,0.0786143,0.941404,-0.479736,7.7913,-5.3868,-8.25207,0,0,3.25151,5
1774536653789,0.0515156,0.901614,-0.476319,7.08747,-6.4755,-8.9963,0,0,6.47628,5
1774536653803,0.0512695,0.938474,-0.483642,8.01827,-6.71636,-8.46828,0,0,3.27445,5
1774536653816,0.0371104,0.922853,-0.479004,7.53675,-6.17825,-7.06804,0,0,3.29541,5
1774536653830,0.0468743,0.932372,-0.485107,7.69387,-6.47182,-6.17239,0,0,3.2698,5
1774536653843,0.0473632,0.93872,-0.482422,7.94531,-6.39732,-5.34002,0,0,3.27695,5
1774536653857,0.0439456,0.966307,-0.490234,7.81743,-6.72357,-4.38642,0,0,3.82886,5
1774536653870,0.0271008,1.00512,-0.475831,9.03212,-6.42135,-2.20171,0,0,3.27088,5
1774536653884,0.0244143,0.896248,-0.493163,9.2888,-6.07045,0.672722,0,0,3.25456,5
1774536653897,0.0319819,0.936521,-0.497558,7.07969,-5.53701,4.50004,0,0,3.49512,5
1774536653911,0.0295412,0.950927,-0.497314,5.82305,-4.45576,7.32184,0,0,3.24554,3
1774536653924,0.0292969,0.919436,-0.497803,6.15104,-3.62247,10.1538,0,0,3.43908,3
1774536653938,-0.00146269,1.06859,-0.525877,11.8115,-1.38518,9.71972,0,0,3.26182,3
1774536653953,0.0585895,1.02588,-0.513429,11.9155,-0.933545,10.3252,0,0,4.42097,3
1774536653966,-0.00194889,1.09765,-0.544187,18.2433,1.10436,14.635,0,0,3.30425,3
1774536653980,0.247541,1.02051,-0.475102,30.1773,0.613131,22.6168,0,0,3.34055,3
1774536653996,0.0608041,1.12988,-0.562494,34.0418,1.70449,27.7911,0,0,3.34292,3
1774536654010,0.0563968,1.10523,-0.530764,44.9078,2.63658,28.1889,0,0,3.27125,3
1774536654023,0.05542,1.32201,-0.565427,53.4765,1.25876,24.7347,0,0,3.33549,3
1774536654036,0.0312517,1.50536,-0.568115,76.7696,1.29752,22.2946,0,0,3.27956,3
1774536654052,0.0627419,1.34816,-0.55005,98.4342,0.386213,22.9813,0,0,3.31021,3
1774536654065,0.0776357,1.30493,-0.543946,113.695,0.237382,19.992,0,0,3.28273,5
1774536654083,-0.00487704,1.19849,-0.536377,128.598,1.33804,21.2836,0,0,7.19063,5
1774536654096,0.0158677,1.48387,-0.588864,149.18,3.42473,25.1031,0,0,3.24253,5
1774536654110,0.122551,1.47827,-0.584229,168.97,2.56155,29.6339,0,0,3.28669,5
1774536654123,0.122314,1.49951,-0.590087,192.494,1.29637,29.1854,0,0,3.24336,5
1774536654136,0.203608,1.5957,-0.56714,219.104,-1.73302,30.353,0,0,3.31517,5
1774536654150,0.128179,1.54273,-0.588377,242.555,-4.45972,35.6986,0,0,3.26199,5
1774536654163,0.0737343,1.86546,-0.605956,250.092,-4.97454,36.3251,0,0,3.2393,5
1774536654176,0.0590831,1.99169,-0.642087,250.13,-4.058,39.245,0,0,3.2539,5
1774536654190,0.148675,1.97339,-0.622316,250.13,-6.74997,27.448,0,0,3.23543,5
1774536654203,0.315418,1.84767,-0.839829,250.13,-14.9668,10.2307,0,0,3.59558,5
1774536654217,0.50487,1.34867,-0.786869,250.13,-16.9368,29.0134,0,0,3.23945,5
1774536654230,0.366953,1.55736,-1.03367,250.13,-30.4215,17.4317,0,0,3.2444,5
1774536654243,0.343752,1.83714,-0.976566,250.13,-16.7702,17.0401,0,0,3.24806,5
1774536654257,0.405269,1.64674,-0.685811,250.13,-17.9939,66.1374,0,0,3.24543,5
1774536654270,0.463375,1.24759,0.0668418,250.13,-24.5627,89.5173,0,0,3.25401,5
1774536654283,1.97206,0.840116,0.347881,250.13,-89.8963,124.414,0,0,3.33601,5
1774536654297,0.523783,-2.85692,0.0749703,143.622,-125.586,77.7057,0,0,3.27288,5
1774536654311,0.279558,-1.09387,-0.139633,34.649,-133.449,48.656,0,0,4.20812,5
1774536654324,-0.201871,0.640504,-0.391828,-20.3675,-125.118,24.874,0,0,3.31543,5
1774536654339,-0.321037,0.718256,-0.425779,-36.6366,-106.68,-12.8581,0,0,3.28995,3
1774536654353,-0.448477,0.301055,-0.29371,-59.5881,-89.6952,-39.7593,0,0,3.30071,3
1774536654367,-0.597402,0.0420103,-0.194587,-92.5611,-57.3594,-67.9286,0,0,3.35016,3
1774536654381,-0.532231,-0.117909,-0.0537208,-127.619,-26.3831,-88.5539,0,0,3.29832,3
1774536654394,-0.223899,-0.299548,0.0837306,-168.628,-5.12865,-89.9245,0,0,3.34951,3
1774536654410,0.013167,-0.128186,0.165277,-217.626,9.62887,-64.0372,0,0,3.29573,3
1774536654424,0.161611,0.11302,0.159424,-247.098,15.7178,-30.9889,0,0,3.29906,3
1774536654437,0.183836,0.166744,0.131594,-250.122,17.2595,-6.10092,0,0,3.26429,3
1774536654451,0.153567,0.211667,0.110109,-250.137,16.9253,5.90211,0,0,3.30592,3
1774536654465,0.0771538,0.226073,0.116699,-250.137,15.1614,4.42719,0,0,3.25167,2
1774536654478,0.0358916,0.423814,0.0742217,-250.137,14.5375,-3.90511,0,0,3.28699,2
1774536654491,0.0766573,0.732156,-0.0644434,-250.137,16.1067,-1.01438,0,0,3.29023,2
1774536654505,0.106199,0.736328,-0.113034,-250.137,16.4183,12.3989,0,0,3.3579,2
1774536654518,0.0957039,0.783688,-0.152829,-250.137,17.1338,29.1989,0,0,3.25997,2
1774536654531,0.0385782,0.881585,-0.191648,-250.137,19.4617,35.6169,0,0,3.24499,2
1774536654545,0.00903527,0.994133,-0.22656,-250.137,21.638,31.6457,0,0,3.2591,2
1774536654558,0.00390661,1.08691,-0.252195,-250.137,24.163,32.3249,0,0,3.24762,2
1774536654572,0.00268563,1.21264,-0.235353,-250.137,27.662,35.9134,0,0,3.25975,5
1774536654585,-0.0717721,1.4077,-0.254149,-250.137,34.2573,39.7367,0,0,3.24775,5
1774536654599,-0.130123,1.58202,-0.320308,-250.137,42.6833,40.1886,0,0,3.8849,5
1774536654612,-0.220453,1.77879,-0.39892,-250.137,53.3591,27.5894,0,0,3.28104,5
1774536654626,-0.230956,1.92797,-0.509514,-250.137,64.0081,5.76507,0,0,3.24155,5
1774536654639,-0.0581176,2.05175,-0.777813,-250.137,71.9528,-9.85359,0,0,3.28443,5
1774536654652,0.203351,2.39939,-1.15232,-250.137,73.7316,-4.27964,0,0,3.24569,5
1774536654667,0.205322,2.66868,-1.6235,-250.137,73.6265,9.16213,0,0,3.29106,5
1774536654680,-0.0412425,2.37917,-1.85594,-250.137,80.5229,-5.19574,0,0,3.23697,5
1774536654695,-0.2473,1.22738,-2.59248,-156.124,94.4042,-45.3878,0,0,4.73864,5
1774536654709,0.403763,3.34287,-2.21804,-168.473,87.7355,-58.211,0,0,3.28403,5
1774536654723,1.15766,1.81358,-2.98994,-107.813,57.775,3.60846,0,0,3.91636,5
1774536654736,0.766629,3.11905,-3.41501,35.6223,34.338,83.6704,0,0,3.29769,5
1774536654749,0.245398,3.02662,-3.56249,184.747,-5.64079,42.3506,0,0,3.24662,5
1774536654763,-0.435987,-1.06075,1.09025,180.981,-53.434,52.1345,0,0,3.28427,5
1774536654776,0.223587,0.801139,0.74563,215.698,-76.5795,18.9665,0,0,3.24577,5
1774536654791,0.308588,1.28585,0.0977016,249.959,-72.6531,-19.0931,0,0,3.28325,5
1774536654804,-0.176236,1.01516,-0.338837,243.164,-51.0844,-21.6818,0,0,3.25051,5
1774536654818,0.0864074,1.0603,-0.277592,217.456,-18.7866,-25.3937,0,0,3.28666,5
1774536654831,0.139645,0.910899,-0.339107,194.291,-12.2691,-37.8009,0,0,3.29595,5
1774536654845,-0.0810392,0.79908,-0.419428,167.158,-10.0644,-25.7774,0,0,3.8169,5
1774536654858,-0.0493186,0.795166,-0.475094,138.22,-2.48048,-8.65769,0,0,3.28708,5
1774536654872,-0.0690904,0.828611,-0.454347,114.112,-2.05555,4.11204,0,0,3.27538,5
1774536654885,-0.0229524,0.828369,-0.455322,91.7069,2.07867,15.4626,0,0,3.29268,5
1774536654899,0.0192842,0.797854,-0.474364,72.014,8.3125,24.1552,0,0,3.27949,5
1774536654912,0.134025,0.786134,-0.531002,57.0971,8.989,24.7452,0,0,3.29199,5
1774536654926,0.0422428,0.958484,-0.477787,41.9912,9.2658,26.1001,0,0,3.27467,3
1774536654939,0.0834932,0.885503,-0.450441,36.1056,8.83421,26.9348,0,0,3.60194,3
1774536654953,0.118406,0.883545,-0.428224,33.2205,7.1534,22.4802,0,0,3.27432,3
1774536654966,0.151609,0.903075,-0.488277,33.0998,5.01066,14.9763,0,0,3.25888,5
1774536654980,0.190427,0.781503,-0.509276,22.6854,1.42243,-1.02725,0,0,3.28206,5
1774536654993,0.200195,0.793212,-0.471194,14.0734,-3.84403,-13.4952,0,0,3.26366,5
1774536655006,0.123785,0.87768,-0.489257,9.21501,-5.17658,-18.0992,0,0,3.30392,5
1774536655020,0.0910667,0.917722,-0.466554,6.74511,-4.26408,-19.2386,0,0,3.33147,5
1774536655034,0.0441927,0.922851,-0.482177,5.32766,-4.27476,-15.8261,0,0,3.40193,5
1774536655047,-0.00390288,0.984859,-0.487548,3.4065,-2.13279,-8.1147,0,0,3.27282,5
1774536655061,0.0266092,0.992431,-0.478516,4.88577,-0.876479,-3.02532,0,0,3.5968,5
1774536655075,0.0124522,0.972658,-0.480224,3.76132,0.284301,3.60062,0,0,3.28319,5
1774536655088,0.0534639,0.998045,-0.471192,5.54077,1.34586,6.65655,0,0,3.26829,5
1774536655101,0.0690907,0.956302,-0.471924,6.55982,1.22959,7.43886,0,0,3.28995,5
1774536655115,0.100828,0.93921,-0.469238,6.59524,0.598559,4.4196,0,0,3.27734,5
1774536655128,0.108398,0.957518,-0.466065,7.10434,0.337178,1.13846,0,0,3.33743,5
1774536655142,0.110596,0.916995,-0.468994,6.46121,-0.264184,-2.23512,0,0,3.29982,5
1774536655156,0.0937512,0.907471,-0.473144,5.47817,-1.2774,-5.13063,0,0,3.75645,5
1774536655169,0.11328,0.958981,-0.470459,4.88843,-1.70778,-6.50461,0,0,3.27456,5
1774536655183,0.0925307,0.95459,-0.475097,5.06781,-3.01639,-7.03553,0,0,3.32717,5
1774536655196,0.060305,0.927492,-0.471436,4.21037,-3.06844,-5.07084,0,0,3.28332,5
1774536655210,0.0502937,0.947264,-0.48828,4.31247,-2.65093,-3.19255,0,0,3.31936,5
1774536655223,0.0646963,0.947266,-0.485108,4.2598,-2.49695,-2.26416,0,0,3.29451,5
1774536655236,0.0747063,0.93628,-0.475098,4.8824,-2.81521,-2.89761,0,0,3.26438,5
1774536655250,0.0500506,0.943603,-0.474121,5.83496,-2.82438,-2.61211,0,0,3.30553,5
1774536655263,0.0615226,0.939698,-0.474609,6.02957,-2.72568,-2.46637,0,0,3.26853,5
1774536655277,0.0668942,0.941406,-0.485107,6.78251,-2.353,-2.0251,0,0,3.61692,5
1774536655290,0.0720211,0.941894,-0.477051,7.54582,-2.0853,-2.00012,0,0,3.28592,5
1774536655304,0.0546887,0.928468,-0.481933,7.77747,-2.06119,-1.8177,0,0,3.28364,5
1774536655317,0.0344252,0.932373,-0.486084,7.69507,-1.43821,-0.738195,0,0,3.29419,5
1774536655331,0.0400387,0.925049,-0.49829,7.23131,-1.306,0.247007,0,0,3.25888,5
1774536655344,0.0651838,0.934814,-0.485108,7.97341,-1.48765,0.305055,0,0,3.35571,5
1774536655358,0.0671385,0.935791,-0.497558,8.47081,-1.73921,-0.0896394,0,0,3.2851,5
1774536655372,0.0661622,0.926026,-0.491211,8.49606,-2.88742,-0.494171,0,0,4.16384,5
1774536655386,0.0358908,0.936034,-0.494385,8.35946,-2.20188,1.41037,0,0,3.28597,5
1774536655399,0.0568833,0.918214,-0.506347,7.5992,-1.89466,2.4984,0,0,3.26855,5
1774536655412,0.0756823,0.960935,-0.494386,9.00066,-2.6755,1.08338,0,0,3.27903,5
1774536655426,0.0788572,0.936769,-0.507323,9.59248,-3.56048,0.544665,0,0,3.2728,5
1774536655439,0.0908195,0.939941,-0.507324,10.8791,-4.45357,-1.25821,0,0,3.2914,5
1774536655453,0.0810554,0.953612,-0.488771,11.2425,-6.28858,-2.09507,0,0,3.28953,5
1774536655466,0.0385772,1.14305,-0.5415,18.6046,-6.57111,-2.1296,0,0,3.31301,5
1774536655480,0.0468744,0.993419,-0.477299,16.3851,-7.8562,-1.87911,0,0,3.27279,5
1774536655493,0.147454,0.966555,-0.501219,15.5234,-11.2731,2.41376,0,0,3.57805,5
1774536655507,0.203121,0.971923,-0.565425,16.8788,-14.4726,4.0833,0,0,3.2818,5
1774536655520,0.0297973,1.07006,-0.585936,31.7352,-11.5793,5.68668,0,0,3.27291,5
1774536655534,-0.139881,1.65401,-0.630612,57.3307,-3.91599,23.1194,0,0,3.33638,5
1774536655547,0.0986161,1.1846,-0.594241,64.4151,-3.32356,42.3623,0,0,3.27549,5
1774536655561,-0.145247,1.72018,-0.633786,79.224,-0.426627,21.3868,0,0,3.35658,5
1774536655574,0.0119519,1.53224,-0.540534,116.372,1.28158,27.9141,0,0,3.2888,5
1774536655588,0.0598111,1.36305,-0.556639,135.204,0.317772,28.744,0,0,3.75966,5
1774536655601,0.0778796,1.48534,-0.548096,159.885,-0.674453,21.7372,0,0,3.27934,5
1774536655615,0.294418,1.26515,-0.518557,178.26,-8.08527,16.712,0,0,3.25419,5
1774536655628,0.284425,1.36401,-0.538329,192.684,-14.8442,12.0765,0,0,3.28151,5
1774536655641,0.145762,1.55834,-0.554442,216.644,-18.4325,12.4181,0,0,3.26218,5
1774536655655,0.216792,1.99655,-0.621577,248.019,-22.5216,13.6883,0,0,3.29308,5
1774536655668,0.109138,2.27098,-0.690669,250.119,-26.9399,19.8928,0,0,3.26032,5
1774536655682,0.0468794,2.5178,-0.79345,250.13,-26.7187,28.6207,0,0,3.3093,5
1774536655695,0.0688461,1.90703,-0.730717,250.13,-23.9299,35.4242,0,0,3.29562,5
1774536655709,0.297347,1.90991,-0.668461,250.13,-17.7863,44.2158,0,0,3.5539,5
1774536655722,0.107679,2.08031,-0.878403,250.13,-23.9237,32.4099,0,0,3.28303,5
1774536655736,0.264637,2.33787,-0.545922,250.13,-14.4365,70.8545,0,0,3.24079,5
1774536655749,0.299802,2.01296,-0.0434922,250.13,-20.527,110.08,0,0,3.28777,5
1774536655763,0.426261,1.77345,0.775577,250.13,-41.324,115.705,0,0,3.24962,5
1774536655777,-0.0531891,-1.84618,0.223671,250.13,-66.759,47.5072,0,0,4.4524,5
1774536655791,-0.359109,-0.845285,0.371572,161.092,-77.2683,26.2812,0,0,3.27003,5
1774536655804,-0.441156,-0.0740286,-0.304396,59.0117,-50.1958,-21.9889,0,0,3.26953,5
1774536655817,-0.455077,0.337618,-0.270998,17.6182,-24.2056,-56.8495,0,0,3.26129,5
1774536655831,-0.255385,0.0508013,-0.156258,-15.4006,-9.41709,-74.6747,0,0,3.26875,4
1774536655844,-0.15528,0.153313,-0.155518,-41.1999,1.96627,-73.6691,0,0,3.2653,4
1774536655857,-0.111087,0.075689,-0.0688537,-66.0975,14.2822,-60.6222,0,0,3.23714,4
1774536655874,-0.0314997,-0.202373,0.0339284,-116.71,24.4152,-51.7389,0,0,7.0888,1
1774536655888,0.0602963,-0.351552,0.151847,-169.273,21.1081,-58.2652,0,0,3.28127,1
1774536655902,0.131343,-0.198009,0.186277,-224.246,13.1541,-64.0704,0,0,4.23103,1
1774536655916,0.249748,0.0297692,0.163088,-250.009,3.95417,-58.6529,0,0,3.24012,1
1774536655929,0.349847,0.198475,0.113529,-250.137,-6.24696,-43.3054,0,0,3.29371,1
1774536655942,0.376219,0.400132,0.0373588,-250.137,-15.9517,-22.2118,0,0,3.25077,1
1774536655956,0.343752,0.526358,-0.0537046,-250.137,-23.4816,-4.18131,0,0,3.2401,2
1774536655969,0.263677,0.513429,-0.061767,-250.137,-29.3449,3.57211,0,0,3.26016,2
1774536655982,0.186773,0.619621,-0.100339,-250.137,-32.754,3.39781,0,0,3.23593,3
1774536655996,0.167482,0.793933,-0.155758,-250.137,-33.4621,6.42008,0,0,3.26542,3
1774536656009,0.172119,0.957752,-0.229243,-250.137,-31.9313,18.2009,0,0,3.2379,3
1774536656023,0.161622,1.06225,-0.30102,-250.137,-28.3309,33.109,0,0,3.42153,3
1774536656036,0.0734925,1.20434,-0.362545,-250.137,-20.3603,44.2499,0,0,3.24836,3
1774536656054,-0.0280691,1.3142,-0.412594,-250.137,-3.97465,50.3589,0,0,5.43346,3
1774536656068,-0.150138,1.34668,-0.402833,-250.137,11.6703,44.4417,0,0,3.27908,3
1774536656082,-0.242913,1.4021,-0.433103,-250.137,34.3756,38.7459,0,0,3.79944,3
1774536656095,-0.196048,1.58519,-0.455077,-250.137,57.7007,32.9373,0,0,3.28412,3
1774536656108,-0.030285,1.78954,-0.542963,-250.137,75.2562,31.1007,0,0,3.26034,3
1774536656122,0.16234,2.09812,-0.729479,-250.137,81.1842,30.5599,0,0,3.30117,3
1774536656135,0.292227,2.22118,-0.941636,-250.137,77.9854,35.9427,0,0,3.26019,3
1774536656149,0.322508,2.21191,-1.09618,-250.137,70.5636,42.5701,0,0,3.29699,3
1774536656162,0.294436,2.3518,-1.30589,-250.137,62.3007,39.0101,0,0,3.26256,5
1774536656176,0.2439,2.33106,-1.47655,-248.998,54.2158,31.1156,0,0,3.3118,5
1774536656189,0.27905,2.06984,-1.55029,-207.2,40.6856,21.7489,0,0,3.28043,5
1774536656203,0.310545,1.80812,-1.60937,-160.575,22.366,14.9347,0,0,3.56019,5
1774536656216,0.559553,1.4097,-1.71264,-110.121,-4.27205,-0.928709,0,0,3.27895,5
1774536656229,0.602292,1.22438,-1.81957,-69.0137,-35.6758,1.22592,0,0,3.27834,5
1774536656243,0.172149,1.05885,-1.77808,-33.8239,-49.0632,27.237,0,0,3.30912,5
1774536656256,-0.281462,1.16894,-1.73853,10.3983,-46.714,11.4374,0,0,3.25953,5
1774536656270,-0.492417,1.08838,-1.60792,54.331,-34.2528,-35.7652,0,0,3.28588,5
1774536656283,3.99956,3.99967,-0.651922,25.3579,-63.8148,-86.7767,0,0,3.27258,5
1774536656297,1.12837,-3.99944,1.55087,205.736,-17.9989,-81.8945,0,0,3.67345,5
1774536656310,-0.135898,3.99932,0.541086,249.91,-40.1797,-118.505,0,0,3.27516,5
1774536656324,-0.3369,1.24116,-0.189158,241.416,-24.984,-73.5671,0,0,3.30695,5
1774536656337,0.0697958,0.338686,-0.0493262,243.904,8.35322,-39.4902,0,0,3.2841,3
1774536656351,0.245349,0.64451,-0.139398,236.457,0.611038,-39.5797,0,0,3.26047,3
1774536656364,0.0188147,1.01389,-0.22265,219.983,-9.14231,-29.1891,0,0,3.29921,3
1774536656377,-0.0327112,0.947759,-0.312494,193.939,-13.1252,-14.1284,0,0,3.2713,3
1774536656391,-0.00537301,0.909182,-0.397943,165.364,-10.9118,-5.59968,0,0,3.59495,3
1774536656404,-0.0573694,0.898926,-0.41992,139.313,0.75873,5.98815,0,0,3.28067,3
1774536656418,-0.0361343,0.87134,-0.434325,115.546,6.81719,14.5908,0,0,3.2934,3
1774536656431,-0.00512912,0.858399,-0.427491,95.4055,11.6933,24.8041,0,0,3.27895,3
1774536656445,0.00219675,0.923091,-0.475583,82.431,11.8542,32.7771,0,0,3.26292,3
1774536656458,0.15038,0.870365,-0.488524,72.082,9.31037,32.3381,0,0,3.3081,3
1774536656472,0.0788624,0.727549,-0.555903,53.9072,6.42656,21.2308,0,0,3.28667,3
1774536656485,0.0925283,0.904773,-0.463141,46.2822,8.15932,16.5652,0,0,3.32743,3
1774536656499,0.166743,0.837407,-0.464844,37.965,5.87397,10.2072,0,0,3.31332,5
1774536656512,0.141115,0.906978,-0.477782,32.8499,3.08259,3.08125,0,0,3.6843,5
1774536656526,0.158446,0.821783,-0.506102,25.3959,3.05358,-4.53463,0,0,3.28401,5
1774536656539,0.0798395,0.900873,-0.479006,17.9379,2.63567,-3.03798,0,0,3.2929,5
1774536656553,0.102782,0.885987,-0.492919,14.3157,1.41067,-2.44569,0,0,3.28703,5
1774536656566,0.0651882,0.936032,-0.492676,10.0442,1.83757,1.40071,0,0,3.24582,5
1774536656580,0.0695798,0.924073,-0.472658,7.34169,1.10289,4.2226,0,0,3.29762,5
1774536656593,0.0883776,0.922363,-0.476318,4.96602,0.749848,6.24946,0,0,3.27745,5
1774536656607,0.120359,0.910645,-0.474854,2.80465,0.679738,6.39622,0,0,3.56758,5
1774536656620,0.0876488,0.94116,-0.466065,0.78106,-0.0194223,7.04259,0,0,3.26712,5
1774536656634,0.0952143,0.948242,-0.471435,0.869788,0.326523,7.51673,0,0,3.28223,5
1774536656647,0.116209,0.964598,-0.459718,2.19949,0.0699787,6.205,0,0,3.28486,5
1774536656660,0.103272,0.969482,-0.461182,2.37318,-0.736446,4.88443,0,0,3.28482,5
1774536656674,0.127684,0.962403,-0.461182,5.35919,-1.9026,1.65728,0,0,3.27445,5
1774536656687,0.119629,0.959229,-0.461426,5.90568,-2.68314,-0.538693,0,0,3.28747,5
1774536656701,0.100343,0.956299,-0.466308,6.00713,-2.80854,-1.73451,0,0,3.29049,5
1774536656714,0.104736,0.946046,-0.4646,6.76721,-3.26491,-3.35833,0,0,3.28258,5
1774536656728,0.109619,0.969237,-0.463135,8.02428,-3.41148,-5.09062,0,0,3.69245,5
1774536656741,0.0976571,0.916752,-0.466552,8.06089,-4.05785,-6.39808,0,0,3.28236,5
1774536656755,0.0588406,0.953611,-0.479491,7.21793,-2.8837,-4.15619,0,0,3.26491,5
1774536656768,0.103268,0.927248,-0.474366,7.98094,-2.48291,-5.23129,0,0,3.2871,5
1774536656782,0.0813004,0.924805,-0.482421,7.6505,-2.31382,-4.80365,0,0,3.2633,5
1774536656795,0.0886225,0.93457,-0.476807,7.61848,-2.06992,-4.96105,0,0,3.34699,5
