timestamp,ax,ay,az,gx,gy,gz,roll_k,pitch_k,delay_ms,classe_prevista
1774391049918,-0.00879199,0.65484,0.0845008,3.65322,-23.8399,21.5963,0,0,3.44038,-1
1774391049931,-0.0110414,0.783199,0.0992651,2.00421,-14.0603,11.8131,0,0,3.68218,-1
1774391049945,-0.0109555,0.839352,0.109389,1.46011,-10.0815,8.37329,0,0,3.27403,-1
1774391049959,-0.0104696,0.87062,0.113492,1.13025,-7.92406,6.55384,0,0,3.74223,-1
1774391049972,-0.0108803,0.8908,0.115661,0.947497,-6.58056,5.40846,0,0,3.26131,-1
1774391049986,-0.0104748,0.905588,0.117475,0.819578,-5.70492,4.60991,0,0,3.27042,-1
1774391049999,-0.0112492,0.915906,0.118542,0.707513,-5.04659,4.04184,0,0,3.27331,-1
1774391050012,-0.0115753,0.923712,0.119929,0.631627,-4.53266,3.5969,0,0,3.25714,-1
1774391050026,-0.012158,0.929933,0.121029,0.559205,-4.12,3.26449,0,0,3.27707,-1
1774391050039,-0.0124347,0.9347,0.122197,0.494674,-3.80594,2.96189,0,0,3.45979,0
1774391050053,-0.0127559,0.938387,0.12271,0.449437,-3.51805,2.72209,0,0,3.30296,0
1774391050066,-0.0134105,0.942162,0.123633,0.430375,-3.29048,2.52308,0,0,3.33323,0
1774391050080,-0.0133319,0.945479,0.124185,0.435483,-3.09475,2.34982,0,0,3.26821,0
1774391050093,-0.0137739,0.947809,0.124626,0.419513,-2.91152,2.20585,0,0,3.29642,0
1774391050106,-0.0136048,0.95023,0.125103,0.411,-2.75572,2.06984,0,0,3.30438,5
1774391050120,-0.0140897,0.95244,0.12525,0.4064,-2.61141,1.9624,0,0,3.36081,5
1774391050133,-0.014078,0.954443,0.124986,0.412498,-2.4918,1.85357,0,0,3.31292,5
1774391050147,-0.0141942,0.956322,0.125605,0.425665,-2.38552,1.74213,0,0,3.29653,5
1774391050160,-0.0140238,0.958004,0.12624,0.451989,-2.28795,1.65861,0,0,3.29309,5
1774391050173,-0.0141507,0.959087,0.126358,0.464402,-2.20721,1.57289,0,0,3.29488,5
1774391050187,-0.0141945,0.960148,0.12671,0.458358,-2.12493,1.49933,0,0,3.3481,5
1774391050200,-0.0139537,0.961457,0.126921,0.461842,-2.0451,1.43751,0,0,3.30334,5
1774391050214,-0.0139516,0.962443,0.126703,0.46258,-1.96144,1.3763,0,0,3.35436,5
1774391050227,-0.0139765,0.963354,0.127603,0.439013,-1.89648,1.30778,0,0,3.30083,5
1774391050242,-0.0134862,0.964738,0.127305,0.455034,-1.85082,1.26601,0,0,4.2139,5
1774391050258,-0.0132374,0.965364,0.127092,0.444348,-1.81657,1.23583,0,0,3.30473,5
1774391050271,-0.012764,0.966329,0.127314,0.431625,-1.76656,1.19707,0,0,3.2616,5
1774391050284,-0.0128357,0.966829,0.127746,0.442951,-1.72051,1.17631,0,0,3.31012,5
1774391050298,-0.0128904,0.967421,0.127583,0.430082,-1.6735,1.1579,0,0,3.26364,5
1774391050313,-0.0128684,0.968415,0.127575,0.4158,-1.64833,1.1225,0,0,4.99689,5
1774391050326,-0.0132098,0.968684,0.127665,0.412419,-1.6022,1.0917,0,0,3.25318,5
1774391050340,-0.0133756,0.969106,0.127857,0.395762,-1.56716,1.06335,0,0,3.29307,5
1774391050353,-0.0132954,0.969774,0.127766,0.395384,-1.53391,1.04219,0,0,3.26888,5
1774391050367,-0.0130907,0.97037,0.127669,0.414178,-1.51835,1.00633,0,0,3.85801,5
1774391050380,-0.0130254,0.971014,0.127658,0.419385,-1.48868,0.976252,0,0,3.27336,5
1774391050394,-0.0129751,0.971738,0.127728,0.423829,-1.45334,0.963933,0,0,3.24236,5
1774391050407,-0.012767,0.972309,0.128082,0.435046,-1.42631,0.955447,0,0,3.27714,5
1774391050420,-0.0126839,0.972633,0.128063,0.449534,-1.40268,0.943525,0,0,3.26195,5
1774391050434,-0.0126844,0.972974,0.128239,0.460963,-1.37433,0.924877,0,0,3.29864,5
1774391050447,-0.0124707,0.973263,0.128348,0.462978,-1.35205,0.901664,0,0,3.50866,5
1774391050461,-0.0126606,0.973741,0.128486,0.454416,-1.33021,0.886797,0,0,3.30486,5
1774391050474,-0.0128633,0.973915,0.128438,0.45723,-1.29965,0.877155,0,0,3.27358,5
1774391050488,-0.0127555,0.974302,0.12807,0.451631,-1.27827,0.850277,0,0,3.61246,5
1774391050501,-0.0129524,0.974327,0.128186,0.457629,-1.272,0.833202,0,0,3.28323,5
1774391050515,-0.0124985,0.974805,0.128218,0.464578,-1.2661,0.817119,0,0,3.24797,5
1774391050528,-0.0126176,0.974884,0.128227,0.470692,-1.23892,0.804128,0,0,3.29927,5
1774391050541,-0.0125552,0.974894,0.127917,0.458744,-1.22842,0.796206,0,0,3.25001,5
1774391050555,-0.0125615,0.975001,0.127907,0.450504,-1.20731,0.78356,0,0,3.28305,5
1774391050568,-0.0125456,0.975411,0.127995,0.44058,-1.1818,0.780263,0,0,3.26105,5
1774391050582,-0.0127488,0.97556,0.128047,0.435963,-1.17327,0.771123,0,0,3.71807,5
1774391050595,-0.0127246,0.975681,0.128096,0.425582,-1.17254,0.764227,0,0,3.2732,5
1774391050609,-0.0128212,0.975775,0.12835,0.41235,-1.17185,0.753851,0,0,3.24521,5
1774391050622,-0.0129134,0.975984,0.128244,0.393419,-1.16087,0.747506,0,0,3.28764,5
1774391050635,-0.0127519,0.976237,0.128198,0.38674,-1.16256,0.732494,0,0,3.2521,5
1774391050649,-0.0126519,0.976436,0.127991,0.383018,-1.16201,0.725637,0,0,3.59538,5
1774391050663,-0.0131189,0.976744,0.12761,0.375641,-1.14129,0.715733,0,0,3.27488,5
1774391050677,-0.0131758,0.976963,0.127462,0.380703,-1.12605,0.710254,0,0,4.50405,5
1774391050691,-0.0131114,0.976848,0.127148,0.383334,-1.11681,0.701222,0,0,3.28883,5
1774391050704,-0.0132979,0.977332,0.126848,0.389678,-1.10424,0.689695,0,0,3.22916,5
1774391050717,-0.0131528,0.977104,0.127348,0.399954,-1.09409,0.680965,0,0,3.28555,5
1774391050731,-0.0131003,0.97736,0.12718,0.399356,-1.08151,0.686452,0,0,3.24035,5
1774391050746,-0.0129103,0.9774,0.127084,0.407797,-1.07736,0.684769,0,0,3.33586,5
1774391050759,-0.0128041,0.977492,0.12682,0.40633,-1.06873,0.676749,0,0,3.26664,5
1774391050772,-0.0128853,0.977451,0.126697,0.407518,-1.07258,0.677754,0,0,3.2787,5
1774391050786,-0.0128984,0.977756,0.126633,0.403067,-1.06294,0.67656,0,0,3.27034,5
1774391050799,-0.0132115,0.977864,0.126883,0.395865,-1.06583,0.66729,0,0,3.25744,5
1774391050813,-0.0132317,0.978151,0.12679,0.384784,-1.07071,0.664969,0,0,3.30846,5
1774391050826,-0.0132403,0.978295,0.126937,0.382038,-1.06931,0.664065,0,0,3.26484,5
1774391050842,-0.0129913,0.978284,0.127162,0.370878,-1.07099,0.663211,0,0,3.30444,5
1774391050855,-0.0131069,0.978562,0.127185,0.358202,-1.07643,0.656835,0,0,3.27794,5
1774391050872,-0.0129067,0.97872,0.127293,0.338527,-1.07343,0.65039,0,0,6.61623,5
1774391050885,-0.0129188,0.978808,0.127096,0.328097,-1.06759,0.653731,0,0,3.26418,5
1774391050899,-0.012727,0.978474,0.127111,0.308828,-1.0578,0.642748,0,0,3.65864,5
1774391050912,-0.0127149,0.97855,0.126762,0.292355,-1.05584,0.636237,0,0,3.25088,5
1774391050926,-0.0126284,0.978859,0.126663,0.284089,-1.05828,0.634375,0,0,3.29375,5
1774391050939,-0.012503,0.978855,0.126323,0.263437,-1.05886,0.637329,0,0,3.26621,5
1774391050953,-0.0125435,0.979001,0.126489,0.247372,-1.05941,0.623841,0,0,3.26892,5
1774391050966,-0.0122613,0.979204,0.126702,0.229638,-1.05051,0.617536,0,0,3.26942,5
1774391050979,-0.0121627,0.979259,0.126938,0.221465,-1.05239,0.612012,0,0,3.23823,5
1774391050993,-0.0122074,0.979163,0.126778,0.21418,-1.04731,0.605942,0,0,3.28696,5
1774391051006,-0.0123464,0.979284,0.126529,0.205161,-1.04508,0.589934,0,0,3.23523,5
1774391051019,-0.0122868,0.979507,0.126868,0.190654,-1.04983,0.592812,0,0,3.30181,5
1774391051033,-0.0122513,0.979485,0.126936,0.174391,-1.03805,0.589104,0,0,3.25962,5
1774391051046,-0.0124097,0.979485,0.126905,0.174457,-1.04191,0.577896,0,0,3.24259,5
1774391051059,-0.0124222,0.979624,0.127313,0.178802,-1.03699,0.576309,0,0,3.27568,5
1774391051073,-0.0121242,0.979779,0.127148,0.176052,-1.02421,0.572243,0,0,3.2494,5
1774391051086,-0.0122026,0.979606,0.127107,0.173884,-1.00957,0.561124,0,0,3.28914,5
1774391051100,-0.0121174,0.979494,0.126865,0.164129,-1.00133,0.551486,0,0,3.2421,5
1774391051113,-0.0121854,0.979633,0.126997,0.151925,-1.0004,0.542817,0,0,3.26477,5
1774391051126,-0.0123893,0.979595,0.127113,0.164813,-0.996521,0.552191,0,0,3.25373,5
1774391051140,-0.012157,0.979676,0.126636,0.163276,-0.99115,0.557185,0,0,3.25721,5
1774391051153,-0.0122981,0.979881,0.126436,0.170389,-0.980084,0.56661,0,0,3.35855,5
1774391051166,-0.0125398,0.979832,0.126576,0.185666,-0.96964,0.573792,0,0,3.24738,5
1774391051180,-0.0125038,0.979882,0.127031,0.194521,-0.962779,0.581,0,0,3.26775,5
1774391051193,-0.012587,0.979811,0.126995,0.198168,-0.967436,0.585235,0,0,3.23805,5
1774391051206,-0.0126024,0.979658,0.126833,0.197329,-0.974401,0.584522,0,0,3.27749,5
1774391051220,-0.012756,0.979715,0.126999,0.20296,-0.983117,0.584705,0,0,3.25725,5
1774391051233,-0.0131485,0.979727,0.12705,0.203136,-0.965651,0.590016,0,0,3.26845,5
1774391051247,-0.0132782,0.979674,0.12711,0.197736,-0.962868,0.582612,0,0,3.26884,5
1774391051260,-0.0130284,0.979698,0.127423,0.210623,-0.958528,0.593178,0,0,3.27149,5
1774391051273,-0.0128644,0.979668,0.127584,0.212939,-0.96428,0.592876,0,0,3.28907,5
1774391051287,-0.012921,0.979831,0.127503,0.211271,-0.960717,0.594731,0,0,3.23668,5
1774391051300,-0.0128791,0.979997,0.127469,0.219117,-0.965489,0.596911,0,0,3.32396,5
1774391051313,-0.0130313,0.979804,0.12719,0.225239,-0.972135,0.598968,0,0,3.24436,5
1774391051328,-0.0132301,0.979972,0.127147,0.221168,-0.974555,0.602195,0,0,4.01483,5
1774391051341,-0.0132922,0.979813,0.126979,0.215185,-0.989256,0.61252,0,0,3.26738,5
1774391051354,-0.0128923,0.979713,0.12686,0.205256,-0.998851,0.632542,0,0,3.37705,5
1774391051368,-0.013172,0.980066,0.126031,0.192886,-1.00834,0.620611,0,0,3.2717,5
1774391051381,-0.0133434,0.979849,0.125869,0.18592,-1.03056,0.653453,0,0,3.23133,5
1774391051395,-0.0128345,0.979898,0.126322,0.166499,-1.04212,0.663044,0,0,3.28547,5
1774391051408,-0.0124547,0.980115,0.126072,0.161442,-1.0389,0.71363,0,0,3.24505,5
1774391051422,-0.0121129,0.980024,0.125288,0.147248,-1.03843,0.712566,0,0,3.82629,5
1774391051436,-0.0120956,0.979755,0.126408,0.10302,-1.04827,0.79463,0,0,3.28744,5
1774391051449,-0.0115026,0.980042,0.12641,0.119936,-1.0507,0.780887,0,0,3.3041,5
1774391051463,-0.012174,0.979858,0.126573,0.120916,-1.02858,0.805595,0,0,3.31407,5
1774391051476,-0.0120046,0.979789,0.126365,0.0935802,-1.03255,0.814787,0,0,3.27705,5
1774391051490,-0.0119921,0.979647,0.126508,0.0450841,-1.01616,0.829029,0,0,3.28325,5
1774391051503,-0.0118414,0.979683,0.126613,0.00573108,-1.0418,0.806077,0,0,3.30623,5
1774391051516,-0.0111526,0.980284,0.126756,-0.00957695,-1.01891,0.821665,0,0,3.3047,5
1774391051530,-0.0115084,0.980399,0.126925,-0.0116089,-0.999863,0.785852,0,0,3.26597,5
1774391051543,-0.0116244,0.980338,0.127332,-0.00924496,-0.992163,0.778596,0,0,3.30484,5
1774391051557,-0.0115538,0.980482,0.127454,0.00155011,-0.98618,0.764896,0,0,3.39429,5
1774391051570,-0.0113795,0.980674,0.127133,0.00874233,-0.989096,0.761812,0,0,3.24723,5
1774391051584,-0.0112662,0.98059,0.127019,0.0159593,-0.981572,0.755904,0,0,3.26818,5
1774391051597,-0.0114675,0.98051,0.127475,0.0253406,-0.975326,0.742192,0,0,3.25607,5
1774391051610,-0.0114998,0.980583,0.127591,0.0256319,-0.968575,0.732247,0,0,3.28755,5
1774391051624,-0.0114987,0.980557,0.127958,0.030617,-0.964343,0.720718,0,0,3.25909,5
1774391051637,-0.0116365,0.980563,0.127636,0.034466,-0.974479,0.699988,0,0,3.29123,5
1774391051651,-0.0113731,0.980442,0.127948,0.0432374,-0.98062,0.676567,0,0,3.27803,5
1774391051664,-0.0112815,0.980315,0.127691,0.051945,-0.997122,0.650177,0,0,3.27414,5
1774391051678,-0.0112899,0.980418,0.127605,0.0498876,-0.999424,0.627409,0,0,3.26881,5
1774391051691,-0.0111592,0.980324,0.127662,0.048802,-1.0016,0.621761,0,0,3.27436,5
1774391051704,-0.011141,0.980458,0.127172,0.0593384,-1.01264,0.624566,0,0,3.28901,5
1774391051718,-0.0110915,0.980651,0.127568,0.0919776,-1.00679,0.637917,0,0,3.24857,5
1774391051731,-0.0115353,0.980718,0.127798,0.114222,-0.987572,0.651376,0,0,3.2677,5
1774391051745,-0.0119598,0.980664,0.127515,0.125799,-0.993408,0.649522,0,0,3.27655,5
1774391051758,-0.0115221,0.980549,0.127736,0.126878,-1.00363,0.67175,0,0,3.38483,5
1774391051771,-0.0106766,0.980268,0.127915,0.127041,-1.00342,0.682027,0,0,3.27868,5
1774391051785,-0.0109143,0.979967,0.128322,0.128906,-0.982677,0.687446,0,0,3.2857,5
1774391051798,-0.0110136,0.979626,0.12791,0.0827108,-1.00206,0.695558,0,0,3.26075,5
1774391051812,-0.0106921,0.979641,0.128135,0.0275454,-1.03063,0.722055,0,0,3.2772,5
1774391051825,-0.00942371,0.979186,0.128403,-0.0472196,-1.08629,0.770616,0,0,3.2919,5
1774391051838,-0.00887279,0.979979,0.128831,-0.097666,-1.08659,0.790333,0,0,3.24436,5
1774391051852,-0.00948839,0.979808,0.129144,-0.0900468,-1.11899,0.771693,0,0,3.2907,5
1774391051865,-0.00881719,0.97941,0.129433,-0.137663,-1.11916,0.774223,0,0,3.29034,5
1774391051879,-0.00927507,0.979958,0.129068,-0.167621,-1.10263,0.802302,0,0,3.24281,5
1774391051892,-0.00975563,0.979874,0.128356,-0.194615,-1.11914,0.777852,0,0,3.27986,5
1774391051905,-0.0100764,0.980209,0.128017,-0.233796,-1.148,0.817716,0,0,3.25623,5
1774391051919,-0.00958232,0.980231,0.128077,-0.278915,-1.17095,0.827941,0,0,3.27525,5
1774391051932,-0.00998538,0.980135,0.127921,-0.293243,-1.18791,0.846584,0,0,3.2502,5
1774391051945,-0.0102213,0.980107,0.127537,-0.310193,-1.18037,0.840631,0,0,3.27997,5
1774391051959,-0.0105004,0.980315,0.127843,-0.302642,-1.16169,0.837153,0,0,3.26701,5
1774391051972,-0.0101159,0.980738,0.127857,-0.26811,-1.14534,0.842006,0,0,3.26755,5
1774391051986,-0.0103248,0.980705,0.127946,-0.216676,-1.11963,0.851296,0,0,3.2656,5
1774391051999,-0.0105459,0.980748,0.128319,-0.156137,-1.08552,0.845936,0,0,3.27292,5
1774391052012,-0.0108214,0.98064,0.12875,-0.0810098,-1.05588,0.817753,0,0,3.28073,5
1774391052026,-0.0108927,0.980344,0.128981,-0.00966867,-1.02235,0.808708,0,0,3.27236,5
1774391052039,-0.0109181,0.980371,0.129256,0.0610962,-1.00397,0.785611,0,0,3.26751,5
1774391052053,-0.0108464,0.980279,0.129667,0.129605,-0.958785,0.762525,0,0,3.26612,5
1774391052066,-0.0109059,0.980255,0.129645,0.202834,-0.916565,0.73003,0,0,3.27647,5
1774391052079,-0.0114219,0.980361,0.129581,0.276665,-0.864297,0.71049,0,0,3.27757,5
1774391052093,-0.0111466,0.98028,0.129594,0.347212,-0.820954,0.68177,0,0,3.2506,5
1774391052106,-0.0113958,0.980288,0.129254,0.426219,-0.781328,0.65723,0,0,3.26557,5
1774391052119,-0.0113566,0.980328,0.129378,0.532052,-0.729366,0.63321,0,0,3.24933,5
1774391052133,-0.0113511,0.980516,0.129047,0.647363,-0.712861,0.604114,0,0,3.32801,5
1774391052146,-0.0110789,0.980685,0.129095,0.773333,-0.693856,0.571941,0,0,3.29266,5
1774391052160,-0.0109574,0.980739,0.129054,0.887956,-0.672491,0.550992,0,0,3.27412,5
1774391052173,-0.0113964,0.98155,0.12908,1.01499,-0.6322,0.526937,0,0,3.27038,5
1774391052186,-0.0116347,0.983467,0.129371,1.27791,-0.565481,0.482393,0,0,3.24921,5
1774391052200,-0.0126634,0.984478,0.1295,1.72648,-0.458401,0.418938,0,0,3.2651,5
1774391052213,-0.0126968,0.986673,0.129453,2.4252,-0.324357,0.401862,0,0,3.25029,5
1774391052226,-0.0132626,0.989872,0.129504,3.43585,-0.150303,0.401586,0,0,3.32088,5
1774391052240,-0.0141026,0.995568,0.129702,4.92162,0.0923454,0.465554,0,0,3.2599,5
1774391052253,-0.0145536,1.00145,0.129358,7.06309,0.457119,0.533213,0,0,3.27984,5
1774391052267,-0.0132445,1.00729,0.130886,9.6959,0.837827,0.283644,0,0,3.36096,5
1774391052280,-0.0114481,1.01572,0.134173,12.724,1.31964,-0.441771,0,0,3.25397,5
1774391052293,0.000295345,1.03094,0.146414,16.0138,1.69521,-1.57866,0,0,3.2802,5
1774391052307,0.0119629,1.05831,0.154574,20.2041,1.50935,-3.54241,0,0,3.32188,5
1774391052320,0.00556749,1.09144,0.1692,24.7494,0.918571,-4.13499,0,0,3.31858,5
1774391052334,0.0169191,1.11103,0.181083,30.2999,0.338236,-5.24798,0,0,3.27547,5
1774391052347,0.0322266,1.12879,0.19535,36.6365,-1.05564,-5.8528,0,0,3.31783,5
1774391052361,0.0331127,1.12909,0.224325,43.3525,-2.65265,-6.53117,0,0,3.27412,5
1774391052374,0.0273832,1.10566,0.258354,48.9244,-3.41418,-7.58383,0,0,3.27321,5
1774391052388,0.00824849,1.07613,0.289614,52.7827,-3.01115,-7.88336,0,0,4.11922,5
1774391052402,-0.00764711,1.04674,0.331785,55.1478,-1.30035,-6.53854,0,0,4.05838,5
1774391052416,-0.011167,1.00625,0.373147,56.046,-0.386879,-4.99298,0,0,3.28066,2
1774391052429,-0.015857,0.957293,0.417634,53.5381,0.423113,-3.80345,0,0,3.27879,2
1774391052442,-0.0179075,0.905456,0.45411,46.7554,1.28187,-2.99792,0,0,3.30934,2
1774391052456,-0.0186298,0.858021,0.479264,37.23,1.50756,-1.8809,0,0,3.29247,2
1774391052470,-0.0221392,0.817679,0.502454,26.5805,1.22046,-0.149572,0,0,3.8816,2
1774391052483,-0.029232,0.785571,0.518319,14.9895,0.930204,1.06459,0,0,3.25334,2
1774391052497,-0.0497238,0.78062,0.523956,2.39154,0.622827,-1.14034,0,0,3.27934,2
1774391052510,-0.074391,0.787171,0.527425,-11.7734,1.44298,-10.225,0,0,3.27283,2
1774391052524,-0.0838752,0.821014,0.540372,-25.1438,3.89348,-14.94,0,0,3.2832,2
1774391052537,-0.0608819,0.915859,0.536685,-37.7643,5.77662,-12.3032,0,0,3.65353,2
1774391052551,-0.0420119,0.982874,0.520816,-42.3223,4.06313,-9.58001,0,0,3.28662,2
1774391052564,-0.0317826,1.01178,0.521369,-43.73,2.37511,-9.81681,0,0,3.27916,2
1774391052578,-0.0445609,1.00439,0.493582,-46.5155,1.90019,-10.7991,0,0,3.27553,5
1774391052591,-0.0517622,0.998237,0.459216,-52.2719,1.17444,-9.53477,0,0,3.28007,5
1774391052605,-0.052819,1.01372,0.44492,-58.8738,0.829817,-8.16241,0,0,3.31796,5
1774391052618,-0.0471246,1.04139,0.432029,-62.9118,0.557617,-8.38752,0,0,3.2686,5
1774391052631,-0.0504769,1.05464,0.413722,-64.5156,0.00395113,-8.26858,0,0,3.27692,5
1774391052645,-0.0540242,1.04846,0.395213,-66.0337,-0.373503,-7.55086,0,0,3.26783,5
1774391052658,-0.0553772,1.04365,0.379467,-68.58,-0.561079,-7.21638,0,0,3.35157,5
1774391052672,-0.0551441,1.04693,0.362306,-71.087,-0.682897,-7.48256,0,0,3.31399,5
1774391052686,-0.0571314,1.05175,0.343087,-72.3371,-0.605199,-7.2003,0,0,3.91249,3
1774391052700,-0.0598646,1.05507,0.322072,-72.916,-0.200014,-6.82724,0,0,3.29594,3
1774391052713,-0.0636634,1.05794,0.298271,-72.9348,0.666293,-6.38734,0,0,3.27977,3
1774391052727,-0.0677765,1.06131,0.271582,-72.4375,2.04793,-5.5238,0,0,3.26371,3
1774391052740,-0.0708983,1.06721,0.243166,-71.3284,3.92284,-4.59737,0,0,3.2914,3
1774391052754,-0.0739903,1.07383,0.212278,-69.4687,6.29589,-3.58545,0,0,3.60703,3
1774391052767,-0.0745875,1.08086,0.181598,-66.8823,8.96659,-2.30359,0,0,3.29771,3
1774391052781,-0.0729912,1.08924,0.150904,-63.4866,11.7577,-0.945057,0,0,3.33286,3
1774391052794,-0.0698205,1.09661,0.121104,-59.2947,14.5742,0.380952,0,0,3.26875,3
1774391052807,-0.0634359,1.10182,0.0934821,-54.5446,17.3145,1.48957,0,0,3.29521,3
1774391052821,-0.071819,1.13495,0.145426,-57.1752,18.8516,5.60995,0,0,3.31938,5
1774391052835,-0.0899465,1.12584,0.146433,-53.7476,20.2027,7.11335,0,0,3.64142,5
1774391052848,-0.0863119,1.08912,0.175605,-45.4395,23.0199,11.5653,0,0,3.28433,5
1774391052862,-0.0929045,1.05149,0.230599,-40.2415,24.8112,16.1237,0,0,3.28958,5
1774391052875,-0.128378,1.04053,0.239796,-42.169,26.305,14.0521,0,0,3.42742,5
1774391052889,-0.132042,1.03715,0.227548,-43.7322,30.2611,14.4217,0,0,3.33199,5
1774391052903,-0.116584,1.08684,0.240595,-43.3357,31.6128,19.8638,0,0,3.82957,5
1774391052916,-0.106531,1.15341,0.249483,-34.0805,29.6241,24.6997,0,0,3.24958,5
1774391052929,-0.0910564,1.16645,0.260994,-20.1745,26.5764,24.2943,0,0,3.31364,5
1774391052943,-0.0902667,1.155,0.271308,-7.5589,22.9662,26.2295,0,0,3.28897,5
1774391052956,-0.0995157,1.1234,0.281565,2.40295,20.8751,28.2484,0,0,3.26581,5
1774391052970,-0.0993063,1.0879,0.288129,9.10245,19.9675,29.8157,0,0,3.33497,5
1774391052983,-0.0949954,1.05426,0.290251,12.6057,19.4837,30.3266,0,0,3.28216,5
1774391052996,-0.0917379,1.0375,0.293797,13.9286,19.1166,31.0204,0,0,3.29118,5
1774391053010,-0.0886228,1.04661,0.294573,15.8847,18.6395,31.5476,0,0,3.27838,5
1774391053023,-0.0832416,1.05316,0.295912,19.4738,17.6745,31.6184,0,0,3.31101,5
1774391053037,-0.0788859,1.04914,0.296531,23.1241,16.3332,32.1211,0,0,3.42705,5
1774391053050,-0.0766852,1.0422,0.295798,26.3684,14.9885,32.4727,0,0,3.28973,5
1774391053063,-0.0746128,1.03503,0.295055,29.1497,13.9302,32.6667,0,0,3.28468,5
1774391053077,-0.0727912,1.03391,0.293288,31.6736,13.3556,32.6267,0,0,3.27358,5
1774391053090,-0.0689672,1.03459,0.292836,34.4645,13.4367,31.6761,0,0,3.28423,5
1774391053104,-0.0660365,1.03318,0.295596,37.2884,14.3705,29.5306,0,0,3.54694,5
1774391053117,-0.0570735,1.02669,0.296549,39.7343,15.0918,26.9467,0,0,3.32814,5
1774391053131,-0.0447014,1.01792,0.281712,41.7638,15.6154,24.4101,0,0,3.26947,5
1774391053144,-0.0328276,1.01007,0.274987,42.6955,14.749,21.9007,0,0,3.28186,5
1774391053158,-0.0360898,1.00928,0.261861,43.4255,13.9473,19.4467,0,0,3.29425,5
1774391053171,-0.0380776,1.00628,0.256143,44.2319,13.466,17.3741,0,0,3.53899,5
1774391053185,-0.0385371,1.00298,0.245517,44.6587,13.2031,15.559,0,0,3.29781,5
1774391053198,-0.0393501,0.999219,0.237129,44.6354,13.0423,14.2444,0,0,3.2679,5
1774391053211,-0.0382272,0.998869,0.23088,44.345,12.5933,13.4047,0,0,3.32242,5
1774391053225,-0.0387015,1.00026,0.222972,44.2006,12.1849,12.7055,0,0,3.25879,5
1774391053238,-0.0380553,0.999569,0.217759,43.9025,11.7494,12.3769,0,0,3.34157,5
1774391053252,-0.0376295,1.00041,0.212965,43.4605,11.3241,11.9348,0,0,3.64225,5
1774391053265,-0.0372224,1.00435,0.20757,43.1649,10.9651,11.4949,0,0,3.2881,5
1774391053279,-0.035349,1.01006,0.204077,42.9176,10.4883,10.9636,0,0,3.27596,5
1774391053292,-0.0407538,1.01751,0.198985,43.0635,10.1342,10.5447,0,0,3.3094,5
1774391053306,-0.0387366,1.02101,0.193678,43.1717,9.68867,10.4889,0,0,3.30768,5
1774391053320,-0.0391459,1.0259,0.189596,43.1347,9.00134,11.1825,0,0,3.82333,5
1774391053333,-0.0377116,1.03104,0.183846,43.4286,8.34014,11.6998,0,0,3.27938,5
1774391053346,-0.038817,1.03249,0.178582,43.7514,7.70448,12.3324,0,0,3.28503,5
1774391053360,-0.0361371,1.03369,0.172801,44.0894,7.0852,13.0258,0,0,3.2774,5
1774391053373,-0.0327203,1.03535,0.167123,44.4762,6.51521,13.5283,0,0,3.24899,5
1774391053386,-0.028428,1.03604,0.16149,44.9449,5.95322,13.8896,0,0,3.26771,5
1774391053400,-0.0244408,1.0356,0.155303,45.3659,5.38421,14.1827,0,0,3.31034,5
1774391053413,-0.0203824,1.03608,0.147978,45.7667,4.7662,14.3532,0,0,3.26308,5
1774391053427,-0.0174411,1.03575,0.14062,46.1258,4.13147,14.4455,0,0,3.28383,5
1774391053440,-0.0157067,1.03505,0.13273,46.4626,3.52121,14.6573,0,0,3.29371,5
1774391053453,-0.0111868,1.03489,0.124822,46.7299,2.85911,14.6727,0,0,3.25825,5
1774391053467,-0.00700341,1.03407,0.117239,46.8603,2.16607,14.3404,0,0,3.26695,5
1774391053480,-0.00220216,1.03462,0.110029,47.1319,1.34449,14.0138,0,0,3.28703,5
1774391053494,0.00236776,1.03319,0.103232,47.3403,0.654626,13.4393,0,0,3.31596,5
1774391053507,-0.000437041,1.03292,0.0963468,47.9493,0.089096,13.478,0,0,3.25351,5
1774391053520,0.00261431,1.03076,0.0870832,48.4844,-0.351795,13.6953,0,0,3.29618,5
1774391053534,0.00775301,1.0293,0.0774986,48.894,-1.0026,13.5724,0,0,3.27823,5
1774391053547,0.0101793,1.02579,0.0675751,48.8593,-1.60534,13.1155,0,0,3.28212,5
1774391053561,0.00452378,1.02641,0.0537722,48.7336,-2.0501,13.7076,0,0,3.26633,5
1774391053574,0.00772119,1.03033,0.0439575,49.0272,-2.62534,14.2468,0,0,3.27651,5
1774391053587,0.00893167,1.03431,0.0365792,49.7682,-3.2942,14.6368,0,0,3.33927,5
1774391053601,0.00977959,1.03843,0.0293741,50.8889,-3.92555,15.3457,0,0,3.24736,5
1774391053614,0.0134091,1.04228,0.0221959,52.2936,-4.62553,15.9339,0,0,3.30586,5
1774391053628,0.0158763,1.04597,0.0156519,53.8751,-5.39029,16.5024,0,0,3.26773,5
1774391053641,0.0159507,1.04903,0.00976772,55.4604,-6.19865,17.2162,0,0,3.29196,5
1774391053654,0.0168867,1.05252,0.00377789,57.0133,-7.06486,18.2891,0,0,3.27081,5
1774391053668,0.0163404,1.05938,0.00027081,58.6277,-8.00709,19.6088,0,0,3.26181,5
1774391053681,0.0191705,1.07182,0.000910257,60.5039,-8.93757,21.272,0,0,3.27147,5
1774391053695,0.0275249,1.09053,0.0057925,63.0627,-10.0758,23.1035,0,0,3.28934,5
1774391053708,0.0359518,1.11369,0.0140059,66.5318,-11.6883,24.7968,0,0,3.33592,5
1774391053721,0.0417999,1.14536,0.0241024,71.3632,-13.4905,26.3848,0,0,3.25399,5
1774391053735,0.0528376,1.18167,0.035978,77.859,-15.3192,27.9051,0,0,3.28753,5
1774391053748,0.0675031,1.22789,0.0411097,86.404,-17.7625,29.5679,0,0,3.27088,5
1774391053761,0.079125,1.27596,0.042942,95.5878,-20.5552,31.1477,0,0,3.24925,5
1774391053775,0.0874306,1.3109,0.0398362,104.256,-23.5076,33.3724,0,0,3.28596,5
1774391053788,0.10084,1.32313,0.0390443,112.439,-26.6666,35.1046,0,0,3.29662,4
1774391053802,0.114025,1.33514,0.0444583,120.162,-30.0971,37.7316,0,0,3.29675,4
1774391053815,0.133574,1.34636,0.0512477,127.452,-34.5619,41.2389,0,0,3.25547,4
1774391053828,0.150346,1.34213,0.0653528,134.334,-40.1533,44.7452,0,0,3.30299,4
1774391053842,0.16583,1.31111,0.0885677,140.829,-47.3143,47.4498,0,0,3.28571,4
1774391053855,0.15909,1.22085,0.110447,146.96,-54.3176,47.6147,0,0,3.27803,4
1774391053869,0.138979,1.08728,0.0756683,151.68,-58.9653,45.4239,0,0,3.3012,4
1774391053882,0.0997382,0.97304,0.0836233,145.005,-60.7811,44.7206,0,0,3.25327,4
1774391053895,0.0763822,0.888046,0.0900025,129.624,-60.0397,43.5211,0,0,3.29927,4
1774391053909,0.0701377,0.8172,0.0837495,108.322,-58.5299,40.298,0,0,3.29331,4
1774391053922,0.0452575,0.768596,0.0899524,88.2155,-55.3671,36.819,0,0,3.27764,1
1774391053936,0.027989,0.756145,0.108771,69.2365,-50.1261,36.2129,0,0,3.27962,1
1774391053949,0.0318899,0.767738,0.134006,51.3221,-45.2642,39.0669,0,0,3.28453,1
1774391053962,0.0292567,0.793164,0.143242,34.4125,-39.987,40.0531,0,0,3.29507,1
1774391053976,0.0335613,0.815769,0.144249,21.274,-34.9921,36.9256,0,0,3.24712,1
1774391053989,0.0292855,0.818872,0.146365,12.3656,-30.0564,32.3058,0,0,3.27694,1
1774391054003,0.0275777,0.80845,0.14764,3.59769,-25.3059,28.6431,0,0,3.27031,1
1774391054016,0.0300659,0.794256,0.149287,-7.27495,-21.1075,25.7146,0,0,3.31588,2
1774391054029,0.0331819,0.782775,0.151354,-20.2516,-17.5968,23.8286,0,0,3.27573,2
1774391054043,0.0312931,0.779452,0.153735,-33.1464,-14.2997,23.258,0,0,3.28657,2
1774391054056,0.0270525,0.78787,0.155532,-45.318,-10.9584,23.0552,0,0,3.27227,2
1774391054069,0.0228692,0.807855,0.156183,-56.8068,-7.47531,22.9394,0,0,3.23903,5
1774391054083,0.0186446,0.832146,0.154734,-67.6512,-3.92468,22.3939,0,0,3.27051,5
1774391054096,0.0133556,0.853185,0.154437,-77.8872,-0.295312,21.5818,0,0,3.30857,5
1774391054110,0.0106682,0.872941,0.155274,-87.5492,3.51113,20.5515,0,0,3.30968,5
1774391054123,0.0142589,0.89746,0.15836,-96.6691,7.25649,18.8815,0,0,3.24162,5
1774391054136,0.0232552,0.931006,0.163702,-105.278,10.7271,16.4689,0,0,3.2799,5
1774391054150,0.0372926,0.971222,0.169088,-113.403,13.5124,13.6397,0,0,3.36238,5
1774391054163,0.0542715,1.01439,0.173588,-121.073,15.2208,11.006,0,0,3.27262,5
1774391054176,0.0716183,1.05664,0.172968,-128.312,15.804,8.98588,0,0,3.27477,5
1774391054190,0.0859643,1.09475,0.165714,-134.454,15.6227,7.46147,0,0,3.24198,5
1774391054203,0.0955723,1.12765,0.152317,-139.125,15.1352,5.97033,0,0,3.31025,5
1774391054217,0.100436,1.15681,0.135865,-142.697,14.7196,4.48062,0,0,3.24447,5
1774391054230,0.106635,1.17924,0.116054,-145.934,14.5507,3.26716,0,0,3.27414,5
1774391054243,0.116834,1.19932,0.0935644,-149.464,14.2188,2.82956,0,0,3.26316,5
1774391054257,0.125017,1.22813,0.0655991,-152.197,13.3665,3.77427,0,0,3.24397,5
1774391054270,0.127526,1.25928,0.0326428,-152.684,12.3324,5.45986,0,0,3.27258,5
1774391054283,0.128173,1.28723,-0.00558798,-150.502,11.4749,6.78328,0,0,3.23783,5
1774391054297,0.126369,1.31023,-0.0465244,-146.109,10.9602,6.97099,0,0,3.33218,5
1774391054310,0.119049,1.33039,-0.090742,-140.242,10.9555,6.22586,0,0,3.24201,5
1774391054323,0.113682,1.34879,-0.135845,-132.6,11.5836,4.86912,0,0,3.27364,5
1774391054337,0.111978,1.36463,-0.177608,-123.635,12.4997,2.86869,0,0,3.25649,5
1774391054350,0.108629,1.37803,-0.212976,-113.658,13.6317,1.43521,0,0,3.27542,5
1774391054363,0.102448,1.3903,-0.241362,-102.718,15.2306,0.17591,0,0,3.28812,5
1774391054377,0.0805425,1.39884,-0.132558,-99.8494,15.2408,1.642,0,0,3.25536,5
1774391054390,0.0660977,1.38425,-0.100591,-89.581,12.9459,4.55491,0,0,3.26818,5
1774391054404,0.0646485,1.34069,-0.0419217,-78.6493,14.0905,5.09241,0,0,3.26875,5
1774391054417,0.0584901,1.29445,0.00702878,-69.0913,17.4304,2.02313,0,0,3.27596,5
1774391054430,0.0698441,1.24236,0.0344493,-61.1939,18.475,-1.18571,0,0,3.26375,5
1774391054444,0.071338,1.20244,0.0550652,-61.9704,18.3734,-1.29776,0,0,3.27529,5
1774391054457,0.0453697,1.19517,0.0724414,-66.516,18.1316,-2.43245,0,0,3.2657,5
1774391054470,0.0343956,1.28274,0.0602941,-67.0762,18.6166,2.74375,0,0,3.2626,5
1774391054484,0.0658723,1.35665,0.0759468,-54.214,15.1218,6.91495,0,0,3.26207,5
1774391054497,0.0685435,1.37088,0.102702,-37.1426,12.1293,4.07999,0,0,3.31047,5
1774391054511,0.0526162,1.36234,0.120814,-21.0288,9.93697,7.47231,0,0,3.29877,5
1774391054524,0.0580132,1.31692,0.141956,-5.81885,8.78868,9.29986,0,0,3.25147,5
1774391054537,0.0667723,1.2609,0.155468,4.2278,7.06938,10.3317,0,0,3.26279,5
1774391054551,0.0630514,1.20499,0.166072,8.98759,5.97961,11.6049,0,0,3.28916,5
1774391054564,0.0593438,1.15872,0.166667,9.43017,5.97518,12.8812,0,0,3.24353,5
1774391054577,0.0581365,1.13087,0.169244,7.12124,6.6454,13.8312,0,0,3.25597,5
1774391054591,0.0595125,1.12923,0.171057,4.61769,7.33241,14.3712,0,0,3.27412,5
1774391054604,0.0637537,1.1491,0.171306,4.74404,8.02712,14.3452,0,0,3.29566,5
1774391054617,0.0689626,1.16759,0.175399,8.55898,8.50388,12.936,0,0,3.24642,5
1774391054631,0.0753531,1.16717,0.182217,13.9112,8.51159,11.1694,0,0,3.27968,5
1774391054644,0.0772146,1.15011,0.187573,18.8271,8.36,9.69082,0,0,3.26171,5
1774391054657,0.0777776,1.13023,0.19247,22.1895,8.20664,8.54264,0,0,3.25497,5
1774391054671,0.072433,1.11268,0.190416,24.4324,8.5042,7.80227,0,0,3.25342,5
1774391054684,0.073141,1.09801,0.188976,25.5681,9.15459,7.35948,0,0,3.2509,5
1774391054697,0.075078,1.09037,0.187758,26.4894,9.78777,7.30164,0,0,3.26764,5
1774391054711,0.0795033,1.08739,0.184939,27.3804,10.0986,6.71608,0,0,3.29527,5
1774391054724,0.0855289,1.0872,0.186652,28.7746,9.82969,5.49841,0,0,3.2707,5
1774391054738,0.0922091,1.086,0.18559,30.8991,9.02312,3.88916,0,0,3.25133,5
1774391054751,0.0945614,1.08209,0.178936,33.3287,7.9565,1.82937,0,0,3.25472,5
1774391054764,0.0900629,1.07594,0.175691,35.3497,7.02934,-0.121292,0,0,3.2741,5
1774391054778,0.0851206,1.06751,0.170869,36.6892,6.35202,-1.48169,0,0,3.24401,5
1774391054791,0.0803411,1.05775,0.16472,37.032,5.9028,-2.37613,0,0,3.24272,5
1774391054804,0.076945,1.05076,0.160667,36.5314,5.78322,-2.74853,0,0,3.28312,5
1774391054818,0.073612,1.04755,0.156277,35.6645,5.76498,-2.72624,0,0,3.26886,5
1774391054831,0.0715673,1.04753,0.153255,34.9113,5.9169,-2.69193,0,0,3.25297,5
1774391054844,0.0710319,1.05081,0.150748,34.59,6.01919,-2.68052,0,0,3.26286,5
1774391054858,0.0741822,1.0534,0.149729,34.7586,5.9997,-2.97419,0,0,3.25864,5
1774391054871,0.0749418,1.05767,0.147836,35.4285,5.71197,-3.42866,0,0,3.2409,5
1774391054884,0.0721235,1.06115,0.146752,36.0613,5.52046,-3.85678,0,0,3.25168,5
1774391054898,0.0677843,1.06582,0.142352,36.9776,5.53965,-4.15727,0,0,3.27245,5
1774391054911,0.0653858,1.06751,0.139447,37.768,5.61557,-4.29189,0,0,3.31733,5
1774391054926,0.0623875,1.07093,0.138057,38.2499,5.626,-3.82206,0,0,3.29801,5
1774391054939,0.0636523,1.07702,0.135191,38.867,5.00513,-2.20579,0,0,3.38933,5
1774391054953,0.0621071,1.08007,0.131596,39.4842,4.49145,-1.04799,0,0,3.26625,5
1774391054966,0.0579069,1.08455,0.127058,40.4316,3.93635,0.705979,0,0,3.42005,5
1774391054980,0.0570721,1.08654,0.124587,41.3331,3.46464,2.09053,0,0,3.26909,5
1774391054993,0.0580676,1.08851,0.12326,42.3164,2.88065,3.30235,0,0,3.30986,5
1774391055007,0.0591796,1.09224,0.122866,43.4719,2.39664,4.46762,0,0,3.27362,5
1774391055020,0.0632966,1.09382,0.120568,44.846,1.85286,5.4609,0,0,3.28497,5
1774391055034,0.0622475,1.09373,0.114814,46.489,1.22483,6.80738,0,0,3.29097,5
1774391055047,0.0627497,1.091,0.107903,48.1435,0.496719,8.08177,0,0,3.52796,5
1774391055061,0.0610518,1.08839,0.0996185,49.6525,-0.298025,9.52102,0,0,3.58529,5
1774391055074,0.0594816,1.0867,0.0917172,51.0876,-1.04177,10.9648,0,0,3.27566,5
1774391055088,0.0611404,1.08665,0.0837237,52.7141,-1.81487,12.3695,0,0,3.24607,5
1774391055101,0.0639758,1.08552,0.076037,54.5431,-2.72016,13.5464,0,0,3.27397,5
1774391055115,0.0665058,1.08287,0.0680139,56.3431,-3.66203,14.6526,0,0,3.27403,5
1774391055129,0.0703558,1.07925,0.0601388,57.9034,-4.72362,15.7738,0,0,4.63583,5
1774391055143,0.072895,1.0766,0.0522344,59.0829,-5.90465,16.9139,0,0,3.25831,5
1774391055156,0.0760171,1.07498,0.0449319,59.8991,-7.09179,18.056,0,0,3.25288,5
1774391055169,0.0808285,1.0754,0.0365394,60.7021,-8.4761,19.1447,0,0,3.24557,5
1774391055183,0.0822477,1.07743,0.0293895,61.8021,-9.80803,20.1634,0,0,3.2592,5
1774391055196,0.085057,1.08266,0.0222319,63.6381,-11.2592,21.4067,0,0,3.24809,5
1774391055209,0.0879355,1.08903,0.0191243,65.8396,-12.5999,22.5382,0,0,3.27462,5
1774391055223,0.0972545,1.09819,0.0184161,68.3471,-14.1236,23.6346,0,0,3.30857,5
1774391055236,0.108269,1.1152,0.0218387,71.2508,-16.0238,24.8283,0,0,3.25025,5
1774391055250,0.119753,1.13856,0.0274499,74.902,-18.2678,25.8215,0,0,3.28231,5
1774391055263,0.126943,1.17472,0.0367876,79.5572,-20.7808,26.9671,0,0,3.29158,5
1774391055276,0.135314,1.22704,0.0433573,85.7513,-23.5896,28.5708,0,0,3.29818,5
1774391055290,0.144772,1.2884,0.0502482,94.5924,-26.5029,30.2408,0,0,3.2867,5
1774391055303,0.158545,1.33764,0.0562506,103.317,-29.6522,31.5097,0,0,3.27534,4
1774391055317,0.174812,1.35795,0.0678094,111.552,-33.1619,32.6094,0,0,3.32036,4
1774391055330,0.191265,1.35975,0.0825462,119.325,-37.1649,34.5273,0,0,3.27757,4
1774391055344,0.217921,1.36044,0.0949409,126.662,-42.6673,38.1998,0,0,3.36427,4
1774391055357,0.235851,1.35599,0.11399,133.588,-49.7737,43.2558,0,0,3.2954,4
1774391055370,0.24483,1.34436,0.130551,140.125,-58.3411,48.4251,0,0,3.31399,4
1774391055384,0.237486,1.24676,0.131632,146.295,-65.9613,49.1197,0,0,3.28953,4
1774391055397,0.210412,1.14627,0.145371,152.12,-71.7812,48.2421,0,0,3.27716,4
1774391055411,0.21429,1.03585,0.126554,153.828,-80.2562,48.5158,0,0,3.2979,4
1774391055424,0.207118,0.929093,0.124874,143.03,-87.8751,47.1376,0,0,3.26562,4
1774391055438,0.18544,0.841612,0.124591,125.364,-94.9694,45.4917,0,0,3.3014,4
1774391055451,0.151706,0.776939,0.128399,104.301,-99.7994,40.5537,0,0,3.28021,4
1774391055464,0.12991,0.719846,0.116271,84.4195,-98.0277,35.8164,0,0,3.30727,4
1774391055478,0.0907353,0.701797,0.155303,65.6534,-89.4812,30.0226,0,0,3.28092,4
1774391055491,0.0615484,0.707952,0.215808,47.9399,-80.0859,22.1436,0,0,3.28125,1
1774391055504,0.0387949,0.704783,0.245106,31.2201,-71.01,16.4531,0,0,3.2756,1
1774391055518,0.015296,0.725829,0.264517,15.438,-59.0099,16.2979,0,0,3.29151,2
1774391055531,0.04969,0.785855,0.266658,0.54128,-46.3899,22.8419,0,0,3.3016,2
1774391055545,0.039253,0.834628,0.277129,-11.3049,-36.5368,27.0688,0,0,3.2946,2
1774391055558,0.0719694,0.85084,0.29388,-18.4783,-28.14,34.2868,0,0,3.28744,2
1774391055571,0.0743099,0.850743,0.28311,-30.9986,-23.2756,41.576,0,0,3.28649,2
1774391055585,0.0832104,0.843807,0.275683,-43.2907,-18.2551,46.4562,0,0,3.28779,2
1774391055598,0.0836073,0.849292,0.275873,-54.8932,-12.9895,46.8241,0,0,3.30222,2
1774391055612,0.0833675,0.874749,0.278543,-65.8449,-7.56541,47.2695,0,0,3.44168,2
1774391055625,0.0882418,0.912183,0.280273,-76.1823,-2.39802,48.2195,0,0,3.30299,5
1774391055639,0.0998643,0.947168,0.279686,-85.9399,2.00079,48.9094,0,0,3.28236,5
1774391055652,0.116744,0.987669,0.276338,-95.1501,5.7538,49.5974,0,0,3.34873,5
1774391055666,0.139089,1.03679,0.265972,-103.844,8.74137,49.6825,0,0,3.30412,5
1774391055679,0.160862,1.08851,0.251116,-112.05,10.9533,48.5875,0,0,3.35357,5
1774391055693,0.18069,1.13619,0.234379,-119.795,12.5702,47.3496,0,0,3.28862,5
1774391055706,0.197879,1.17813,0.212566,-127.107,13.8159,46.4086,0,0,3.28016,5
1774391055719,0.216707,1.21627,0.186155,-134.008,14.9704,46.1334,0,0,3.30483,5
1774391055733,0.238898,1.25785,0.150916,-140.15,15.5929,46.6971,0,0,3.29125,5
1774391055746,0.253253,1.29528,0.105014,-143.727,15.0557,49.1621,0,0,3.33175,5
1774391055760,0.252128,1.31813,0.0512013,-145.535,13.1934,53.8618,0,0,3.30807,5
1774391055773,0.234194,1.3367,-0.00377104,-146.114,12.2268,57.7703,0,0,3.28677,5
1774391055787,0.222981,1.36769,-0.0632899,-143.932,13.0212,57.5168,0,0,3.2862,5
1774391055800,0.206097,1.39726,-0.124936,-138.418,15.0334,55.4899,0,0,3.2791,5
1774391055814,0.191169,1.42452,-0.181975,-129.889,17.962,53.6217,0,0,3.73436,5
1774391055827,0.183065,1.45068,-0.232184,-119.057,21.0008,51.6857,0,0,3.28379,5
1774391055841,0.173137,1.47141,-0.274464,-106.209,24.2409,48.5732,0,0,3.30214,5
1774391055854,0.15728,1.48248,-0.301272,-92.5969,28.251,45.0308,0,0,3.2691,5
1774391055867,0.155687,1.48753,-0.191609,-87.0993,32.9384,40.4997,0,0,3.31846,5
1774391055881,0.161776,1.45829,-0.0899991,-75.4985,34.3999,34.9541,0,0,3.28579,5
1774391055894,0.2192,1.4038,0.0521705,-66.5861,37.5426,30.4183,0,0,3.34421,5
1774391055908,0.234502,1.34486,0.061089,-57.5985,39.7721,25.3765,0,0,3.31564,5
1774391055921,0.238415,1.28021,0.058001,-51.4796,41.6368,22.1603,0,0,3.29646,5
1774391055935,0.233444,1.2289,0.0461649,-53.4904,40.3225,17.1847,0,0,3.29299,5
1774391055948,0.210754,1.22677,0.064998,-54.9564,39.466,13.2334,0,0,3.27457,5
1774391055961,0.170884,1.30796,0.0644189,-57.1139,41.6198,11.0292,0,0,3.3451,5
1774391055975,0.171172,1.38389,0.078941,-48.7382,43.004,12.5378,0,0,3.28749,5
1774391055988,0.193187,1.39073,0.0808912,-31.974,40.4839,10.2815,0,0,3.33696,5
1774391056002,0.201074,1.36824,0.120777,-17.0026,37.8153,8.49773,0,0,3.29158,5
1774391056016,0.200598,1.32418,0.133752,-4.34571,34.4182,10.66,0,0,3.87442,5
1774391056029,0.19253,1.26767,0.144719,1.93377,31.4124,10.7998,0,0,3.29934,5
1774391056042,0.18569,1.21878,0.150487,4.71556,29.575,10.9605,0,0,3.27112,5
1774391056056,0.172551,1.18734,0.159248,4.38725,28.4603,11.9595,0,0,3.32281,5
1774391056069,0.166308,1.17472,0.165459,3.07583,28.0016,13.3324,0,0,3.28525,5
1774391056083,0.169402,1.18251,0.16968,3.21331,27.313,14.4476,0,0,3.3401,5
1774391056096,0.171517,1.19586,0.17805,6.30869,26.0721,14.7924,0,0,3.3061,5
1774391056110,0.1748,1.19723,0.1863,11.204,24.2534,14.772,0,0,3.62872,5
1774391056124,0.176252,1.18246,0.192481,15.921,22.2293,14.6323,0,0,3.30883,5
1774391056138,0.170851,1.16348,0.192829,19.6558,20.737,14.593,0,0,3.27336,5
1774391056151,0.169604,1.14604,0.196654,21.9911,19.8453,14.093,0,0,3.30477,4
1774391056165,0.164706,1.13332,0.202382,23.641,19.6729,13.9247,0,0,3.27953,4
1774391056180,0.163674,1.12252,0.199574,24.8001,19.7105,13.0541,0,0,4.85241,5
1774391056193,0.164428,1.1165,0.203691,25.9413,19.7666,12.5372,0,0,3.27827,5
1774391056206,0.166313,1.11038,0.209901,27.1482,19.7754,11.84,0,0,3.3377,5
1774391056220,0.164132,1.10579,0.215467,28.6754,20.0432,10.6582,0,0,3.35471,5
1774391056234,0.165421,1.10528,0.21529,31.0906,20.6479,8.86613,0,0,3.39659,5
1774391056248,0.177693,1.1063,0.213156,34.6771,20.1808,6.4531,0,0,3.33196,5
1774391056261,0.185767,1.10296,0.21355,38.9227,18.7148,3.04073,0,0,3.29114,5
1774391056278,0.179671,1.09268,0.206507,42.6437,17.0211,-0.762136,0,0,3.30207,5
1774391056291,0.169102,1.08435,0.190312,45.5617,15.6771,-3.56939,0,0,3.26975,5
1774391056305,0.156539,1.0762,0.183366,47.615,15.0341,-4.98216,0,0,3.30092,5
1774391056318,0.148241,1.06583,0.176895,47.9213,14.6888,-5.49141,0,0,3.27264,5
1774391056333,0.140509,1.06156,0.169618,47.0613,14.1894,-5.31698,0,0,5.02017,5
1774391056347,0.13398,1.06477,0.164122,46.4631,13.8607,-5.04058,0,0,3.26953,5
1774391056361,0.128729,1.07052,0.160116,46.6067,13.4274,-4.58271,0,0,4.16433,5
1774391056374,0.127573,1.07239,0.156765,47.2363,13.0558,-4.16466,0,0,3.29783,5
1774391056389,0.126382,1.07188,0.151852,47.489,12.5157,-3.67628,0,0,4.35514,5
1774391056402,0.123941,1.07036,0.146503,47.6234,11.9567,-2.73787,0,0,3.28933,5
1774391056416,0.121532,1.06905,0.140395,47.5726,11.3776,-2.01567,0,0,3.27464,5
1774391056429,0.118149,1.06923,0.13448,47.5255,10.8225,-1.11645,0,0,3.30036,5
1774391056442,0.117637,1.07049,0.128631,47.5281,10.2925,-0.240273,0,0,3.26371,5
1774391056456,0.118205,1.07185,0.122055,47.6698,9.49895,0.621869,0,0,3.32333,5
1774391056469,0.116388,1.07153,0.116066,47.5997,8.7636,1.30463,0,0,3.30368,5
1774391056483,0.115088,1.07252,0.109762,47.6028,8.00655,2.23083,0,0,3.94268,5
1774391056497,0.113846,1.07462,0.103948,47.5219,7.23416,2.96893,0,0,3.33688,5
1774391056512,0.114889,1.07807,0.0982702,47.6656,6.47427,3.55728,0,0,3.31316,5
1774391056526,0.117979,1.07845,0.0919119,47.833,5.77456,3.7277,0,0,3.49238,5
1774391056540,0.115296,1.07874,0.0860026,48.2414,5.00876,4.23025,0,0,3.25855,5
1774391056553,0.112421,1.08083,0.0796577,48.9284,4.21013,5.1966,0,0,3.3014,5
1774391056566,0.113206,1.08262,0.0738038,49.8106,3.30472,6.18025,0,0,3.25166,5
1774391056585,0.114171,1.08453,0.0677361,50.8776,2.19447,7.01366,0,0,7.95036,5
1774391056598,0.113075,1.08534,0.0624142,51.9669,0.987634,7.80204,0,0,3.25755,5
1774391056611,0.112507,1.08703,0.0571222,53.0259,-0.16906,8.75601,0,0,3.33175,5
1774391056625,0.11395,1.08956,0.051026,54.4542,-1.44456,9.6963,0,0,3.54073,5
1774391056640,0.113643,1.09145,0.0463282,56.0229,-2.85105,10.6669,0,0,4.98533,5
1774391056654,0.111396,1.0939,0.0424977,57.581,-4.18251,12.0065,0,0,3.27883,5
1774391056668,0.116369,1.10002,0.0405538,59.4603,-5.89657,13.4907,0,0,4.13596,5
1774391056681,0.117056,1.11139,0.0421008,61.5964,-7.89344,15.0273,0,0,3.29316,5
1774391056695,0.122678,1.12702,0.0480644,64.192,-9.93673,16.8704,0,0,3.26162,5
1774391056708,0.13652,1.14905,0.0578244,67.5202,-12.7333,18.7442,0,0,3.29727,5
1774391056721,0.140853,1.17961,0.0728164,71.8414,-16.0154,20.1998,0,0,3.27116,5
1774391056736,0.142808,1.22856,0.0840351,77.9764,-19.3021,22.3017,0,0,3.31877,5
1774391056749,0.147976,1.28917,0.0916348,86.8853,-23.0648,24.537,0,0,3.25912,4
1774391056763,0.14711,1.34291,0.0951012,96.042,-26.4699,27.1402,0,0,3.28647,4
1774391056776,0.156905,1.36966,0.102847,104.685,-29.9633,28.6987,0,0,3.30238,4
1774391056790,0.166294,1.3708,0.117194,112.844,-33.2769,29.9933,0,0,4.10424,4
1774391056804,0.181421,1.37023,0.12424,120.544,-36.8855,31.9573,0,0,3.29427,4
1774391056817,0.201247,1.36953,0.135709,127.813,-42.0559,35.0851,0,0,3.27316,4
1774391056832,0.212209,1.35721,0.139052,134.674,-48.5008,38.2206,0,0,5.01215,4
1774391056846,0.208182,1.26561,0.147064,141.15,-54.1912,38.2896,0,0,3.26192,4
1774391056859,0.190429,1.16889,0.166546,147.263,-59.29,39.6238,0,0,3.28592,4
1774391056873,0.202611,1.04811,0.138869,149.801,-65.4666,40.3339,0,0,3.30771,4
1774391056886,0.202879,0.951106,0.135508,139.89,-70.7195,39.6562,0,0,3.29968,4
1774391056901,0.192993,0.866377,0.1327,124.329,-75.6405,39.9718,0,0,3.31864,4
1774391056915,0.150589,0.794237,0.146328,103.324,-80.0569,38.0071,0,0,3.99055,4
1774391056929,0.114119,0.742345,0.154332,83.4978,-82.3835,32.7071,0,0,3.9599,4
1774391056942,0.0951524,0.706421,0.165627,64.7834,-81.0975,25.7385,0,0,3.30583,4
1774391056956,0.0597826,0.676916,0.177997,47.1187,-73.0015,19.6673,0,0,3.29066,4
1774391056969,0.0345225,0.684564,0.205297,30.4449,-63.6734,12.7001,0,0,3.28718,2
1774391056983,0.0721329,0.748765,0.213327,14.7064,-53.3707,14.4644,0,0,3.28146,2
1774391056996,0.0716369,0.786668,0.210756,-0.149354,-48.2378,16.9548,0,0,3.26105,2
1774391057009,0.104229,0.834648,0.197226,-9.86166,-44.7869,19.8634,0,0,3.30422,2
1774391057023,0.09824,0.868604,0.194644,-12.7331,-43.221,21.708,0,0,3.26477,2
1774391057037,0.0888722,0.854779,0.182042,-18.0105,-41.0018,28.3129,0,0,4.03333,2
1774391057050,0.0716822,0.843567,0.177871,-27.0464,-37.7607,37.0976,0,0,3.26995,2
1774391057064,0.0539947,0.832802,0.163537,-38.1124,-31.917,44.9014,0,0,3.29164,2
1774391057077,0.0547617,0.831657,0.15693,-50.0054,-24.8082,49.6653,0,0,3.28579,2
1774391057092,0.0675601,0.850935,0.153601,-61.2313,-18.069,49.9098,0,0,4.90885,2
1774391057106,0.0749514,0.885086,0.150834,-71.8275,-11.7712,49.1882,0,0,3.28527,5
1774391057121,0.0898029,0.921416,0.148487,-81.8293,-6.41888,50.0494,0,0,5.09187,5
1774391057134,0.109461,0.954993,0.145602,-91.2701,-2.22357,50.7133,0,0,3.30925,5
1774391057148,0.13174,0.988693,0.14138,-100.181,0.945992,51.802,0,0,3.61679,5
1774391057161,0.154988,1.0242,0.134568,-108.593,3.25138,53.1987,0,0,3.33525,5
1774391057175,0.174688,1.06207,0.122789,-116.532,4.94403,54.5886,0,0,3.25981,5
1774391057188,0.187014,1.09589,0.10561,-123.732,6.37988,55.9896,0,0,3.27558,5
1774391057202,0.196485,1.12072,0.0870905,-130.325,8.24773,57.4105,0,0,3.31594,5
1774391057215,0.212214,1.14757,0.0654941,-136.89,10.2061,58.2986,0,0,3.27068,5
1774391057228,0.23065,1.18351,0.0390553,-141.472,11.67,59.3022,0,0,3.30066,5
1774391057242,0.242953,1.21464,0.00569038,-143.427,12.0247,61.5478,0,0,3.29416,5
1774391057255,0.246133,1.23069,-0.031618,-143.931,11.4174,64.9597,0,0,3.32244,5
1774391057269,0.240953,1.2462,-0.0728467,-143.246,10.8665,66.9894,0,0,3.27621,5
1774391057282,0.228537,1.26819,-0.117002,-140.356,11.2195,65.7128,0,0,3.27731,5
1774391057295,0.211079,1.2902,-0.160967,-135.022,12.7748,61.9921,0,0,3.27483,5
1774391057309,0.197652,1.31027,-0.205711,-127.699,15.1664,56.8192,0,0,3.2737,5
1774391057322,0.185335,1.33099,-0.246842,-118.514,17.8148,51.635,0,0,3.29796,5
1774391057336,0.1747,1.35322,-0.283538,-107.381,20.3057,46.9857,0,0,3.39218,5
1774391057349,0.211742,1.40187,-0.208219,-98.0882,24.2364,43.272,0,0,3.28471,5
1774391057362,0.185805,1.39744,-0.142141,-89.7092,28.1766,35.7771,0,0,3.31188,5
1774391057376,0.185196,1.36282,-0.0856371,-76.5977,30.213,27.6216,0,0,3.31683,5
1774391057389,0.250308,1.31601,0.0195919,-67.2297,32.5086,23.4187,0,0,3.28031,5
1774391057402,0.261612,1.26761,0.0308747,-59.044,34.3092,20.5615,0,0,3.28218,5
1774391057416,0.243242,1.24021,0.0250829,-54.3161,26.8881,15.417,0,0,3.29001,5
1774391057429,0.216952,1.23952,0.0472509,-55.943,25.901,17.2751,0,0,3.26592,5
1774391057443,0.169198,1.26749,0.0655987,-52.3974,26.2585,15.919,0,0,3.32707,5
1774391057456,0.162215,1.31381,0.0844894,-46.3694,29.8528,17.7309,0,0,3.28564,5
1774391057469,0.184237,1.321,0.0833356,-34.5483,30.8831,15.5469,0,0,3.30609,3
1774391057483,0.20489,1.31756,0.0921083,-20.8438,29.3833,11.8321,0,0,3.2814,3
1774391057496,0.209831,1.29664,0.104234,-7.79719,26.9665,9.54983,0,0,3.26581,3
1774391057510,0.20453,1.25857,0.114058,1.75027,25.0142,9.09808,0,0,3.2894,3
1774391057523,0.200166,1.21416,0.122277,7.19582,23.8483,9.17394,0,0,3.27425,3
1774391057536,0.197925,1.17624,0.124948,8.96566,23.4543,8.77667,0,0,3.37081,3
1774391057550,0.194981,1.155,0.129466,8.30904,23.3119,8.7832,0,0,3.29751,3
1774391057563,0.192818,1.15408,0.134652,8.02109,23.1797,9.1332,0,0,3.31201,3
1774391057577,0.192874,1.16512,0.139109,9.86239,23.0146,8.50186,0,0,3.31633,3
1774391057590,0.196034,1.17695,0.146265,14.4449,22.4785,7.0243,0,0,3.26529,3
1774391057603,0.201586,1.17823,0.151773,20.6744,21.3059,5.44122,0,0,3.29103,3
1774391057617,0.206618,1.16753,0.160895,26.6736,19.7408,3.86729,0,0,3.35609,3
1774391057630,0.206807,1.14741,0.165315,31.6657,18.3149,2.29601,0,0,3.33199,3
1774391057644,0.208152,1.12427,0.170374,34.8248,17.0821,0.315746,0,0,3.33603,3
1774391057657,0.206266,1.10344,0.167365,36.3709,16.1856,-1.93753,0,0,3.34616,3
1774391057671,0.196979,1.09484,0.155615,37.004,15.2087,-4.62619,0,0,3.2964,3
1774391057684,0.186976,1.09558,0.152311,38.1265,15.0262,-6.73756,0,0,3.29116,3
1774391057697,0.179931,1.09589,0.14611,39.77,14.8796,-8.01072,0,0,3.29512,5
1774391057711,0.177508,1.09023,0.139453,41.4229,14.6444,-8.82667,0,0,3.34881,5
1774391057724,0.171848,1.08307,0.134443,42.3061,14.2362,-9.2633,0,0,3.32527,5
1774391057738,0.166073,1.07569,0.128959,42.2799,13.7866,-8.92953,0,0,3.27279,5
1774391057751,0.161842,1.06979,0.125102,41.4785,13.2625,-8.29034,0,0,3.34122,5
1774391057765,0.157466,1.06967,0.120304,40.6899,12.7896,-7.65105,0,0,3.28957,5
1774391057778,0.156185,1.07185,0.117466,40.3562,12.315,-6.96754,0,0,3.29614,5
1774391057791,0.155056,1.07641,0.116023,40.6535,11.8224,-6.32194,0,0,3.2914,5
1774391057805,0.154446,1.0818,0.113619,41.7764,11.4505,-5.68002,0,0,3.31542,5
1774391057818,0.15224,1.08608,0.11039,43.3552,11.1058,-5.14175,0,0,3.29931,5
1774391057832,0.15059,1.087,0.106769,45.099,10.8065,-4.83364,0,0,3.26694,5
1774391057845,0.149898,1.08433,0.102708,46.4319,10.4791,-4.64986,0,0,3.3266,5
1774391057858,0.147453,1.07997,0.0984088,46.9789,10.1161,-4.47981,0,0,3.33879,5
1774391057872,0.14219,1.07918,0.0933257,47.0683,9.73065,-3.73055,0,0,3.31783,5
1774391057885,0.137786,1.08611,0.0883474,47.3531,9.49784,-2.88758,0,0,3.28946,5
1774391057899,0.134184,1.09408,0.0836937,48.1824,9.30678,-2.03837,0,0,3.26396,5
1774391057912,0.131925,1.09989,0.0793609,49.5517,9.04122,-0.964037,0,0,3.30497,5
1774391057925,0.132028,1.10139,0.0746838,51.0426,8.6621,0.0628773,0,0,3.27358,5
1774391057939,0.134582,1.10024,0.0697521,52.3016,8.18522,0.790693,0,0,3.34047,5
1774391057952,0.135028,1.10143,0.063947,53.5299,7.6336,1.3822,0,0,3.29716,5
1774391057966,0.133489,1.10263,0.0559935,55.078,6.89669,2.00818,0,0,3.32809,5
1774391057979,0.133492,1.09932,0.0484092,56.6464,6.16857,2.62987,0,0,3.28875,5
1774391057992,0.132992,1.09574,0.0397685,58.042,5.34514,3.3824,0,0,3.28609,5
1774391058006,0.132878,1.09388,0.031036,59.4595,4.48011,4.00366,0,0,3.29649,5
1774391058019,0.132587,1.09074,0.0215109,60.9696,3.52016,4.70654,0,0,3.30418,5
1774391058033,0.134113,1.08714,0.0121461,62.3783,2.6102,5.32546,0,0,3.32542,5
1774391058046,0.133148,1.08495,0.00273175,63.7217,1.56075,5.90452,0,0,3.33114,5
1774391058060,0.132963,1.08357,-0.00664458,65.1234,0.529478,6.5239,0,0,3.32347,5
1774391058073,0.13475,1.08297,-0.0152906,66.637,-0.595095,7.17447,0,0,3.28605,5
1774391058086,0.13537,1.08222,-0.0233769,68.2343,-1.77776,7.83736,0,0,3.33777,5
1774391058100,0.137169,1.08094,-0.0331276,69.883,-3.02598,8.58811,0,0,3.2871,5
1774391058113,0.136797,1.07886,-0.0421315,71.4229,-4.41013,9.44446,0,0,3.29747,5
1774391058127,0.139249,1.07761,-0.0481472,72.0984,-5.88835,10.5885,0,0,3.3337,5
1774391058140,0.146474,1.07881,-0.0512305,71.7666,-7.61506,11.9839,0,0,3.27975,5
1774391058154,0.156671,1.08402,-0.0528338,70.7362,-9.67996,13.2976,0,0,3.34414,5
1774391058167,0.163902,1.09966,-0.0480996,69.2665,-12.2375,14.336,0,0,3.28964,5
1774391058180,0.168201,1.1254,-0.0386183,67.642,-14.9247,15.2159,0,0,3.29553,5
1774391058194,0.172953,1.16943,-0.0308543,67.519,-17.8149,15.882,0,0,3.28686,5
1774391058207,0.168016,1.23246,-0.0296544,71.4943,-20.7605,16.6384,0,0,3.27546,4
1774391058221,0.166967,1.29957,-0.0259126,81.3718,-23.4369,17.6726,0,0,3.29242,4
1774391058234,0.169798,1.33465,-0.0236262,90.8379,-25.9524,18.2776,0,0,3.28512,4
1774391058247,0.182946,1.3344,-0.0128877,99.7729,-28.6937,18.5378,0,0,3.35205,4
1774391058261,0.195541,1.32005,-0.00508516,108.207,-31.3738,19.2664,0,0,3.2996,4
1774391058274,0.224615,1.30694,-0.00136075,114.971,-35.3311,21.1303,0,0,3.34123,4
1774391058288,0.237395,1.30204,0.00610852,120.412,-40.202,22.6199,0,0,3.28697,4
1774391058301,0.258756,1.26266,-0.00665058,127.688,-45.662,24.2363,0,0,3.32908,4
1774391058315,0.243863,1.17878,0.0262902,134.556,-51.0008,26.9167,0,0,3.29096,4
1774391058328,0.247889,1.08505,0.0256209,141.039,-57.4402,30.0309,0,0,3.2707,4
1774391058341,0.243893,0.994037,0.0186068,141.093,-64.4669,33.7261,0,0,3.34238,4
1774391058355,0.222176,0.908701,0.0242312,134.939,-70.0384,37.1575,0,0,3.29164,4
1774391058368,0.154708,0.830429,0.0563874,116.644,-71.6239,32.8874,0,0,3.33194,4
1774391058382,0.130838,0.764451,0.0689972,96.0699,-70.0873,26.9346,0,0,3.28573,4
1774391058395,0.0968545,0.723087,0.0774894,76.6503,-65.8344,18.5382,0,0,3.27844,4
1774391058408,0.0705284,0.697636,0.0976218,58.32,-58.4365,7.67228,0,0,3.29229,2
1774391058422,0.0529448,0.686676,0.124945,41.0179,-50.5436,-4.05963,0,0,3.28673,2
1774391058435,0.0375929,0.666148,0.156712,24.6863,-43.4391,-12.146,0,0,3.27383,2
1774391058448,0.0442234,0.712224,0.177138,9.27074,-35.296,-9.08699,0,0,3.29029,2
1774391058462,0.0671132,0.784749,0.202329,-5.28009,-30.4341,-4.73045,0,0,3.30303,2
1774391058475,0.0902511,0.859676,0.2023,-13.8076,-28.0573,-1.64465,0,0,3.28977,2
1774391058489,0.0881406,0.902392,0.209052,-13.9815,-26.8076,1.34814,0,0,3.27603,2
1774391058502,0.062676,0.872195,0.199941,-22.7608,-24.7759,11.7781,0,0,3.28429,2
1774391058515,0.0449233,0.863851,0.192564,-30.8661,-21.1262,21.7073,0,0,3.27486,2
1774391058529,0.0360294,0.855402,0.183385,-42.8928,-15.2864,29.9595,0,0,3.29207,2
1774391058542,0.0604733,0.865783,0.174511,-54.5176,-9.65681,33.696,0,0,3.2789,2
1774391058556,0.0766947,0.895697,0.180588,-65.4904,-5.19766,34.1202,0,0,3.3129,2
1774391058569,0.0897404,0.936613,0.182492,-75.8477,-0.895714,35.5303,0,0,3.32083,2
1774391058582,0.111931,0.970968,0.182327,-85.624,2.3154,35.9558,0,0,3.28568,5
1774391058596,0.134583,1.00599,0.181699,-94.852,4.58808,35.915,0,0,3.32216,5
1774391058609,0.158208,1.04664,0.177436,-103.562,5.71291,36.4066,0,0,3.29047,5
1774391058623,0.180437,1.08816,0.169078,-111.784,5.96751,36.8856,0,0,3.29373,5
1774391058636,0.200819,1.1266,0.156719,-119.545,5.73811,37.3729,0,0,3.2896,5
1774391058649,0.220512,1.16062,0.139178,-126.87,5.19744,38.0414,0,0,3.28675,5
1774391058663,0.237582,1.19259,0.116414,-133.629,4.26063,39.6152,0,0,3.31692,5
1774391058676,0.249431,1.22459,0.0880795,-138.93,2.55682,43.1051,0,0,3.32159,5
1774391058690,0.253941,1.25524,0.0551224,-142.422,0.0879178,48.1325,0,0,3.31334,5
1774391058703,0.24481,1.2827,0.0160793,-143.874,-2.05366,53.0831,0,0,3.30744,5
1774391058717,0.234734,1.3021,-0.0271286,-143.18,-3.05132,55.5833,0,0,3.33297,5
1774391058730,0.227181,1.31681,-0.0736679,-140.634,-3.03817,54.934,0,0,3.29534,3
1774391058743,0.219626,1.33101,-0.121941,-136.162,-2.31924,52.4803,0,0,3.3369,3
1774391058757,0.212018,1.34455,-0.168092,-129.72,-1.30366,49.7143,0,0,3.29038,3
1774391058770,0.204636,1.35775,-0.213495,-121.567,-0.494485,47.1145,0,0,3.35666,3
1774391058784,0.190359,1.37187,-0.251863,-111.536,0.776277,44.1129,0,0,3.2771,3
1774391058797,0.173033,1.38393,-0.282681,-100.271,3.60715,39.8744,0,0,3.27986,3
1774391058810,0.157063,1.39219,-0.307228,-88.3999,7.88364,35.6223,0,0,3.27718,3
1774391058824,0.12599,1.386,-0.187867,-84.4321,13.6947,28.229,0,0,3.27744,3
1774391058837,0.115633,1.35822,-0.110315,-75.7063,18.3473,19.05,0,0,3.31657,3
1774391058851,0.141016,1.32121,-0.00386828,-65.9301,23.529,11.1484,0,0,3.2801,3
1774391058864,0.152871,1.27854,0.0141206,-58.6968,29.0071,6.63556,0,0,3.3066,5
1774391058877,0.144456,1.23201,0.0168343,-51.6179,34.1454,3.66512,0,0,3.27862,5
1774391058891,0.101923,1.19748,0.00321107,-52.9942,35.2086,-3.93824,0,0,3.2712,5
1774391058904,0.094081,1.26299,0.0293892,-60.6552,37.9313,-3.31013,0,0,3.27855,5
1774391058917,0.101807,1.37729,0.0273031,-48.7637,36.4746,4.07764,0,0,3.27597,5
1774391058931,0.114801,1.40381,0.0507834,-31.998,34.4273,5.1917,0,0,3.30396,5
1774391058944,0.133419,1.37658,0.0711335,-16.1728,32.2457,4.15416,0,0,3.3074,5
1774391058958,0.139777,1.33271,0.0852124,-1.23522,29.51,4.77452,0,0,3.35849,2
1774391058971,0.136782,1.28698,0.101217,9.44752,27.4239,5.95911,0,0,3.2739,2
1774391058984,0.135754,1.23459,0.108279,15.5275,26.1614,6.51976,0,0,3.26627,2
1774391058998,0.136854,1.18211,0.110601,16.806,25.0613,6.41653,0,0,3.27384,2
1774391059011,0.133709,1.14434,0.113921,14.2829,24.3621,6.00009,0,0,3.30575,2
1774391059025,0.121978,1.13903,0.109174,10.3735,24.4685,6.37603,0,0,3.30662,2
1774391059038,0.111839,1.16398,0.113624,9.41528,25.508,7.3175,0,0,3.27397,5
1774391059051,0.12385,1.1889,0.116289,13.458,25.7518,6.28446,0,0,3.30136,5
1774391059065,0.133798,1.1958,0.123439,20.4024,25.1141,4.05179,0,0,3.30353,5
1774391059078,0.142787,1.18325,0.132369,27.2672,23.6934,2.04026,0,0,3.27959,5
1774391059092,0.140771,1.15758,0.138539,32.2945,22.2359,0.497387,0,0,3.2692,5
1774391059105,0.135458,1.12671,0.138694,34.4172,20.9497,-1.16233,0,0,3.28175,5
1774391059118,0.12663,1.10512,0.130643,34.0067,20.4138,-2.55339,0,0,3.29577,5
1774391059132,0.121519,1.09842,0.124887,32.5749,20.1179,-3.1034,0,0,3.26435,5
1774391059145,0.11707,1.10318,0.124304,32.0366,19.8548,-2.99998,0,0,3.30523,5
1774391059159,0.117,1.10722,0.121302,33.1859,19.3795,-2.95159,0,0,3.40425,5
1774391059172,0.118652,1.10327,0.118731,34.696,18.671,-3.05878,0,0,3.33031,5
1774391059185,0.116528,1.09222,0.115129,35.1844,17.8557,-3.05848,0,0,3.27207,5
1774391059199,0.113161,1.08313,0.111493,34.7112,17.2061,-2.76232,0,0,3.26697,5
1774391059212,0.113092,1.07903,0.108112,33.9319,16.6777,-2.60866,0,0,3.29368,5
1774391059226,0.113282,1.07945,0.106309,33.5028,16.0171,-2.43793,0,0,3.26035,5
1774391059239,0.114307,1.08307,0.105098,33.7782,15.4,-2.03185,0,0,3.30125,5
1774391059252,0.114828,1.08859,0.104153,34.8919,14.6501,-1.24863,0,0,3.3101,5
1774391059266,0.112539,1.09235,0.101061,36.9049,13.9589,-0.323071,0,0,3.32296,5
1774391059279,0.113789,1.08881,0.0983927,38.6825,13.4307,-0.022774,0,0,3.27468,5
1774391059293,0.114236,1.08352,0.0941965,39.8418,12.8084,-0.455677,0,0,3.27877,5
1774391059306,0.111611,1.07979,0.0898315,40.7615,12.4059,-0.791079,0,0,3.27166,5
1774391059319,0.108534,1.07815,0.0842373,41.3645,12.0415,-1.18089,0,0,3.2849,5
1774391059333,0.106927,1.07798,0.0802865,41.5868,11.8045,-1.40838,0,0,3.30827,5
1774391059346,0.104386,1.07822,0.0754941,41.5898,11.5055,-1.06048,0,0,3.28281,5
1774391059360,0.1006,1.07973,0.0724702,41.5435,10.992,-0.160468,0,0,3.3051,5
1774391059373,0.100151,1.08329,0.0693756,41.7031,10.6233,0.628689,0,0,3.29675,5
1774391059386,0.101387,1.08677,0.0655622,42.1612,10.2629,1.33504,0,0,3.28192,5
1774391059400,0.101448,1.08865,0.0617021,42.7859,9.93775,2.05744,0,0,3.30579,5
1774391059413,0.101304,1.09109,0.0580321,43.4757,9.53233,2.72947,0,0,3.2737,5
1774391059426,0.102201,1.09558,0.0544158,44.3422,9.06529,3.49568,0,0,3.25872,5
1774391059440,0.101042,1.10049,0.0499861,45.5982,8.5842,4.1761,0,0,3.27905,5
1774391059453,0.0993242,1.10439,0.0465189,47.1416,7.98023,5.17717,0,0,3.29096,5
1774391059467,0.0988349,1.10803,0.0422423,48.8439,7.36518,6.27795,0,0,3.30451,5
1774391059480,0.0999364,1.11349,0.0382276,50.8784,6.66216,7.37735,0,0,3.30781,5
1774391059493,0.10194,1.11813,0.0340894,53.3421,5.78278,8.49473,0,0,3.28216,5
1774391059507,0.105329,1.12138,0.0301109,56.0287,4.74462,9.58541,0,0,3.26405,5
1774391059520,0.108976,1.12478,0.026349,58.8355,3.4654,10.6641,0,0,3.31094,5
1774391059534,0.113254,1.12935,0.0236059,61.8369,2.03527,11.8459,0,0,3.27499,5
1774391059547,0.116949,1.13401,0.0217087,64.8673,0.270019,13.2419,0,0,3.30449,5
1774391059560,0.123014,1.14089,0.0230442,67.7329,-1.87621,14.7899,0,0,3.26744,5
1774391059574,0.130756,1.14936,0.0260509,70.0781,-4.35036,16.6536,0,0,3.3041,5
1774391059587,0.138725,1.15812,0.0338375,71.6375,-7.16359,18.5866,0,0,3.27797,5
1774391059601,0.150104,1.17283,0.0475189,72.5381,-10.3358,20.4304,0,0,3.30925,5
1774391059614,0.163805,1.19797,0.0635701,73.1382,-13.8671,21.7534,0,0,3.28888,5
1774391059627,0.17571,1.23947,0.0779051,74.9747,-17.5801,22.132,0,0,3.27044,5
1774391059641,0.170332,1.30174,0.0832532,80.8084,-21.1738,21.9962,0,0,3.35938,5
1774391059654,0.16331,1.3713,0.0884848,90.3061,-24.2513,22.2079,0,0,3.3261,4
1774391059668,0.167208,1.39958,0.0911174,99.271,-26.8479,21.3917,0,0,3.33986,4
1774391059681,0.179424,1.38193,0.0992081,107.733,-29.4748,20.0633,0,0,3.28238,4
1774391059695,0.194991,1.35273,0.101671,115.72,-31.9171,20.1972,0,0,3.34244,4
1774391059708,0.217299,1.32872,0.111104,123.26,-35.6097,21.1624,0,0,3.29171,4
1774391059721,0.232,1.31543,0.129799,130.204,-40.5249,23.0964,0,0,3.2704,4
1774391059735,0.243069,1.25877,0.125927,136.931,-46.3586,25.7569,0,0,3.31012,4
1774391059748,0.239336,1.16596,0.156027,143.281,-51.9306,29.6388,0,0,3.28503,4
1774391059761,0.246337,1.06581,0.136199,148.485,-59.7378,34.4423,0,0,3.28566,4
1774391059775,0.24844,0.972037,0.118445,146.51,-67.8829,40.1518,0,0,3.29849,4
1774391059788,0.230475,0.887204,0.115592,138.178,-75.7351,45.4892,0,0,3.29838,4
1774391059802,0.173941,0.808943,0.132436,118.776,-81.4757,44.5394,0,0,3.27344,4
1774391059815,0.157056,0.746286,0.130231,98.0824,-84.7965,40.9518,0,0,3.28899,4
1774391059828,0.13666,0.706325,0.133718,78.5499,-85.7817,35.2369,0,0,3.29062,4
1774391059842,0.110579,0.681831,0.144569,60.113,-82.2729,27.3754,0,0,3.26094,2
1774391059855,0.0707867,0.661163,0.162536,42.7103,-73.1068,20.9166,0,0,3.27559,2
1774391059869,0.0508216,0.670931,0.19174,26.2838,-62.9888,14.8752,0,0,3.34049,2
1774391059882,0.0348472,0.683379,0.224365,10.7787,-52.379,12.7246,0,0,3.28833,2
1774391059895,0.0425587,0.724836,0.243904,-3.85674,-40.3488,16.2067,0,0,3.28299,2
1774391059909,0.0534244,0.784542,0.199925,-17.6712,-29.2675,24.0048,0,0,3.37412,2
1774391059926,0.0620211,0.795053,0.222081,-20.8253,-20.4314,29.1102,0,0,3.32594,2
1774391059939,0.0982794,0.804497,0.225982,-21.0406,-12.2627,38.0017,0,0,3.29571,2
1774391059952,0.0994373,0.790742,0.22132,-28.7782,-7.64408,43.8164,0,0,3.30436,2
1774391059966,0.124012,0.768397,0.211481,-41.1948,-3.23189,46.2579,0,0,3.28734,2
1774391059979,0.132533,0.800744,0.211575,-52.9149,0.450251,46.0178,0,0,3.30797,2
1774391059993,0.134595,0.847607,0.210426,-63.9776,4.22087,47.6769,0,0,3.29364,2
1774391060007,0.144703,0.891897,0.208057,-74.4197,7.45156,49.4506,0,0,3.65292,2
1774391060020,0.15912,0.925687,0.202684,-84.2762,10.2959,50.694,0,0,3.29505,2
1774391060033,0.177978,0.949159,0.194162,-93.5797,12.7196,52.1358,0,0,3.28414,5
1774391060047,0.203261,0.973921,0.186204,-102.361,14.639,52.9601,0,0,3.30468,5
1774391060060,0.234389,1.01315,0.178691,-110.651,15.5135,53.0129,0,0,3.28583,5
1774391060074,0.262586,1.07066,0.16588,-118.475,14.9799,53.028,0,0,3.30803,5
1774391060088,0.28656,1.13252,0.143454,-125.86,13.2631,53.5664,0,0,3.29175,5
1774391060101,0.303742,1.18438,0.109804,-129.822,11.1083,53.5414,0,0,3.2972,5
1774391060114,0.305428,1.22402,0.0657114,-131.217,8.73604,53.2366,0,0,3.29101,5
1774391060128,0.280134,1.24106,0.0120691,-133.667,6.97302,55.5702,0,0,3.42562,5
1774391060141,0.251366,1.2668,-0.0495412,-134.308,6.20637,58.458,0,0,3.28216,5
1774391060155,0.218464,1.29491,-0.110368,-132.009,7.49348,58.0367,0,0,3.31316,5
1774391060168,0.193087,1.31952,-0.173948,-127.075,10.1343,54.9581,0,0,3.29229,5
1774391060182,0.174595,1.34108,-0.235239,-119.588,13.3715,50.4911,0,0,3.31686,5
1774391060195,0.161152,1.3629,-0.288778,-109.976,16.5916,45.6597,0,0,3.31292,5
1774391060209,0.146972,1.3858,-0.329235,-98.2615,19.948,40.7487,0,0,3.26994,5
1774391060222,0.151008,1.41678,-0.20606,-93.7432,24.6125,35.7209,0,0,3.6654,5
1774391060236,0.143891,1.39071,-0.163149,-83.8386,28.2191,28.3953,0,0,3.2751,5
1774391060249,0.180146,1.35488,-0.0682825,-72.6326,31.0885,22.9056,0,0,3.29788,5
1774391060263,0.216844,1.30995,-0.0216599,-63.6416,33.4578,19.9431,0,0,3.29629,5
1774391060276,0.20892,1.26167,-0.0165487,-56.6596,35.2318,18.6836,0,0,3.30677,5
1774391060290,0.177682,1.2304,-0.00296999,-58.2142,32.159,13.3473,0,0,3.29086,5
1774391060303,0.14197,1.27294,0.0203821,-61.1382,34.8455,17.0612,0,0,3.32686,5
1774391060317,0.133017,1.35036,0.0217649,-54.5107,36.3314,20.2589,0,0,3.32442,5
1774391060330,0.157416,1.38018,0.00584411,-39.1598,34.4138,18.2627,0,0,3.29409,5
1774391060344,0.183544,1.3839,0.0419327,-22.9329,32.1447,13.0476,0,0,3.39692,3
1774391060357,0.181219,1.35979,0.0561782,-7.61614,29.6043,10.4185,0,0,3.27701,3
1774391060371,0.179668,1.31775,0.0709539,6.00134,27.4432,10.991,0,0,3.28373,3
1774391060384,0.181826,1.26554,0.0793606,14.9893,25.7715,11.2253,0,0,3.29736,3
1774391060397,0.188373,1.20893,0.0836414,18.8218,24.3876,9.87289,0,0,3.28614,5
1774391060411,0.191175,1.15917,0.0887279,17.7275,22.9571,8.13002,0,0,3.29238,5
1774391060424,0.18354,1.13283,0.0901113,13.3962,22.3485,7.12419,0,0,3.28646,5
1774391060438,0.172738,1.13529,0.0940714,9.13368,22.409,6.94681,0,0,3.50872,5
1774391060451,0.161628,1.16881,0.089477,8.53443,22.9012,6.73228,0,0,3.31314,5
1774391060465,0.170308,1.18963,0.0943724,13.7043,22.8656,5.63615,0,0,3.28618,5
1774391060479,0.179932,1.1875,0.101894,20.5595,21.801,3.20262,0,0,3.30534,5
1774391060492,0.185089,1.17098,0.111136,26.7664,20.3486,0.205942,0,0,3.28471,5
1774391060506,0.185515,1.1439,0.114262,30.7697,18.6823,-1.94911,0,0,3.28912,5
1774391060519,0.178363,1.11632,0.111144,32.2749,17.5885,-4.35195,0,0,3.2827,5
1774391060533,0.166367,1.10163,0.107789,31.9799,17.4634,-6.96555,0,0,3.29775,5
1774391060546,0.15845,1.09884,0.102306,30.9251,17.5967,-7.91249,0,0,3.28344,5
1774391060559,0.156005,1.09611,0.0996154,30.4313,17.5847,-7.65535,0,0,3.40368,5
1774391060573,0.155685,1.09952,0.0972128,30.8978,17.2183,-7.40792,0,0,3.27562,5
1774391060586,0.153863,1.09983,0.0944242,32.1234,16.5895,-7.52634,0,0,3.30171,5
1774391060600,0.149162,1.09476,0.0938929,33.217,16.0049,-7.17568,0,0,3.29681,5
1774391060613,0.146974,1.0841,0.0924987,33.2592,15.597,-6.59548,0,0,3.29216,5
1774391060627,0.146194,1.08127,0.0896172,32.7394,15.1148,-6.18185,0,0,3.31109,5
1774391060641,0.144307,1.08442,0.0885701,32.8546,14.6613,-5.60816,0,0,3.2972,5
1774391060654,0.142886,1.08973,0.0853374,33.9495,14.1027,-4.55539,0,0,3.58705,5
1774391060668,0.140854,1.0911,0.0835379,35.5375,13.5262,-3.44349,0,0,3.3109,5
1774391060681,0.141122,1.08715,0.0812512,36.9122,13.0539,-2.86925,0,0,3.3034,5
1774391060695,0.142616,1.08152,0.0776338,37.845,12.5062,-2.81193,0,0,3.38653,5
1774391060708,0.141344,1.07755,0.0736194,38.4262,11.9649,-2.83961,0,0,3.28025,5
1774391060722,0.134917,1.07712,0.0696738,38.7718,11.5271,-2.89571,0,0,3.29092,5
1774391060735,0.131697,1.07684,0.0642031,39.0501,11.3652,-3.14948,0,0,3.29005,5
1774391060749,0.129845,1.07646,0.0606907,39.0713,11.1803,-3.14023,0,0,3.30101,5
1774391060762,0.128181,1.07722,0.057065,38.8622,10.9158,-2.51963,0,0,3.28686,5
1774391060776,0.125287,1.08019,0.0529892,38.8027,10.5656,-1.57631,0,0,3.38659,5
1774391060789,0.122456,1.08294,0.0492625,39.012,10.1476,-0.388307,0,0,3.31644,5
1774391060803,0.120752,1.08667,0.045261,39.4181,9.73301,0.94244,0,0,3.27109,5
1774391060816,0.122518,1.09029,0.0424915,40.051,9.22774,2.24136,0,0,3.33784,5
1774391060830,0.122445,1.09353,0.039352,40.9765,8.68573,3.42161,0,0,3.28414,5
1774391060843,0.12197,1.09488,0.0349725,42.0504,8.04995,4.65383,0,0,3.29409,5
1774391060856,0.121387,1.0961,0.0307632,43.2324,7.3719,5.96337,0,0,3.28838,5
1774391060870,0.122271,1.09822,0.0261827,44.5767,6.69248,7.22815,0,0,3.51638,5
1774391060884,0.123906,1.09987,0.0219307,46.159,5.95356,8.43397,0,0,3.3547,5
1774391060897,0.126837,1.10117,0.0172988,47.8479,5.08223,9.54089,0,0,3.28423,5
1774391060911,0.130814,1.10297,0.013083,49.7019,4.13732,10.4714,0,0,3.30173,5
1774391060924,0.13387,1.10496,0.0084536,51.794,3.0857,11.2962,0,0,3.29949,5
1774391060938,0.1374,1.10655,0.00346081,54.0048,1.87212,12.1197,0,0,3.29462,5
1774391060951,0.141022,1.10783,-0.000854531,56.2657,0.515952,12.9818,0,0,3.29907,5
1774391060965,0.143834,1.10936,-0.00560041,58.587,-1.01421,13.9573,0,0,3.43173,5
1774391060978,0.144793,1.11118,-0.00896428,60.7468,-2.82978,15.1724,0,0,3.29551,5
1774391060992,0.153932,1.11392,-0.00888187,62.4344,-4.67025,16.6468,0,0,3.27301,5
1774391061005,0.163311,1.11836,-0.00667838,63.6072,-7.01637,18.0265,0,0,3.28553,5
1774391061018,0.174331,1.12883,-0.00256399,64.6338,-9.57001,19.2411,0,0,3.25831,5
1774391061032,0.182637,1.14265,0.00533159,65.8819,-12.5319,20.0325,0,0,3.30464,5
1774391061045,0.190494,1.16235,0.017505,67.6167,-15.5495,20.4765,0,0,3.25959,5
1774391061059,0.195189,1.18954,0.0264768,70.1649,-18.5588,20.2819,0,0,3.37546,5
1774391061072,0.189781,1.22835,0.0268243,74.6615,-21.1175,19.6067,0,0,3.26327,5
1774391061086,0.179539,1.27896,0.0261851,82.1142,-23.3071,19.0605,0,0,3.51029,3
1774391061099,0.180848,1.32638,0.0192637,91.5386,-25.0142,18.7775,0,0,3.26601,4
1774391061112,0.190513,1.34208,0.020546,100.434,-26.5566,17.186,0,0,3.25411,3
1774391061126,0.206023,1.32431,0.0237153,108.831,-28.3199,15.6718,0,0,3.27464,3
1774391061139,0.2181,1.3065,0.0232654,116.703,-30.3692,15.7364,0,0,3.2557,3
1774391061153,0.238169,1.28788,0.0182441,122.349,-33.1364,16.4081,0,0,3.29612,4
1774391061166,0.250068,1.26942,0.0253151,127.114,-36.6352,17.2651,0,0,3.25807,4
1774391061179,0.257442,1.19166,0.0300803,134.015,-40.6177,19.1402,0,0,3.32462,4
1774391061193,0.269961,1.0982,0.0323523,140.528,-47.7453,23.2939,0,0,3.27934,3
1774391061206,0.275655,1.00371,0.0250011,142.904,-54.9681,28.4957,0,0,3.24301,3
1774391061220,0.271596,0.91468,0.0341255,138.552,-59.477,33.2713,0,0,3.27648,3
1774391061233,0.261609,0.827807,0.0725327,125.516,-57.6459,34.3797,0,0,3.25855,3
1774391061248,0.228312,0.758271,0.0922519,104.445,-58.4951,26.565,0,0,3.28346,3
1774391061261,0.169726,0.711946,0.105824,84.5554,-58.8784,16.6058,0,0,3.2511,3
1774391061274,0.121401,0.688252,0.124108,65.7817,-56.5936,3.6534,0,0,3.26435,3
1774391061290,0.0874881,0.682144,0.142885,48.061,-50.1165,-10.5823,0,0,4.9803,2
1774391061303,0.0525389,0.693514,0.160275,31.3344,-41.1399,-24.0196,0,0,3.39125,2
1774391061317,0.0721609,0.721833,0.216857,15.5459,-31.3625,-20.5215,0,0,3.23892,2
1774391061330,0.0914266,0.781991,0.250145,0.643111,-25.8807,-15.2808,0,0,3.27284,2
1774391061343,0.115007,0.845112,0.240359,-9.95718,-22.381,-8.93556,0,0,3.26733,2
1774391061357,0.130605,0.882166,0.248884,-12.941,-20.8828,-4.00133,0,0,3.27566,2
1774391061370,0.132346,0.889817,0.240925,-15.7151,-20.0985,2.87628,0,0,3.26534,2
1774391061384,0.124284,0.875449,0.241611,-25.4488,-19.535,11.0363,0,0,3.2721,2
1774391061397,0.116382,0.860685,0.224991,-36.9615,-17.2159,17.6592,0,0,3.30588,2
1774391061410,0.122823,0.869052,0.222732,-48.9191,-14.8565,20.3622,0,0,3.27984,2
1774391061424,0.135902,0.904418,0.219344,-60.2059,-13.3719,20.0494,0,0,3.28662,2
1774391061439,0.147212,0.945401,0.216371,-70.8596,-12.4613,19.7508,0,0,3.28768,2
1774391061452,0.165662,0.98361,0.211041,-80.9158,-12.444,19.7181,0,0,3.25084,2
1774391061469,0.188014,1.02121,0.203114,-90.4078,-13.7541,19.4825,0,0,6.22493,5
1774391061482,0.205448,1.06212,0.194989,-99.3674,-15.9936,19.9783,0,0,3.27446,5
1774391061499,0.218596,1.10552,0.184241,-107.824,-18.8487,21.6302,0,0,7.41245,5
1774391061513,0.219126,1.14629,0.165678,-114.556,-21.7547,24.0757,0,0,3.25118,5
1774391061526,0.210312,1.18052,0.141915,-119.909,-24.0653,27.6318,0,0,3.28834,5
1774391061540,0.199043,1.20519,0.112946,-124.681,-25.2558,31.4818,0,0,3.2559,5
1774391061553,0.195634,1.22416,0.0808335,-129.591,-25.4487,34.309,0,0,3.32236,3
1774391061566,0.197617,1.25098,0.0443282,-133.649,-25.4257,36.3213,0,0,3.26051,3
1774391061580,0.199481,1.28292,0.00429447,-134.89,-25.687,38.7148,0,0,3.54699,3
1774391061593,0.194568,1.31019,-0.0411954,-132.852,-26.3391,41.3753,0,0,3.27534,3
1774391061607,0.178393,1.32926,-0.0886249,-128.365,-26.464,43.5633,0,0,3.25005,3
1774391061620,0.154438,1.34046,-0.137707,-122.368,-25.284,44.3859,0,0,3.28053,3
1774391061633,0.12869,1.34557,-0.18572,-115.463,-22.442,43.2741,0,0,3.25134,3
1774391061647,0.106886,1.35139,-0.228377,-107.785,-18.1889,40.8275,0,0,3.30634,3
1774391061660,0.0915989,1.36002,-0.264631,-99.2161,-13.1188,38.0651,0,0,3.25577,3
1774391061674,0.0793505,1.36981,-0.292371,-89.4431,-7.57402,35.691,0,0,3.29086,3
1774391061687,0.131977,1.39762,-0.215,-81.7785,0.00967269,34.0748,0,0,3.27449,3
1774391061700,0.0943559,1.36633,-0.162965,-78.2246,7.97982,25.0881,0,0,3.39027,3
1774391061714,0.0925997,1.33029,-0.0906234,-70.5821,16.808,15.3149,0,0,3.27549,2
1774391061727,0.112562,1.29546,0.00354879,-62.6092,23.7276,8.75116,0,0,3.25414,2
1774391061741,0.108398,1.26332,0.0233273,-57.7005,28.3082,6.74793,0,0,3.31075,2
1774391061754,0.0700785,1.2363,0.00820301,-56.6439,29.6902,4.03495,0,0,3.25814,2
1774391061767,0.0627217,1.27796,0.0323691,-58.6776,30.3165,8.49898,0,0,3.28351,2
1774391061781,0.0941981,1.38416,0.0333451,-47.3141,26.9105,14.3611,0,0,3.27101,2
1774391061795,0.0938689,1.42345,0.054287,-30.6297,24.39,11.8608,0,0,3.83088,2
1774391061808,0.0935861,1.40778,0.0772278,-14.8813,23.1551,11.9303,0,0,3.2771,2
1774391061821,0.0931662,1.36873,0.0966989,-0.0161436,22.1517,13.1725,0,0,3.25951,2
1774391061835,0.0995552,1.31963,0.108944,13.7968,21.3322,12.789,0,0,3.31577,2
1774391061848,0.105889,1.26303,0.111408,22.9431,20.9167,12.4099,0,0,3.25668,2
1774391061862,0.110931,1.19931,0.113775,26.1787,20.4225,11.8757,0,0,3.31499,2
1774391061875,0.116949,1.13641,0.114522,23.3272,19.8028,11.2412,0,0,3.26198,5
1774391061889,0.116831,1.09195,0.108019,15.5017,19.4717,10.457,0,0,3.29294,5
1774391061902,0.108508,1.09077,0.11047,5.86037,19.7583,11.2316,0,0,3.27658,5
1774391061915,0.095008,1.13959,0.113593,-0.397448,20.2908,11.8759,0,0,3.27721,5
1774391061929,0.10547,1.19009,0.116964,3.10215,20.1494,11.2474,0,0,3.2817,5
1774391061942,0.116574,1.19232,0.127373,10.6051,19.122,8.25721,0,0,3.25607,5
1774391061956,0.11959,1.17342,0.134327,17.0727,17.8948,5.08748,0,0,3.31109,5
1774391061969,0.122037,1.14155,0.137549,20.668,16.7108,2.89796,0,0,3.25864,5
1774391061982,0.119476,1.11256,0.132847,21.1559,15.9751,1.67222,0,0,3.30062,5
1774391061996,0.115009,1.101,0.131778,19.8412,15.6866,1.06674,0,0,3.48912,5
1774391062010,0.112285,1.10271,0.131086,19.0712,15.6443,0.686194,0,0,3.35827,5
1774391062023,0.112628,1.10646,0.130703,19.7206,15.451,0.200249,0,0,3.27888,5
1774391062036,0.114461,1.1057,0.131713,21.345,14.9709,-0.637811,0,0,3.2532,5
1774391062050,0.111559,1.10138,0.129466,23.2165,14.5564,-1.66308,0,0,3.28738,5
1774391062063,0.109146,1.09311,0.126783,24.6679,14.3847,-2.26474,0,0,3.25899,5
1774391062077,0.109284,1.08328,0.124003,25.2864,14.3619,-2.78855,0,0,3.31007,5
1774391062090,0.109235,1.07658,0.121324,25.264,14.0615,-3.14296,0,0,3.27168,5
1774391062104,0.106316,1.07484,0.119019,25.2714,13.7922,-3.35888,0,0,3.50273,5
1774391062117,0.105809,1.07324,0.116633,25.5332,13.4086,-3.37172,0,0,3.27014,5
1774391062130,0.1021,1.07049,0.114575,25.7932,13.026,-3.26909,0,0,3.27299,5
1774391062144,0.100859,1.06811,0.112746,25.9902,12.7715,-2.96582,0,0,3.29768,5
1774391062157,0.102054,1.06807,0.110666,26.3474,12.4396,-2.71169,0,0,3.27805,5
1774391062171,0.101199,1.0701,0.107994,27.0349,11.9748,-2.17892,0,0,3.27412,5
1774391062184,0.0974676,1.0781,0.105983,28.4168,11.5853,-0.933569,0,0,3.27518,5
1774391062198,0.0952977,1.08009,0.103964,30.4522,11.2887,0.301876,0,0,3.67164,5
1774391062211,0.0934897,1.07909,0.100826,32.4538,11.0567,1.23166,0,0,3.30307,5
1774391062225,0.094099,1.07405,0.0968335,33.8559,10.8617,1.66013,0,0,3.25605,5
1774391062238,0.0940304,1.06882,0.0925987,34.7041,10.5766,1.95409,0,0,3.30916,5
1774391062252,0.0937405,1.06767,0.088122,35.2714,10.2779,2.41911,0,0,3.25853,5
1774391062265,0.0931644,1.06774,0.0840547,35.6,9.90561,2.98435,0,0,3.29675,5
1774391062278,0.0926241,1.06814,0.0793004,35.7886,9.4536,3.87372,0,0,3.27533,5
1774391062292,0.0927481,1.06946,0.0749355,36.0505,9.01625,4.89218,0,0,3.28236,5
1774391062305,0.0928453,1.07097,0.0696191,36.5542,8.63682,5.80555,0,0,3.30905,5
1774391062319,0.0926179,1.07282,0.0647594,37.2853,8.2654,6.73792,0,0,3.49031,5
1774391062332,0.0937992,1.07351,0.0599414,38.1912,7.93066,7.57345,0,0,3.28222,5
1774391062346,0.0952598,1.07246,0.0537113,39.2158,7.45926,8.46574,0,0,3.27288,5
1774391062359,0.0960052,1.07012,0.0477642,40.0609,6.97876,9.3949,0,0,3.27597,5
1774391062373,0.0984904,1.0671,0.0422481,40.6865,6.49054,10.152,0,0,3.27923,5
1774391062386,0.102063,1.06602,0.0359696,41.2342,5.98217,10.7104,0,0,3.27773,5
1774391062399,0.105094,1.06551,0.0301044,41.91,5.46935,11.127,0,0,3.35262,5
1774391062413,0.109072,1.06363,0.0226059,42.7021,4.93947,11.3554,0,0,3.40051,5
1774391062426,0.110591,1.06143,0.0151898,43.4236,4.32628,11.5453,0,0,3.29277,5
1774391062440,0.111669,1.05921,0.00802333,44.1367,3.804,11.7772,0,0,3.25323,5
1774391062453,0.115039,1.05898,0.000657733,44.8244,3.27505,11.9438,0,0,3.2957,5
1774391062467,0.119905,1.06041,-0.0061295,45.733,2.69356,12.0288,0,0,3.25605,5
1774391062480,0.122659,1.06101,-0.013378,46.8416,2.08175,11.9402,0,0,3.29592,5
1774391062493,0.125409,1.06193,-0.0203095,47.9873,1.44216,11.9016,0,0,3.25648,5
1774391062507,0.128541,1.06405,-0.0272474,49.3265,0.758379,11.8219,0,0,3.28834,5
1774391062520,0.133863,1.06703,-0.032825,50.7611,-0.0317734,11.8152,0,0,3.27318,5
1774391062534,0.138675,1.07225,-0.0370696,52.4024,-0.861101,11.7746,0,0,3.44805,5
1774391062547,0.144398,1.07968,-0.0405626,54.2866,-1.9689,11.735,0,0,3.27533,5
1774391062561,0.151813,1.08899,-0.0427499,56.4551,-3.25649,11.5456,0,0,3.25312,5
1774391062574,0.162791,1.10156,-0.0435709,59.0013,-4.70179,11.2162,0,0,3.2802,5
1774391062587,0.175253,1.11536,-0.0409394,61.8675,-6.65777,10.7185,0,0,3.2546,5
1774391062601,0.186797,1.12712,-0.0357217,64.5798,-9.00673,10.2419,0,0,3.79092,5
1774391062615,0.195337,1.1368,-0.03259,66.9489,-11.6328,9.80567,0,0,3.25364,3
1774391062628,0.201721,1.14504,-0.0326275,69.0259,-14.3219,9.06981,0,0,3.30342,3
1774391062641,0.2068,1.15211,-0.0393898,71.1204,-16.9479,7.78005,0,0,3.26766,3
1774391062655,0.207793,1.1597,-0.0492836,73.1232,-19.4878,6.04325,0,0,3.34942,3
1774391062668,0.206617,1.16604,-0.0640085,75.3278,-22.0617,5.00846,0,0,3.27847,3
1774391062682,0.208119,1.17345,-0.0811857,78.5179,-24.5948,4.64061,0,0,3.24529,3
1774391062695,0.209951,1.17681,-0.0962985,83.2849,-26.9225,3.43701,0,0,3.31468,3
1774391062709,0.218098,1.17405,-0.108295,88.9296,-29.4835,2.77022,0,0,3.27057,3
1774391062722,0.231579,1.15876,-0.125585,93.9904,-32.601,2.9942,0,0,3.29257,3
1774391062735,0.24162,1.13644,-0.143902,97.1244,-35.8369,2.38864,0,0,3.26933,3
1774391062749,0.250176,1.11398,-0.155386,98.1947,-39.0275,1.27882,0,0,3.45668,3
1774391062762,0.251876,1.08443,-0.150747,97.9492,-42.3277,0.110504,0,0,3.26777,3
1774391062776,0.251869,1.01463,-0.135272,99.6746,-45.5687,-0.329019,0,0,3.25372,3
1774391062789,0.250581,0.942164,-0.138431,100.725,-50.4673,0.93503,0,0,3.27327,3
1774391062803,0.228796,0.87917,-0.126612,99.7438,-54.6819,2.58505,0,0,3.65546,3
1774391062816,0.180044,0.832842,-0.0890121,93.4395,-54.4638,-0.758503,0,0,3.28031,3
1774391062830,0.129921,0.790686,-0.0724138,80.5482,-48.9771,-10.5214,0,0,3.26097,3
1774391062843,0.113605,0.743039,-0.0615917,63.5027,-41.5845,-18.6269,0,0,3.30746,3
1774391062857,0.101217,0.722203,-0.0322699,45.9098,-33.7694,-21.0174,0,0,3.2699,3
1774391062870,0.11035,0.743544,-0.0118432,29.3038,-25.9679,-18.6935,0,0,3.2569,3
1774391062883,0.114247,0.77258,0.0119611,13.6845,-20.8268,-14.2897,0,0,3.27914,2
1774391062897,0.134865,0.808737,0.0193816,5.67501,-17.2303,-10.6946,0,0,3.2596,2
1774391062910,0.137775,0.827565,0.0317947,2.2108,-15.0118,-8.75195,0,0,3.29838,2
1774391062924,0.129935,0.814788,0.0362338,-4.53725,-13.0886,-3.93678,0,0,3.25862,2
1774391062937,0.119576,0.804182,0.0390481,-12.2235,-10.8789,0.900324,0,0,3.29485,2
1774391062950,0.113204,0.790665,0.0391662,-22.7156,-7.99457,4.71635,0,0,3.26759,2
1774391062964,0.117468,0.796318,0.0373038,-35.4594,-5.44888,5.44733,0,0,3.3536,2
1774391062977,0.113569,0.819479,0.0395268,-47.4653,-3.60005,5.1392,0,0,3.2799,2
1774391062991,0.110193,0.847703,0.0393677,-57.6099,-1.82111,5.87601,0,0,3.25016,2
1774391063004,0.11241,0.871564,0.0352438,-67.0548,-0.484069,5.86199,0,0,3.30036,5
1774391063018,0.116441,0.898705,0.0297093,-76.3815,0.507787,5.85645,0,0,3.27283,5
1774391063031,0.121193,0.93176,0.0210323,-85.027,1.34381,5.98911,0,0,3.29747,5
1774391063044,0.127168,0.969369,0.00739634,-92.4875,2.10425,6.20296,0,0,3.26829,5
1774391063058,0.132871,1.00763,-0.00814169,-98.2043,2.77366,6.51913,0,0,3.45475,5
1774391063071,0.135655,1.04023,-0.0239504,-102.572,3.46845,7.25732,0,0,3.2747,5
1774391063085,0.137282,1.06482,-0.0397298,-106.415,4.2446,8.55785,0,0,3.25212,5
1774391063098,0.139446,1.08508,-0.0558868,-109.989,4.94895,10.0333,0,0,3.27753,5
1774391063112,0.140149,1.10063,-0.0713585,-113.36,5.64419,11.5747,0,0,3.27553,5
1774391063125,0.14349,1.11375,-0.0858547,-116.56,6.27731,12.642,0,0,3.30777,5
1774391063138,0.149109,1.12802,-0.0992472,-119.229,6.68266,13.1772,0,0,3.25473,5
1774391063152,0.15634,1.14381,-0.112993,-120.642,6.58571,13.6652,0,0,3.37701,5
1774391063165,0.162528,1.15763,-0.126865,-120.361,5.80952,14.5485,0,0,3.27497,5
1774391063179,0.165094,1.16724,-0.140332,-119.273,4.46628,16.0575,0,0,3.25618,5
1774391063192,0.166042,1.17427,-0.152773,-117.908,2.73766,17.854,0,0,3.27881,5
1774391063205,0.162218,1.18085,-0.165972,-116.104,0.888906,19.5278,0,0,3.24918,5
1774391063219,0.153224,1.18585,-0.17948,-113.373,-0.688724,21.0161,0,0,3.30473,5
1774391063232,0.14206,1.18622,-0.191031,-109.851,-1.74411,22.1876,0,0,3.25953,5
1774391063246,0.130594,1.18212,-0.200977,-106.606,-2.13955,23.045,0,0,3.30518,5
1774391063259,0.121605,1.17975,-0.21225,-103.569,-1.99256,23.5383,0,0,3.27203,5
1774391063273,0.112689,1.18366,-0.223862,-99.7165,-1.36654,23.9586,0,0,3.34944,5
1774391063286,0.113558,1.20149,-0.192825,-95.964,0.265714,24.3929,0,0,3.27533,5
1774391063299,0.0588698,1.20689,-0.191225,-97.4835,4.76132,17.1367,0,0,3.25364,5
1774391063313,0.0542239,1.19127,-0.170798,-96.4702,10.8567,9.63532,0,0,3.29723,5
1774391063326,0.0449233,1.16104,-0.154349,-93.7287,15.5743,3.22057,0,0,3.25592,5
1774391063340,0.0304774,1.1326,-0.121195,-87.6303,18.8974,-2.78256,0,0,3.27203,5
1774391063353,0.0280662,1.11721,-0.0418186,-87.273,21.7146,-1.66178,0,0,3.27253,5
1774391063367,0.0191514,1.13019,-0.0241346,-85.6871,21.9229,3.45235,0,0,3.3851,5
1774391063380,0.0333789,1.17309,-0.00750157,-79.6107,19.5846,9.21177,0,0,3.27888,5
1774391063394,0.0565508,1.19791,0.0203302,-67.9905,15.5328,11.787,0,0,3.24773,5
1774391063407,0.0473192,1.20079,0.0321039,-55.4332,12.9797,10.5362,0,0,3.27857,5
1774391063421,0.0392387,1.17725,0.0431064,-44.5578,12.6117,11.348,0,0,3.27235,5
1774391063434,0.0471639,1.13941,0.0559127,-37.3625,12.8844,11.051,0,0,3.30244,5
1774391063447,0.0566537,1.11236,0.0616139,-33.5425,12.4173,10.4478,0,0,3.25638,5
1774391063461,0.0556175,1.0989,0.072746,-31.2285,12.1802,10.1534,0,0,3.38357,5
1774391063474,0.0621111,1.09265,0.0838396,-28.9814,11.8593,9.59453,0,0,3.28383,5
1774391063488,0.0643062,1.08465,0.0951634,-26.7529,11.2176,8.91548,0,0,3.29662,5
1774391063501,0.0657967,1.07604,0.107455,-24.6451,10.4706,8.51173,0,0,3.28597,5
1774391063515,0.067884,1.06906,0.118632,-22.5284,9.70732,8.24367,0,0,3.27834,5
1774391063528,0.0705847,1.06185,0.12853,-20.4863,8.89948,7.98037,0,0,3.28848,5
1774391063542,0.0730819,1.05381,0.138231,-18.7086,8.04446,7.74854,0,0,3.26568,5
1774391063555,0.0762172,1.04512,0.147037,-17.335,7.17831,7.45135,0,0,3.28425,5
1774391063569,0.0785534,1.0371,0.155608,-16.3203,6.44425,7.11174,0,0,3.26707,5
1774391063582,0.0799014,1.03063,0.164669,-15.52,5.84342,6.80104,0,0,3.44753,3
1774391063596,0.0809554,1.02675,0.172863,-14.664,5.36578,6.52702,0,0,3.27286,3
1774391063609,0.0823371,1.02328,0.18165,-13.5798,4.91108,6.24911,0,0,3.25988,3
1774391063622,0.0839359,1.01906,0.18955,-12.3557,4.56367,5.87975,0,0,3.27501,3
1774391063636,0.0858065,1.01365,0.196369,-11.1826,4.33852,5.43219,0,0,3.26018,3
1774391063649,0.0879369,1.00775,0.202846,-10.1674,4.13584,4.98318,0,0,3.26838,3
1774391063662,0.0892695,1.00286,0.209521,-9.26826,3.93596,4.50713,0,0,3.27121,3
1774391063676,0.0902876,0.999431,0.216373,-8.34802,3.76143,4.03037,0,0,3.27199,3
1774391063689,0.0921259,0.996061,0.220865,-7.32698,3.63522,3.5157,0,0,3.2781,3
1774391063703,0.0932006,0.992101,0.22673,-6.35249,3.47713,2.96995,0,0,3.24807,3
1774391063716,0.0931499,0.989639,0.231634,-5.31535,3.43795,2.45053,0,0,3.65772,3
1774391063730,0.0940516,0.987561,0.237146,-4.1407,3.40824,1.92343,0,0,3.24916,3
1774391063743,0.0947751,0.985052,0.241573,-2.8611,3.38063,1.44815,0,0,3.30249,3
1774391063757,0.0948798,0.9823,0.246202,-1.57448,3.38069,0.943447,0,0,3.25166,3
1774391063770,0.094777,0.979668,0.249742,-0.298376,3.47538,0.488888,0,0,3.29633,3
1774391063783,0.0953834,0.977023,0.253277,0.955391,3.58316,-0.0198165,0,0,3.27057,3
1774391063797,0.0948742,0.975326,0.256742,2.24759,3.73671,-0.540664,0,0,3.2882,3
1774391063810,0.0951667,0.973491,0.259063,3.60818,3.85125,-1.00917,0,0,3.28301,3
1774391063824,0.094731,0.970881,0.260332,4.922,3.95722,-1.43385,0,0,3.27251,3
1774391063837,0.094592,0.968225,0.261493,6.0692,3.98574,-1.78375,0,0,3.30759,3
1774391063850,0.0942136,0.965814,0.263136,7.0373,4.00238,-2.12301,0,0,3.25712,3
1774391063864,0.093179,0.964458,0.265209,7.94853,4.01938,-2.40214,0,0,3.28862,5
1774391063877,0.0919334,0.963354,0.265409,8.88401,4.05126,-2.58725,0,0,3.26997,5
1774391063890,0.0919595,0.961284,0.266454,9.71777,3.97474,-2.70932,0,0,3.26659,5
1774391063904,0.0921979,0.95892,0.265564,10.3164,3.87082,-2.74361,0,0,3.27527,3
1774391063917,0.0923192,0.956563,0.26641,10.6562,3.71878,-2.88644,0,0,3.58614,3
1774391063931,0.0913781,0.955302,0.265094,10.8467,3.57099,-3.00072,0,0,3.27759,3
1774391063944,0.0917381,0.954374,0.264018,10.9714,3.27091,-3.06961,0,0,3.25833,3
1774391063958,0.0912389,0.952633,0.263319,10.9207,2.93158,-3.11452,0,0,3.27535,3
1774391063971,0.0906333,0.95132,0.263484,10.7085,2.6648,-3.13422,0,0,3.26931,3
1774391063984,0.0896272,0.951153,0.263119,10.4637,2.36375,-3.09672,0,0,3.27559,3
1774391063998,0.0884836,0.951399,0.263367,10.3131,2.16908,-3.02664,0,0,3.27486,3
1774391064011,0.0879665,0.952137,0.263904,10.2929,1.98275,-2.94207,0,0,3.25518,3
1774391064025,0.0877923,0.953803,0.264769,10.5313,1.75935,-2.91535,0,0,3.27814,3
1774391064038,0.0879568,0.954307,0.264476,10.9836,1.5352,-2.99203,0,0,3.24996,3
1774391064051,0.088018,0.953615,0.264825,11.4363,1.34376,-3.12993,0,0,3.30231,3
1774391064065,0.0876814,0.953369,0.263728,11.8096,1.16262,-3.35686,0,0,3.25009,3
1774391064078,0.0872848,0.952483,0.260725,12.1482,1.02504,-3.47686,0,0,3.29012,3
1774391064092,0.0852187,0.950461,0.258367,12.2106,0.960695,-3.53532,0,0,3.26936,3
1774391064105,0.0839475,0.948517,0.256858,11.9658,0.922222,-3.44106,0,0,3.25377,3
1774391064118,0.0824544,0.949188,0.255448,11.6689,0.914167,-3.36494,0,0,3.27892,3
1774391064132,0.0811226,0.950524,0.253843,11.544,0.912987,-3.23014,0,0,3.27362,3
1774391064145,0.0803509,0.950286,0.252095,11.4501,0.929857,-3.13374,0,0,3.30455,3
1774391064158,0.0795702,0.949225,0.250338,11.2078,0.955201,-3.02476,0,0,3.25457,3
1774391064172,0.0790159,0.948936,0.248839,10.8596,0.960283,-2.92446,0,0,3.26938,3
1774391064185,0.0786673,0.949194,0.247309,10.5313,0.93425,-2.8482,0,0,3.26829,3
1774391064199,0.0778962,0.949302,0.245964,10.2078,0.910106,-2.74667,0,0,3.26409,3
1774391064212,0.0770094,0.949512,0.244464,9.8356,0.862054,-2.61829,0,0,3.27588,5
1774391064225,0.076599,0.949883,0.242859,9.45388,0.822691,-2.44787,0,0,3.46535,5
1774391064239,0.0761853,0.950527,0.241816,9.12912,0.773119,-2.2883,0,0,3.27977,5
1774391064252,0.0759498,0.951473,0.241127,8.90265,0.727612,-2.17622,0,0,3.25679,5
1774391064266,0.0752442,0.952261,0.24032,8.77066,0.673096,-2.08626,0,0,3.27444,5
1774391064279,0.0745801,0.952288,0.238757,8.66192,0.624636,-1.9945,0,0,3.26697,5
1774391064292,0.0738383,0.952036,0.237092,8.51432,0.57975,-1.87406,0,0,3.30581,5
1774391064306,0.0728833,0.951935,0.235852,8.32362,0.544662,-1.77279,0,0,3.2709,5
1774391064319,0.0719274,0.952947,0.234805,8.15731,0.519248,-1.63867,0,0,3.24959,5
1774391064332,0.0713229,0.953863,0.233537,8.09625,0.484556,-1.4988,0,0,3.28355,5
1774391064346,0.0703178,0.953873,0.232026,8.08871,0.428688,-1.30639,0,0,3.25818,5
1774391064359,0.0696663,0.952634,0.230057,7.95613,0.342126,-1.07597,0,0,3.30877,5
1774391064373,0.0696518,0.951396,0.228591,7.57751,0.23216,-0.926982,0,0,3.25453,5
1774391064386,0.069307,0.95098,0.227232,7.08524,0.126221,-0.827029,0,0,3.26664,5
1774391064399,0.0697034,0.951725,0.226562,6.6587,0.0502032,-0.735251,0,0,3.26901,5
1774391064413,0.0697407,0.952395,0.22559,6.34043,-0.0164125,-0.816042,0,0,3.24946,5
1774391064426,0.0698084,0.952406,0.224352,6.06442,-0.0668743,-0.831071,0,0,3.36453,5
1774391064439,0.0693286,0.952362,0.222943,5.74738,-0.0943807,-0.905631,0,0,3.2547,5
1774391064453,0.0684107,0.952641,0.221799,5.42285,-0.134474,-0.884377,0,0,3.29671,5
1774391064466,0.0677572,0.952577,0.220929,5.06258,-0.20272,-0.860889,0,0,3.25883,5
1774391064480,0.0670361,0.952451,0.22,4.62874,-0.26671,-0.800611,0,0,3.28996,5
1774391064493,0.0664534,0.952983,0.219262,4.19869,-0.336531,-0.747139,0,0,3.26803,5
1774391064506,0.0659922,0.953875,0.218172,3.85441,-0.411855,-0.666693,0,0,3.25075,3
1774391064520,0.0653911,0.95443,0.217621,3.58597,-0.461973,-0.575773,0,0,3.27399,3
1774391064533,0.0646881,0.954928,0.217115,3.31589,-0.504998,-0.468973,0,0,3.26949,3
1774391064547,0.0644536,0.955479,0.216685,3.10463,-0.519918,-0.347609,0,0,3.31914,3
1774391064560,0.0642614,0.955846,0.216337,2.96345,-0.531432,-0.267309,0,0,3.25105,3
1774391064573,0.0643872,0.955908,0.215653,2.84904,-0.542729,-0.245464,0,0,3.27362,3
1774391064587,0.063931,0.955968,0.215073,2.74361,-0.546112,-0.183738,0,0,3.26836,3
1774391064600,0.0639111,0.956175,0.214721,2.62182,-0.550591,-0.125047,0,0,3.26455,3
1774391064614,0.0634544,0.956052,0.21415,2.4662,-0.558672,-0.0431,0,0,3.27096,3
1774391064627,0.0633806,0.956255,0.213956,2.30859,-0.564587,0.0265428,0,0,3.25479,3
1774391064640,0.0632887,0.956705,0.213792,2.19537,-0.563319,0.0875692,0,0,3.2811,3
1774391064654,0.0631688,0.957168,0.213838,2.10049,-0.567261,0.125476,0,0,3.25503,3
1774391064667,0.0632036,0.957258,0.213583,2.0349,-0.569697,0.18866,0,0,3.33286,3
1774391064681,0.0631622,0.957067,0.212635,1.92761,-0.570711,0.249585,0,0,3.26716,5
1774391064694,0.0630051,0.956563,0.211984,1.7771,-0.613203,0.333212,0,0,3.30285,3
1774391064707,0.0632499,0.956317,0.211714,1.56395,-0.662732,0.392023,0,0,3.26757,3
1774391064721,0.0630036,0.956359,0.211349,1.33834,-0.699634,0.430407,0,0,3.25229,3
1774391064734,0.0629282,0.956666,0.211053,1.14467,-0.737463,0.461073,0,0,3.2742,3
1774391064747,0.0626639,0.956788,0.210728,0.968274,-0.768889,0.488733,0,0,3.25259,3
1774391064761,0.0625499,0.956575,0.21047,0.775657,-0.790416,0.506707,0,0,3.30664,3
1774391064774,0.0621847,0.956264,0.209989,0.577145,-0.806882,0.539515,0,0,3.25181,3
1774391064788,0.0620491,0.956201,0.210052,0.372641,-0.810435,0.563632,0,0,3.26899,3
1774391064801,0.061994,0.956323,0.210037,0.180036,-0.821497,0.60438,0,0,3.27814,3
1774391064814,0.0619414,0.956226,0.209938,-0.029598,-0.834507,0.641986,0,0,3.25581,3
1774391064828,0.0618804,0.95608,0.209981,-0.232611,-0.864343,0.686475,0,0,3.28468,3
1774391064841,0.0615338,0.956527,0.210066,-0.425521,-0.88651,0.733178,0,0,3.27014,3
1774391064855,0.0615014,0.956784,0.210606,-0.583203,-0.908719,0.782399,0,0,3.3051,3
1774391064868,0.0613101,0.957286,0.210845,-0.683228,-0.929254,0.860974,0,0,3.26273,3
1774391064881,0.0614049,0.957403,0.211212,-0.766509,-0.964908,0.942848,0,0,3.26727,3
1774391064895,0.0616343,0.957312,0.211381,-0.83998,-0.985288,1.03726,0,0,3.27051,3
1774391064908,0.0616508,0.957684,0.211896,-0.898197,-0.990824,1.11053,0,0,3.28864,3
1774391064921,0.0618481,0.958104,0.212185,-0.927458,-0.993051,1.19382,0,0,3.31059,3
1774391064935,0.0618339,0.958238,0.2126,-0.92382,-0.992585,1.26602,0,0,3.30616,3
1774391064948,0.0618844,0.95826,0.212506,-0.89341,-0.983152,1.36157,0,0,3.2771,3
1774391064962,0.0622423,0.958719,0.212597,-0.850575,-0.984525,1.4539,0,0,3.24499,3
1774391064975,0.0625952,0.958944,0.212706,-0.774176,-0.965269,1.54919,0,0,3.28751,3
1774391064989,0.0627619,0.95885,0.213013,-0.666523,-0.937244,1.61901,0,0,3.27547,3
1774391065002,0.062964,0.958503,0.213595,-0.556344,-0.916786,1.67849,0,0,3.48129,3
1774391065016,0.0629223,0.958781,0.213682,-0.433934,-0.906467,1.75732,0,0,3.26821,3
1774391065029,0.063032,0.958886,0.214395,-0.267007,-0.876602,1.83944,0,0,3.27472,3
1774391065042,0.063361,0.959392,0.214681,-0.062772,-0.837279,1.91482,0,0,3.28316,3
1774391065056,0.0635476,0.959972,0.214859,0.183103,-0.795025,1.97098,0,0,3.27777,3
1774391065069,0.0640677,0.96074,0.214613,0.513668,-0.761563,2.09036,0,0,3.27699,3
1774391065083,0.0644155,0.961496,0.214698,0.971275,-0.704286,2.17692,0,0,3.27555,5
1774391065096,0.0644171,0.962262,0.214875,1.54623,-0.634808,2.25349,0,0,3.44225,5
1774391065110,0.0643013,0.963389,0.215205,2.20668,-0.547818,2.30222,0,0,3.28609,5
1774391065123,0.0642652,0.96515,0.214847,3.01721,-0.583887,2.37732,0,0,3.26038,5
1774391065137,0.0649247,0.966984,0.214003,4.08842,-0.611509,2.42938,0,0,3.54633,5
1774391065150,0.0653739,0.968791,0.213731,5.33462,-0.636298,2.46824,0,0,3.24959,5
1774391065164,0.0655899,0.971757,0.213021,6.88815,-0.654558,2.53703,0,0,3.32812,5
1774391065177,0.0656256,0.972704,0.212887,8.50184,-0.632829,2.51419,0,0,3.25673,5
1774391065191,0.0654355,0.975446,0.213571,10.0892,-0.509125,2.31664,0,0,3.27575,5
1774391065204,0.0672717,0.98252,0.212559,12.1066,-0.363672,2.05267,0,0,3.27944,5
1774391065218,0.0686005,0.993203,0.212104,15.1818,-0.167289,1.73842,0,0,3.46888,5
1774391065231,0.0706078,1.00052,0.212448,18.7739,-0.093677,1.67131,0,0,3.27885,5
1774391065244,0.0700931,1.00419,0.20873,23.283,-0.039181,2.49902,0,0,3.27673,5
1774391065258,0.0683837,1.01687,0.209756,28.527,-0.0549671,3.99923,0,0,3.27783,5
1774391065271,0.0695785,1.0167,0.204842,33.7363,0.304367,4.69208,0,0,3.25925,5
1774391065285,0.072835,1.01033,0.203166,38.1532,0.6778,4.52609,0,0,3.30081,5
1774391065298,0.0759598,1.00293,0.200644,41.0837,1.22854,3.73483,0,0,3.25703,5
1774391065312,0.0754993,0.999447,0.199162,42.6316,1.92565,1.70255,0,0,3.41831,5
1774391065325,0.0647023,0.99866,0.205891,43.6393,3.15957,0.0728557,0,0,3.27025,5
1774391065339,0.049637,0.997715,0.218411,44.688,5.587,-0.308891,0,0,3.57057,5
1774391065352,0.0348141,0.990704,0.231046,45.537,9.17996,0.0625453,0,0,3.27827,5
1774391065365,0.0221983,0.976131,0.246353,45.8019,13.8713,0.678623,0,0,3.26475,5
1774391065379,0.0122163,0.956728,0.261546,44.7666,19.4703,1.29911,0,0,3.30796,5
1774391065392,0.00633289,0.937128,0.274803,42.3702,25.674,2.23933,0,0,3.25896,5
1774391065406,0.00448643,0.9224,0.287374,38.8041,32.1883,3.66589,0,0,3.28086,5
1774391065419,0.00787766,0.916141,0.296769,34.7131,38.7752,5.29119,0,0,3.26455,5
1774391065433,0.0257159,0.922937,0.302614,30.6091,45.0282,6.60052,0,0,3.44868,5
1774391065446,0.0419412,0.938799,0.300676,28.151,49.884,6.55784,0,0,3.27974,5
1774391065459,0.0490756,0.946654,0.297253,26.9864,54.383,6.14033,0,0,3.25768,5
1774391065473,0.0583537,0.945528,0.293211,25.4903,58.5856,6.05967,0,0,3.28584,5
1774391065486,0.0669698,0.944333,0.286912,23.7496,62.5058,5.98738,0,0,3.25838,5
1774391065500,0.0727213,0.945251,0.281668,22.0119,66.3234,5.90802,0,0,3.29671,5
1774391065513,0.0754347,0.948244,0.277101,20.236,70.3854,5.9089,0,0,3.25958,5
1774391065527,0.07315,0.955269,0.270108,18.2227,74.7651,6.30537,0,0,3.36275,5
1774391065540,0.0707517,0.966856,0.2601,17.6373,79.7097,7.35143,0,0,3.63095,5
1774391065554,0.0771493,0.972501,0.253262,17.2513,85.0347,7.57107,0,0,3.24503,5
1774391065567,0.0804912,0.97758,0.248465,17.4663,90.5221,7.91156,0,0,3.29008,5
1774391065581,0.0866657,0.981261,0.248713,17.8974,95.9444,8.45347,0,0,3.2599,5
1774391065594,0.0964459,0.981365,0.249773,18.2076,101.119,8.87206,0,0,3.28821,5
1774391065608,0.105243,0.976052,0.252239,18.2538,106.014,9.02953,0,0,3.26032,5
1774391065621,0.113763,0.971996,0.255002,17.8567,110.566,9.11008,0,0,3.28734,5
1774391065635,0.122144,0.970348,0.257677,17.3612,114.836,9.3103,0,0,3.26858,5
1774391065648,0.132049,0.969915,0.260235,16.8207,118.882,9.28176,0,0,3.46275,5
1774391065662,0.143421,0.969,0.26251,16.2463,122.687,9.07798,0,0,3.27895,5
1774391065675,0.156816,0.968209,0.26429,15.5958,126.242,8.75718,0,0,3.26034,5
1774391065688,0.171269,0.968276,0.266057,14.9873,129.55,8.24027,0,0,3.28818,5
1774391065702,0.18398,0.968424,0.266903,14.4888,132.705,7.62733,0,0,3.25962,5
1774391065715,0.195622,0.966955,0.267434,13.9539,135.885,7.06505,0,0,3.32844,5
1774391065729,0.20589,0.964556,0.267462,13.2624,139.137,6.63621,0,0,3.26532,5
1774391065743,0.214065,0.962423,0.267136,12.4286,142.648,6.43824,0,0,3.72351,5
1774391065756,0.222257,0.959646,0.266515,11.4146,146.451,6.48602,0,0,3.29758,3
1774391065769,0.231061,0.957695,0.265803,10.2549,150.541,6.82486,0,0,3.3456,3
1774391065783,0.23995,0.956887,0.264888,9.11663,154.837,7.52492,0,0,3.2806,3
1774391065796,0.249892,0.95448,0.263041,7.99038,159.255,8.44948,0,0,3.25436,3
1774391065810,0.26082,0.9511,0.260794,6.76074,163.706,9.50329,0,0,3.30684,3
1774391065823,0.271771,0.948028,0.258422,5.42152,168.105,10.6577,0,0,3.25699,3
1774391065836,0.283076,0.94508,0.256046,4.02426,172.384,12.0069,0,0,3.28484,3
1774391065850,0.296513,0.943158,0.252675,2.57562,176.442,13.5265,0,0,3.27503,3
1774391065863,0.309042,0.941896,0.24786,1.20097,180.156,15.2025,0,0,3.45482,3
1774391065877,0.318034,0.938629,0.242028,-0.133396,183.788,17.35,0,0,3.27353,3
1774391065890,0.328735,0.932803,0.236899,-1.80997,187.497,19.7342,0,0,3.25332,3
1774391065904,0.347265,0.930617,0.237088,-5.00933,190.961,22.7657,0,0,3.28397,3
1774391065917,0.364931,0.93363,0.234524,-7.35227,194.069,26.6338,0,0,3.2552,3
1774391065930,0.383511,0.940942,0.223499,-9.20026,197.158,30.3667,0,0,3.26816,3
1774391065944,0.400756,0.945361,0.202653,-10.2839,200.055,32.7881,0,0,3.28529,3
1774391065957,0.414097,0.950815,0.185559,-10.5484,202.863,34.8579,0,0,3.37484,3
1774391065971,0.423726,0.952913,0.164076,-10.528,205.515,37.8713,0,0,3.27371,3
1774391065984,0.430681,0.950552,0.144323,-10.9021,208.017,41.0543,0,0,3.29118,3
1774391065998,0.440941,0.948764,0.121569,-12.0008,210.379,43.8097,0,0,3.32016,3
1774391066011,0.453763,0.956556,0.0942904,-13.3084,212.609,46.3415,0,0,3.28909,3
1774391066024,0.470231,0.970041,0.0636775,-13.3087,213.666,48.5147,0,0,3.32124,3
1774391066038,0.483085,0.992331,0.0384819,-11.2857,212.828,50.4919,0,0,3.28927,3
1774391066051,0.479853,1.0077,0.0172496,-7.61042,211.753,50.0939,0,0,3.34464,3
1774391066065,0.476442,1.01243,0.0182783,-3.16243,209.68,48.98,0,0,3.31118,3
1774391066078,0.468546,1.00185,0.0223903,0.306425,206.431,47.5964,0,0,3.44202,3
1774391066092,0.45885,0.984199,0.0370741,1.55324,202.108,46.2763,0,0,3.30003,3
1774391066105,0.444004,0.971266,0.05276,1.21177,197.139,44.8422,0,0,3.28126,5
1774391066119,0.45351,0.967259,0.0659555,-0.363412,189.907,42.5619,0,0,3.31526,3
1774391066132,0.467843,0.983094,0.07788,-0.936494,179.228,39.9587,0,0,3.27992,3
1774391066146,0.450544,1.00564,0.0744634,1.80119,167.733,37.8313,0,0,3.30979,5
1774391066159,0.431396,1.01,0.0778693,6.44275,158.642,34.6563,0,0,3.30837,5
1774391066173,0.426431,0.997894,0.0755956,10.0447,150.26,30.732,0,0,3.51909,5
1774391066186,0.420199,0.981117,0.0753219,11.6547,140.993,28.0353,0,0,3.30394,5
1774391066200,0.404172,0.967145,0.0796832,11.1089,132.543,25.7078,0,0,3.29787,5
1774391066213,0.39034,0.961471,0.0810885,8.94727,125.102,24.1549,0,0,3.35429,5
1774391066227,0.380466,0.961287,0.0841833,6.47574,117.86,23.6431,0,0,3.30333,5
1774391066240,0.372187,0.964261,0.0862032,4.32525,110.875,22.6685,0,0,3.30931,3
1774391066253,0.361847,0.969711,0.0898965,2.91797,104.271,21.483,0,0,3.31364,3
1774391066267,0.350453,0.973673,0.0943571,2.29656,98.2931,20.3713,0,0,3.50563,3
1774391066281,0.341234,0.976639,0.0953448,2.196,92.7484,19.1451,0,0,3.30718,3
1774391066294,0.333817,0.978461,0.0974532,2.47275,87.3194,18.0062,0,0,3.26314,3
1774391066307,0.32492,0.978261,0.100772,2.859,82.1919,16.9221,0,0,3.26724,3
1774391066321,0.316294,0.976937,0.102888,3.11654,77.4454,15.8731,0,0,3.28401,3
1774391066334,0.308537,0.97533,0.104998,3.1905,72.9677,15.0054,0,0,3.27316,3
1774391066348,0.300596,0.973569,0.107261,3.05308,68.7763,14.2344,0,0,3.28046,3
1774391066361,0.292863,0.973412,0.109755,2.85356,64.9373,13.4886,0,0,3.28333,3
1774391066374,0.285255,0.975525,0.112931,2.88575,61.4734,12.7389,0,0,3.27968,3
1774391066388,0.27814,0.978709,0.115637,3.36531,58.3232,11.9198,0,0,3.45488,3
1774391066401,0.272478,0.982395,0.116474,4.45553,55.4311,10.9434,0,0,3.27798,3
1774391066415,0.26794,0.985279,0.117583,6.04596,52.5997,9.75703,0,0,3.26642,3
1774391066428,0.262212,0.986221,0.117822,7.86617,49.9045,8.45227,0,0,3.28531,3
1774391066442,0.256478,0.984646,0.118168,9.53504,47.3493,7.20229,0,0,3.26459,3
1774391066459,0.250387,0.980855,0.1171,10.6307,44.961,6.25236,0,0,7.38175,3
1774391066473,0.244049,0.97756,0.116666,10.9109,42.785,5.5651,0,0,3.23753,3
1774391066487,0.237786,0.977399,0.115888,10.8795,40.8325,5.03242,0,0,4.85496,3
1774391066501,0.232597,0.980811,0.114984,11.1051,38.963,4.52235,0,0,3.23718,5
1774391066515,0.227913,0.986124,0.112305,12.0785,37.0794,3.87175,0,0,3.25605,5
1774391066528,0.222558,0.993094,0.111034,13.9731,35.2705,2.94678,0,0,3.32055,5
1774391066541,0.216284,0.99977,0.109424,16.6683,33.5983,1.86988,0,0,3.26812,5
1774391066555,0.208299,1.00162,0.107714,19.557,32.1941,0.985265,0,0,3.34977,5
1774391066572,0.198272,0.996677,0.103633,21.4244,31.5199,0.838368,0,0,3.27811,5
1774391066585,0.188554,0.989092,0.0987591,22.1559,31.4565,1.50513,0,0,3.26939,5
1774391066598,0.183575,0.980782,0.0941198,21.8217,31.657,2.21884,0,0,3.24146,5
1774391066612,0.179722,0.974138,0.0894271,20.6474,31.8702,2.87582,0,0,3.24583,5
1774391066625,0.172759,0.970742,0.0852707,18.9334,32.4226,3.5499,0,0,3.25274,5
1774391066638,0.161851,0.970121,0.0805593,17.024,33.6419,4.27266,0,0,3.25418,5
1774391066652,0.148196,0.971161,0.0782641,15.1776,35.88,5.15142,0,0,3.25524,5
1774391066665,0.1388,0.972038,0.0763255,13.4262,39.1838,6.08537,0,0,3.27305,5
1774391066678,0.137247,0.971787,0.0802586,11.6022,42.5561,7.05813,0,0,3.25985,5
1774391066692,0.150911,0.971259,0.087244,9.82057,44.7301,7.87185,0,0,3.24537,5
1774391066705,0.178851,0.97463,0.0962516,8.39749,44.1642,8.3205,0,0,3.26916,5
1774391066718,0.201235,0.983918,0.0943805,8.13242,41.2227,7.79383,0,0,3.25079,5
1774391066732,0.18905,0.99027,0.0979403,9.01048,39.2748,6.96915,0,0,3.2909,5
1774391066745,0.191341,0.978887,0.0964545,9.1452,37.5317,6.24082,0,0,3.25109,5
1774391066759,0.191462,0.968898,0.0982474,7.81267,35.721,5.67367,0,0,3.46712,5
1774391066772,0.187957,0.967119,0.0931287,5.87279,34.1207,5.0908,0,0,3.25513,5
1774391066785,0.18325,0.974526,0.0887143,4.44336,32.7399,4.46655,0,0,3.23839,5
1774391066799,0.181162,0.982793,0.0857528,4.28318,31.2935,3.88374,0,0,3.2582,5
1774391066812,0.181567,0.982862,0.0855366,4.5422,29.6512,3.02318,0,0,3.24894,5
1774391066825,0.181741,0.976629,0.0834188,4.26215,27.6763,2.06917,0,0,3.2919,5
1774391066839,0.174775,0.969548,0.0806355,2.84856,25.7535,1.26372,0,0,3.27431,5
1774391066852,0.165573,0.970164,0.0793833,0.572253,24.2939,1.37867,0,0,3.27872,5
1774391066866,0.1624,0.975227,0.0799155,-1.21841,23.0914,2.0284,0,0,3.27281,5
1774391066879,0.161405,0.984959,0.0803924,-1.75338,21.868,1.99597,0,0,3.25883,5
1774391066892,0.16056,0.991649,0.0822684,-0.854747,20.6714,1.75085,0,0,3.27011,5
1774391066906,0.15987,0.990039,0.0831656,0.246964,19.5466,1.3118,0,0,3.24511,5
1774391066919,0.158036,0.984912,0.083415,0.633466,18.4865,0.909803,0,0,3.29013,5
1774391066932,0.156922,0.980425,0.0838349,0.335027,17.4958,0.603999,0,0,3.23805,5
1774391066946,0.15401,0.980353,0.0839589,-0.292218,16.5881,0.252405,0,0,3.28114,5
1774391066959,0.149324,0.985184,0.0840881,-0.545156,15.8452,0.0678287,0,0,3.26024,5
1774391066972,0.14572,0.989472,0.0839875,-0.0114584,15.2728,-0.0186159,0,0,3.276,5
1774391066986,0.145369,0.989965,0.0834535,0.840847,14.6533,-0.212825,0,0,3.27724,5
1774391066999,0.143698,0.988204,0.0834233,1.46508,13.9796,-0.470644,0,0,3.25738,5
1774391067013,0.140126,0.987065,0.0836614,1.69633,13.3778,-0.656197,0,0,3.29777,5
1774391067026,0.137543,0.987279,0.0833446,1.8127,12.925,-0.672056,0,0,3.25046,5
1774391067039,0.135467,0.988636,0.0831056,2.00348,12.5117,-0.656196,0,0,3.27172,5
1774391067053,0.134486,0.988887,0.0819269,2.3484,12.084,-0.631378,0,0,3.37961,5
1774391067066,0.13278,0.987697,0.0813549,2.51897,11.6027,-0.593822,0,0,3.27481,5
1774391067080,0.130614,0.986793,0.0811282,2.45775,11.1565,-0.486436,0,0,3.28946,5
1774391067093,0.128916,0.986965,0.080431,2.29591,10.7226,-0.305432,0,0,3.2497,5
1774391067106,0.127752,0.987439,0.0800739,2.17269,10.3108,-0.129871,0,0,3.28118,5
1774391067120,0.127044,0.987679,0.0794869,2.0992,9.86517,0.0324175,0,0,3.25264,5
1774391067133,0.127254,0.986798,0.0787226,1.98017,9.38203,0.172329,0,0,3.32333,5
1774391067147,0.126589,0.985357,0.0784936,1.69097,8.88275,0.293687,0,0,3.25805,5
1774391067160,0.125634,0.984748,0.0781679,1.24715,8.39391,0.430505,0,0,3.27961,5
1774391067173,0.125905,0.984636,0.0778777,0.792255,7.92094,0.540807,0,0,3.28333,5
1774391067187,0.125001,0.985746,0.0780807,0.47035,7.47064,0.605101,0,0,3.24268,5
1774391067200,0.124445,0.987042,0.0781788,0.38188,7.02205,0.680347,0,0,3.27757,5
1774391067213,0.124235,0.98685,0.0780376,0.381441,6.58021,0.705128,0,0,3.25276,5
1774391067227,0.123243,0.986358,0.0775823,0.285969,6.15116,0.737511,0,0,3.30031,5
1774391067240,0.123235,0.985812,0.0777876,0.0532658,5.74618,0.816034,0,0,3.24913,5
1774391067254,0.122511,0.986272,0.078208,-0.178802,5.35707,0.802803,0,0,3.26105,5
1774391067267,0.121552,0.987321,0.0780656,-0.284811,4.99321,0.825854,0,0,3.2972,5
1774391067280,0.120913,0.987929,0.0777906,-0.251279,4.6489,0.823633,0,0,3.23503,5
1774391067294,0.120035,0.988275,0.0779227,-0.169959,4.33032,0.801412,0,0,3.26666,5
1774391067307,0.119056,0.988147,0.0780169,-0.120605,4.04846,0.794995,0,0,3.25488,5
1774391067320,0.118782,0.987812,0.0783954,-0.140387,3.79525,0.764104,0,0,3.29466,5
1774391067334,0.11836,0.987896,0.0784476,-0.118382,3.56481,0.710967,0,0,3.24813,5
1774391067347,0.117882,0.9885,0.0785189,0.000871049,3.35972,0.629981,0,0,3.28318,5
1774391067361,0.117414,0.989131,0.0786191,0.240607,3.18668,0.558248,0,0,3.26827,5
1774391067374,0.116667,0.98887,0.0786189,0.509285,3.01735,0.495677,0,0,3.27224,5
1774391067387,0.115964,0.988193,0.0783624,0.675543,2.84938,0.449033,0,0,3.26798,5
1774391067401,0.115323,0.987706,0.0783306,0.735277,2.67756,0.406719,0,0,3.24652,5
1774391067414,0.114753,0.987485,0.078343,0.714158,2.52052,0.362495,0,0,3.30033,5
1774391067427,0.114134,0.987306,0.0784829,0.704928,2.37229,0.345159,0,0,3.2527,5
1774391067441,0.113296,0.987648,0.0783285,0.726618,2.21524,0.349349,0,0,3.27657,5
1774391067454,0.112185,0.988113,0.0784264,0.771926,2.07172,0.393125,0,0,3.26894,5
1774391067468,0.111613,0.988505,0.0781783,0.860508,1.91654,0.456711,0,0,3.30075,5
1774391067481,0.110693,0.988709,0.0782721,0.906013,1.81289,0.50731,0,0,3.27274,5
1774391067494,0.110187,0.988615,0.0784471,0.933122,1.68166,0.576908,0,0,3.24124,5
1774391067508,0.109693,0.988878,0.0779312,0.938158,1.56678,0.619052,0,0,3.29266,5
1774391067521,0.109241,0.989365,0.0775447,1.07265,1.45577,0.679386,0,0,3.25294,5
1774391067535,0.109226,0.989873,0.0773672,1.32292,1.34286,0.710644,0,0,3.25818,5
1774391067548,0.10904,0.99007,0.0764501,1.69317,1.25469,0.703324,0,0,3.27292,5
1774391067561,0.108756,0.99139,0.0766835,2.15441,1.15648,0.670724,0,0,3.26418,5
1774391067575,0.108345,0.993593,0.0771736,2.81629,1.11045,0.618115,0,0,3.27894,5
1774391067588,0.108016,0.996745,0.0775462,3.84354,1.04559,0.472971,0,0,3.24468,5
1774391067601,0.106325,1.00191,0.0765572,5.35782,0.990366,0.223784,0,0,3.27509,5
1774391067615,0.104462,1.00823,0.0770315,7.42815,0.987481,-0.0499621,0,0,3.25181,5
1774391067628,0.10268,1.01514,0.0785207,10.0298,1.02372,-0.307925,0,0,3.29692,5
1774391067642,0.100335,1.02346,0.0807028,13.025,1.13286,-0.357878,0,0,3.26385,5
1774391067655,0.101734,1.03162,0.0852132,15.8184,1.52491,-0.378053,0,0,3.29022,5
1774391067668,0.105015,1.04823,0.0971816,17.9224,1.58282,0.409606,0,0,3.27979,5
1774391067682,0.106957,1.07538,0.107046,21.0345,1.28936,2.02016,0,0,3.26735,5
1774391067695,0.118177,1.10646,0.114633,26.2205,0.948563,2.06356,0,0,3.27553,5
1774391067708,0.123686,1.13656,0.123724,33.2565,0.0920779,1.82835,0,0,3.24479,5
1774391067722,0.116697,1.1604,0.14903,42.0867,-0.0612395,0.975609,0,0,3.30194,5
1774391067735,0.102806,1.15442,0.194627,52.5215,1.22675,-1.85376,0,0,3.25663,5
1774391067749,0.0998158,1.11881,0.246771,61.0559,3.2993,-5.14273,0,0,3.28077,5
1774391067762,0.0971162,1.06581,0.304717,64.8577,4.87836,-9.36692,0,0,3.2755,5
1774391067775,0.0948336,1.00463,0.36267,61.2663,6.68143,-14.9547,0,0,3.27553,5
1774391067789,0.0943805,0.944961,0.402724,51.5662,9.2423,-20.8953,0,0,3.28164,5
1774391067802,0.0944383,0.892798,0.446547,38.6705,12.0731,-25.9812,0,0,3.24909,5
1774391067816,0.0949954,0.848415,0.480637,25.342,14.9306,-29.3427,0,0,3.29535,5
1774391067829,0.0965959,0.810159,0.496795,13.2646,16.9988,-30.662,0,0,3.25177,5
1774391067842,0.0989591,0.779928,0.511221,1.86515,18.8872,-28.3328,0,0,3.2687,5
1774391067856,0.136698,0.793428,0.536707,-12.2703,21.0584,-12.7131,0,0,3.27587,5
1774391067869,0.133742,0.837557,0.533746,-25.2266,22.1954,2.03037,0,0,3.25661,5
1774391067883,0.170899,0.915972,0.544623,-26.8581,24.1087,15.9469,0,0,3.2859,5
1774391067896,0.196801,0.912119,0.531909,-39.3824,23.4303,16.7279,0,0,3.25153,2
1774391067909,0.200527,0.981626,0.508989,-41.7378,24.4364,11.7124,0,0,3.29951,2
1774391067923,0.215663,1.01351,0.502051,-33.6846,24.4912,9.34521,0,0,3.26583,2
1774391067936,0.215819,0.991597,0.487142,-32.488,22.7012,2.84739,0,0,3.27865,5
1774391067950,0.221211,0.96745,0.476451,-33.2973,21.1247,-1.44861,0,0,3.27264,5
1774391067963,0.22232,0.94721,0.469804,-35.7757,20.2395,-4.50339,0,0,3.26635,5
1774391067976,0.213569,0.936888,0.454661,-42.7381,19.5594,-6.60452,0,0,3.30309,5
1774391067990,0.196019,0.952247,0.439272,-51.0344,19.7335,-7.1795,0,0,3.25722,5
1774391068003,0.183368,0.98186,0.42524,-57.2373,20.7774,-5.22246,0,0,3.28087,5
1774391068016,0.184616,0.99915,0.407775,-59.9639,21.7353,-3.28229,0,0,3.25796,5
1774391068030,0.186622,1.0042,0.389259,-61.9493,22.4181,-3.15556,0,0,3.27716,5
1774391068043,0.18429,1.0053,0.370143,-63.7771,23.2836,-2.7833,0,0,3.27213,5
1774391068057,0.184879,1.00068,0.349695,-66.4221,24.3,-2.21912,0,0,3.30111,5
1774391068070,0.188335,1.0013,0.327099,-69.4248,25.1837,-1.51573,0,0,3.27198,5
1774391068083,0.190135,1.00601,0.302096,-71.6755,25.9698,-1.18022,0,0,3.27831,5
1774391068097,0.189027,1.01184,0.277364,-73.4399,26.8249,-1.28872,0,0,3.28668,5
1774391068110,0.186675,1.01919,0.251888,-75.0928,27.8936,-0.910709,0,0,3.2632,5
1774391068124,0.189893,1.03326,0.220522,-76.0151,29.1148,-1.21416,0,0,3.28977,5
1774391068137,0.191187,1.05097,0.186076,-75.1168,30.1775,-2.04825,0,0,3.25788,5
1774391068150,0.191282,1.06535,0.151695,-72.962,30.9396,-2.78416,0,0,3.27101,5
1774391068164,0.190754,1.08105,0.116212,-69.6136,31.5279,-3.56315,0,0,3.27803,5
1774391068177,0.188604,1.09731,0.0815118,-64.9646,32.123,-4.8508,0,0,3.24851,5
1774391068190,0.183762,1.11252,0.0492903,-59.1582,32.978,-6.0247,0,0,3.27938,5
1774391068204,0.178469,1.12578,0.0180936,-52.3742,34.0643,-6.61292,0,0,3.25524,5
1774391068217,0.161728,1.13914,0.082773,-54.7459,33.3285,-4.22609,0,0,3.29742,5
1774391068231,0.137401,1.13835,0.0891147,-49.135,30.8463,-1.17971,0,0,3.25618,5
1774391068244,0.174324,1.10902,0.160265,-42.1018,26.7263,2.66179,0,0,3.28838,5
1774391068257,0.191386,1.07998,0.20315,-37.4956,20.1977,4.92959,0,0,3.28976,5
1774391068271,0.196597,1.07247,0.190945,-34.4628,12.9999,6.78202,0,0,3.34526,5
1774391068284,0.175123,1.07517,0.205678,-31.7791,9.25758,7.73712,0,0,3.30137,5
1774391068298,0.14043,1.1052,0.213809,-28.7163,8.71689,8.03832,0,0,3.25361,5
1774391068311,0.107074,1.15262,0.213341,-22.7967,11.9737,9.32672,0,0,3.28716,5
1774391068325,0.111189,1.17316,0.213204,-12.0957,15.8957,8.84638,0,0,3.25442,5
1774391068338,0.122523,1.17321,0.212817,0.536447,17.8797,5.59821,0,0,3.28405,5
1774391068352,0.128557,1.15385,0.227106,10.9575,19.3188,4.51731,0,0,3.28502,5
1774391068365,0.133751,1.11733,0.234225,17.9137,20.1701,4.499,0,0,3.49988,5
1774391068379,0.14018,1.07633,0.236495,21.1928,20.3143,4.29075,0,0,3.27755,5
1774391068392,0.142623,1.04391,0.237203,20.7842,19.8436,4.99507,0,0,3.27161,5
1774391068406,0.13283,1.03077,0.242663,18.6443,19.938,5.76908,0,0,3.2872,5
1774391068419,0.12369,1.0425,0.244949,17.5073,20.7491,6.71163,0,0,3.26818,5
1774391068433,0.130826,1.06452,0.248533,19.7889,20.8599,7.61586,0,0,3.29868,5
1774391068446,0.140063,1.07581,0.250295,24.4744,19.6834,7.17069,0,0,3.26503,5
1774391068459,0.141305,1.07101,0.255706,29.5684,18.0664,6.99112,0,0,3.27977,5
1774391068473,0.141553,1.05318,0.25978,33.2036,16.4959,6.83747,0,0,3.28425,5
1774391068487,0.140733,1.03725,0.262043,35.3759,15.2871,7.10864,0,0,4.19924,5
1774391068501,0.140376,1.02786,0.257545,36.6017,14.9546,7.2978,0,0,3.28463,5
1774391068514,0.140995,1.02617,0.255677,37.4962,15.0471,6.03422,0,0,3.28661,5
1774391068527,0.143253,1.03358,0.253496,39.8864,15.1665,4.02838,0,0,3.30863,5
1774391068541,0.152726,1.03483,0.253995,43.1662,13.8691,1.48294,0,0,3.26237,5
1774391068554,0.151289,1.03141,0.2494,46.7575,12.5774,-1.9735,0,0,3.28781,5
1774391068568,0.143669,1.02452,0.241856,49.5453,11.6192,-4.87124,0,0,3.27289,5
1774391068581,0.134247,1.01062,0.233607,50.3022,11.1345,-6.25165,0,0,3.44366,5
1774391068595,0.120828,1.00248,0.219878,49.3368,11.0327,-6.13177,0,0,3.28607,5
1774391068608,0.114294,1.00407,0.21464,48.1777,11.2476,-5.34037,0,0,3.25748,5
1774391068621,0.114165,1.0088,0.20694,47.6933,11.2234,-4.42808,0,0,3.28461,5
1774391068635,0.116379,1.00946,0.201349,47.2784,10.8221,-3.93221,0,0,3.26774,5
1774391068648,0.115048,1.00804,0.196078,46.6265,10.4326,-3.56906,0,0,3.30203,5
1774391068662,0.113753,1.00852,0.191635,45.8091,10.1128,-3.19245,0,0,3.25803,5
1774391068675,0.1129,1.01554,0.187044,45.3141,9.71558,-3.07075,0,0,3.36761,5
1774391068689,0.109724,1.02372,0.182922,45.4267,9.4241,-2.9957,0,0,3.42937,5
1774391068702,0.107659,1.02556,0.177943,45.8583,9.31125,-2.73347,0,0,3.2577,5
1774391068716,0.105898,1.02661,0.174496,45.7922,9.13622,-2.44012,0,0,3.2927,5
1774391068729,0.104907,1.0299,0.168872,45.6557,8.80829,-1.73034,0,0,3.2575,5
1774391068743,0.102593,1.0334,0.163324,45.6382,8.17848,-0.378693,0,0,3.30535,5
1774391068756,0.0998044,1.03611,0.156822,45.6135,7.63709,0.733139,0,0,3.25968,5
1774391068770,0.0985681,1.03699,0.151949,45.4489,7.21213,1.816,0,0,3.35751,5
1774391068783,0.0997026,1.0401,0.146938,45.3557,6.83884,2.78932,0,0,3.27611,5
1774391068797,0.102176,1.04232,0.140896,45.5305,6.52375,3.3338,0,0,3.45155,5
1774391068810,0.105416,1.04106,0.133261,45.5907,5.95614,3.66833,0,0,3.30116,5
1774391068823,0.106037,1.04237,0.127081,45.4835,5.35657,3.93657,0,0,3.25707,5
1774391068837,0.105447,1.04524,0.121182,45.6486,4.9542,4.06729,0,0,3.27987,5
1774391068850,0.105992,1.04877,0.115306,46.2258,4.36758,4.37567,0,0,3.26842,5
1774391068864,0.10724,1.05177,0.10927,47.1834,3.68542,4.72198,0,0,3.30444,5
1774391068877,0.106436,1.05256,0.101897,48.3271,2.82057,5.09297,0,0,3.26092,5
1774391068891,0.102711,1.05114,0.093992,49.3394,1.90618,5.66795,0,0,3.56388,5
1774391068904,0.0994573,1.05124,0.0873938,50.0958,1.01139,6.48343,0,0,3.27388,5
1774391068918,0.0986738,1.05529,0.0811161,50.9233,0.0957209,7.42829,0,0,3.24892,5
1774391068931,0.0984372,1.0616,0.0758284,52.1154,-0.81355,8.38182,0,0,3.2847,5
1774391068945,0.099097,1.0685,0.0708039,53.8285,-1.76902,9.1701,0,0,3.2612,5
1774391068958,0.0982119,1.07564,0.066501,56.0514,-2.72527,10.1257,0,0,3.30083,5
1774391068972,0.0993407,1.08232,0.0620446,58.7679,-3.78502,11.1981,0,0,3.26938,5
1774391068985,0.0999824,1.0885,0.0583489,61.7521,-5.02555,12.3161,0,0,3.28814,5
1774391068999,0.100916,1.09564,0.0564912,64.828,-6.47139,13.6951,0,0,3.28114,5
1774391069012,0.102087,1.10545,0.0584836,67.7921,-7.99284,15.2327,0,0,3.46779,5
1774391069026,0.109762,1.121,0.0642646,70.6893,-9.7715,16.947,0,0,3.28359,5
1774391069039,0.118062,1.14511,0.0760281,73.9002,-11.7171,18.5895,0,0,3.26301,5
1774391069052,0.135908,1.17841,0.0914946,78.0125,-13.7772,19.8491,0,0,3.29207,5
1774391069066,0.160319,1.21892,0.100647,84.0784,-16.2993,20.0567,0,0,3.26839,5
1774391069079,0.181996,1.27061,0.1061,92.4112,-19.4977,19.2721,0,0,3.32405,5
1774391069093,0.193459,1.31896,0.106628,101.258,-23.0028,18.8042,0,0,3.26005,5
1774391069106,0.204398,1.3446,0.111393,109.609,-26.8739,18.2791,0,0,3.41155,5
1774391069119,0.205453,1.34568,0.122291,117.491,-30.6742,17.2773,0,0,3.28418,4
1774391069133,0.21795,1.34974,0.123125,124.931,-33.8748,17.6831,0,0,3.26257,4
1774391069146,0.242136,1.34525,0.121925,131.953,-37.9796,17.6936,0,0,3.28274,4
1774391069160,0.2641,1.33295,0.129299,138.582,-43.1104,17.8624,0,0,3.27601,4
1774391069173,0.260398,1.22391,0.168402,144.839,-49.3844,17.8448,0,0,3.297,4
1774391069187,0.268784,1.1168,0.161678,150.745,-57.0334,18.232,0,0,3.2642,4
1774391069200,0.26524,1.01294,0.174146,149.346,-62.0747,17.2689,0,0,3.33411,4
1774391069213,0.249466,0.917521,0.189987,132.089,-63.8552,10.6884,0,0,3.27081,4
1774391069227,0.205788,0.84781,0.211019,111.944,-66.08,4.75025,0,0,3.34777,4
1774391069240,0.158758,0.797622,0.228696,91.6344,-67.6842,-3.32075,0,0,3.27894,4
1774391069254,0.108766,0.756953,0.220659,72.4636,-63.0668,-6.97146,0,0,3.27168,4
1774391069267,0.0590593,0.764742,0.25456,54.3682,-55.3857,-8.92302,0,0,3.28216,3
1774391069281,0.0623274,0.824486,0.269202,37.2877,-47.4619,-3.70989,0,0,3.26101,2
1774391069294,0.0591212,0.851348,0.268874,23.3495,-40.603,-0.359335,0,0,3.33737,2
1774391069308,0.0754658,0.864831,0.273505,14.9178,-35.2541,-0.000911911,0,0,3.27314,2
1774391069321,0.0795966,0.853104,0.276032,5.32587,-31.6156,2.67145,0,0,3.56916,2
1774391069335,0.0784005,0.838303,0.280211,-6.31039,-28.8955,7.35668,0,0,3.27653,2
1774391069348,0.07857,0.828152,0.274277,-19.1994,-26.3738,11.9213,0,0,3.25188,2
1774391069362,0.0780807,0.832657,0.26887,-32.1532,-24.5412,14.4957,0,0,3.27535,2
1774391069375,0.0724346,0.845549,0.264906,-44.3805,-22.748,15.379,0,0,3.26655,2
1774391069388,0.0628073,0.869514,0.263421,-55.9219,-20.5561,15.9264,0,0,3.30507,2
1774391069402,0.0628045,0.892368,0.260848,-66.8159,-18.5219,16.527,0,0,3.5332,2
1774391069416,0.0689304,0.910741,0.258772,-77.0989,-16.9661,16.7055,0,0,3.30746,2
1774391069429,0.0777886,0.935347,0.256627,-86.805,-16.1082,16.9507,0,0,3.27888,2
1774391069443,0.0857256,0.968817,0.254746,-95.9667,-15.939,17.3898,0,0,3.35876,5
1774391069456,0.0876567,1.00917,0.25124,-104.615,-16.0336,17.9952,0,0,3.28292,5
1774391069469,0.0819228,1.05176,0.24495,-112.777,-15.8515,18.8831,0,0,3.25114,5
1774391069483,0.0731618,1.09593,0.236096,-120.482,-14.97,20.1695,0,0,3.29098,5
1774391069496,0.0651149,1.14463,0.22134,-127.755,-13.2585,21.6261,0,0,3.26003,5
1774391069509,0.0634524,1.18892,0.199382,-134.62,-10.8295,23.1774,0,0,3.29853,5
1774391069523,0.0740129,1.22502,0.1728,-141.099,-8.20271,24.5146,0,0,3.27816,5
1774391069536,0.0943187,1.25774,0.142095,-147.215,-6.0397,25.7891,0,0,3.45183,5
1774391069550,0.122257,1.29634,0.106744,-151.673,-5.06292,27.449,0,0,3.28333,5
1774391069563,0.144296,1.34448,0.0618023,-152.941,-6.01254,30.1372,0,0,3.2535,5
1774391069577,0.145267,1.38831,0.00661198,-150.168,-7.87487,33.6891,0,0,3.31101,5
1774391069590,0.129508,1.41673,-0.0551547,-144.338,-8.27411,35.5875,0,0,3.26135,5
1774391069604,0.110125,1.43501,-0.117583,-136.691,-7.04311,36.142,0,0,3.39879,5
1774391069617,0.0950588,1.44987,-0.178318,-127.74,-4.29602,35.4057,0,0,3.26059,5
1774391069630,0.0877947,1.45695,-0.234335,-118.015,-0.732749,34.3742,0,0,3.29053,5
1774391069644,0.0804211,1.466,-0.281123,-107.599,3.33074,34.0106,0,0,3.27825,5
1774391069657,0.059031,1.48587,-0.180211,-108.769,9.22972,30.373,0,0,3.25361,5
1774391069671,0.0503849,1.45419,-0.167183,-103.061,14.9365,24.5472,0,0,3.28164,5
1774391069684,0.0506265,1.41993,-0.113737,-92.6733,21.422,18.8957,0,0,3.26457,5
1774391069697,0.0626127,1.38958,-0.019248,-79.7994,26.9476,15.5805,0,0,3.29601,5
1774391069711,0.0640385,1.3486,0.0129518,-70.8136,30.1855,17.1494,0,0,3.2835,5
1774391069724,0.0450411,1.30899,0.0203503,-65.5963,32.4184,18.1421,0,0,3.30803,5
1774391069738,0.0351491,1.32086,0.0340236,-67.0675,33.068,17.0585,0,0,3.27687,5
1774391069751,0.0694329,1.41136,0.0336675,-58.4739,30.3191,25.0949,0,0,3.34588,5
1774391069765,0.0785574,1.44549,0.0510185,-42.6528,26.1504,23.5091,0,0,3.2824,5
1774391069778,0.0754849,1.44215,0.0737285,-26.2299,22.7901,24.3665,0,0,3.25613,5
1774391069792,0.0687031,1.40359,0.0989901,-10.7282,20.6284,26.4449,0,0,3.30933,5
1774391069805,0.0751155,1.35467,0.110911,1.06547,18.6817,28.2765,0,0,3.28774,5
1774391069819,0.0769341,1.30638,0.120336,8.74046,17.3658,28.6224,0,0,3.30913,5
1774391069832,0.0741141,1.26028,0.121426,12.9778,17.26,28.0595,0,0,3.27818,5
1774391069846,0.0757949,1.22443,0.126344,14.0482,17.7623,27.3638,0,0,3.50718,5
1774391069859,0.0777226,1.20534,0.125463,13.5398,18.7159,26.1796,0,0,3.27935,5
1774391069873,0.0746652,1.20611,0.128731,13.912,20.2403,24.7809,0,0,3.26127,5
1774391069886,0.0784253,1.21031,0.135818,16.3101,21.3166,22.9623,0,0,3.28601,5
1774391069899,0.085886,1.20543,0.144388,19.9002,21.6444,20.4818,0,0,3.26281,5
1774391069913,0.0916111,1.19251,0.153395,23.6233,21.2742,17.5902,0,0,3.31624,5
1774391069929,0.0977477,1.17954,0.155869,26.8695,20.3687,14.3183,0,0,5.50327,5
1774391069942,0.0987367,1.16865,0.148871,29.7474,19.1302,10.9888,0,0,3.32611,5
1774391069955,0.0987535,1.1606,0.131021,32.3204,17.7459,8.38524,0,0,3.24707,5
1774391069969,0.0935166,1.15039,0.131815,34.3843,16.5227,6.6162,0,0,3.5185,5
1774391069983,0.0903237,1.14015,0.129681,35.67,15.4272,5.3309,0,0,3.25776,5
1774391069996,0.0869181,1.13007,0.128109,36.2075,14.4252,4.50178,0,0,3.26248,5
1774391070010,0.0861492,1.12162,0.128219,36.0434,13.518,4.16192,0,0,3.5577,5
1774391070023,0.0829262,1.11619,0.125697,35.7703,12.7645,3.94131,0,0,3.27222,5
1774391070036,0.0808905,1.11287,0.124193,35.5606,12.1483,3.75278,0,0,3.28227,5
1774391070050,0.0792748,1.11192,0.122648,35.649,11.5529,3.5791,0,0,3.29981,5
