timestamp,ax,ay,az,gx,gy,gz,roll_k,pitch_k,delay_ms,arquivo_id,arquivo_nome,Fase,tem_rotulo_real,tempo_s,roll,acc_norm,gyro_norm,d_ax,dd_ax,d_ay,dd_ay,d_az,dd_az,d_gx,dd_gx,d_gy,dd_gy,d_gz,dd_gz,d_roll,dd_roll,d_pitch_k,dd_pitch_k,d_acc_norm,dd_acc_norm,d_gyro_norm,dd_gyro_norm,jerk_acc,jerk_gyro,classe_prevista,classe_prevista_nome,confianca_prevista
1777225951858,-0.017473,-0.65826,-0.0163299,0.0439054,-0.274673,0.243363,0,1.3831062257547062,3.25833,999,log_newX5.csv,0,False,0.0,-83.18494993393648,0.6586943137472875,0.3695923306119325,0.0,0.0,0.0,0.0,0.0,0.0,0.0,0.0,0.0,0.0,0.0,0.0,0.0,0.0,0.0,0.0,0.0,0.0,0.0,0.0,0.0,0.0,5,Swing,1.0
1777225951871,-0.0219971,-0.793569,-0.0176357,0.0330447,-0.176391,0.128038,0,1.4857542450601309,3.2757,999,log_newX5.csv,0,False,0.013,-87.2489594320077,0.7940696745776782,0.2204528668969628,-0.0045241,-0.0045241,-0.135309,-0.135309,-0.0013057999999999993,-0.0013057999999999993,-0.010860699999999994,-0.010860699999999994,0.09828200000000001,0.09828200000000001,-0.11532499999999998,-0.11532499999999998,-4.064009498071215,-4.064009498071215,0.10264801930542466,0.10264801930542466,0.1353753608303907,0.1353753608303907,-0.14913946371496967,-0.14913946371496967,0.1353753608303907,-0.14913946371496967,5,Swing,1.0
1777225951885,-0.0285011,-0.854039,-0.0195938,0.0246653,-0.142844,0.0914846,0,1.6455815384097319,3.26644,999,log_newX5.csv,0,False,0.027,-88.77736295145422,0.8547390497810721,0.17141241902863982,-0.006504000000000003,-0.001979900000000003,-0.060470000000000024,0.07483899999999999,-0.001958100000000001,-0.0006523000000000015,-0.008379400000000002,0.002481299999999992,0.033546999999999993,-0.06473500000000001,-0.036553400000000014,0.07877159999999997,-1.5284035194465275,2.5356059786246874,0.159827293349601,0.05717927404417633,0.06066937520339388,-0.07470598562699682,-0.049040447868322984,0.10009901584664668,0.06066937520339388,-0.049040447868322984,5,Swing,1.0
1777225951898,-0.0357905,-0.888095,-0.0198152,0.0197804,-0.126443,0.0715435,0,1.8589421565138298,3.27817,999,log_newX5.csv,0,False,0.04,-89.58381304376873,0.8890367433724491,0.1466204926516413,-0.0072894000000000014,-0.0007853999999999986,-0.034055999999999975,0.02641400000000005,-0.00022140000000000007,0.0017367000000000007,-0.004884900000000001,0.003494500000000001,0.016401,-0.017145999999999995,-0.019941100000000003,0.01661230000000001,-0.8064500923145062,0.7219534271320214,0.2133606181040979,0.0535333247544969,0.03429769359137702,-0.026371681612016862,-0.024791926376998535,0.02424852149132445,0.03429769359137702,-0.024791926376998535,5,Swing,1.0
1777225951912,-0.0392092,-0.910633,-0.0180317,0.014226,-0.118404,0.0549704,0,2.0389366162333586,3.26463,999,log_newX5.csv,0,False,0.054,-90.04433224776983,0.9116550686847137,0.13131500739884988,-0.0034186999999999967,0.0038707000000000047,-0.022538000000000058,0.011517999999999917,0.0017835000000000004,0.0020049000000000004,-0.005554399999999999,-0.0006694999999999982,0.008039000000000004,-0.008361999999999994,-0.016573099999999993,0.00336800000000001,-0.4605192040011019,0.34593088831340424,0.17999445971952888,-0.03336615838456902,0.022618325312264598,-0.011679368279112423,-0.015305485252791406,0.009486441124207129,0.022618325312264598,-0.015305485252791406,5,Swing,1.0
1777225951925,-0.0437562,-0.924856,-0.0190345,0.00933836,-0.113775,0.0429222,0,2.229113748210952,3.47733,999,log_newX5.csv,0,False,0.067,-90.36679417295646,0.9260861396029475,0.12196011989715982,-0.004547000000000002,-0.0011283000000000057,-0.014222999999999986,0.008315000000000072,-0.0010027999999999981,-0.0027862999999999985,-0.00488764,0.0006667599999999989,0.004628999999999994,-0.0034100000000000102,-0.012048200000000002,0.004524899999999991,-0.3224619251866301,0.13805727881447183,0.19017713197759356,0.010182672258064684,0.014431070918233813,-0.008187254394030785,-0.009354887501690057,0.00595059775110135,0.014431070918233813,-0.009354887501690057,5,Swing,1.0
1777225951939,-0.0455364,-0.935002,-0.0184533,0.00743608,-0.10855,0.0333423,0,2.384141486458625,3.26148,999,log_newX5.csv,0,False,0.081,-90.57880271030065,0.9362920634128274,0.11379853582123277,-0.0017801999999999957,0.0027668000000000068,-0.010145999999999988,0.004076999999999997,0.0005812000000000005,0.0015839999999999986,-0.0019022800000000001,0.0029853600000000003,0.005225000000000007,0.0005960000000000132,-0.009579900000000002,0.0024682999999999997,-0.21200853734418956,0.11045338784244052,0.1550277382476728,-0.035149393729920764,0.010205923809879947,-0.004225147108353866,-0.008161584075927056,0.001193303425763001,0.010205923809879947,-0.008161584075927056,5,Swing,1.0
1777225951952,-0.0471568,-0.944894,-0.0201492,0.00400629,-0.105183,0.0248279,0,2.513586275825792,3.26148,999,log_newX5.csv,0,False,0.094,-90.75497866559841,0.9462845371678014,0.10814776219124508,-0.001620400000000001,0.00015979999999999467,-0.009892000000000012,0.00025399999999997647,-0.0016959000000000002,-0.0022771000000000007,-0.0034297900000000003,-0.0015275100000000002,0.003366999999999995,-0.0018580000000000124,-0.008514399999999998,0.001065500000000004,-0.17617595529776509,0.03583258204642448,0.12944478936716708,-0.025582948880505718,0.009992473754973918,-0.00021345005490602809,-0.005650773629987685,0.002510810445939371,0.009992473754973918,-0.005650773629987685,5,Swing,1.0
1777225951966,-0.0458849,-0.951885,-0.0193846,0.00134233,-0.102212,0.0175511,0,2.580449412121052,3.76159,999,log_newX5.csv,0,False,0.108,-90.86704679049085,0.9531874107383972,0.10371661344760008,0.0012718999999999994,0.0028923000000000004,-0.0069909999999999695,0.0029010000000000424,0.0007646000000000007,0.002460500000000001,-0.00266396,0.0007658300000000003,0.0029710000000000014,-0.0003959999999999936,-0.0072768,0.0012375999999999984,-0.11206812489243134,0.06410783040533374,0.06686313629526008,-0.062581653071907,0.006902873570595824,-0.003089600184378094,-0.0044311487436450026,0.0012196248863426823,0.006902873570595824,-0.0044311487436450026,5,Swing,1.0
1777225951979,-0.0455635,-0.958677,-0.0179332,-0.00074136,-0.101101,0.0131192,0,2.6184673632172375,3.26104,999,log_newX5.csv,0,False,0.121,-90.92255108063463,0.9599266755974073,0.10195133753065527,0.00032139999999999946,-0.0009505,-0.00679200000000002,0.00019899999999994922,0.0014513999999999985,0.0006867999999999978,-0.00208369,0.0005802699999999999,0.0011110000000000009,-0.0018600000000000005,-0.004431900000000001,0.002844899999999999,-0.055504290143787216,0.056563834748644126,0.03801795109618533,-0.028845185199074752,0.006739264859010108,-0.00016360871158571655,-0.0017652759169448085,0.002665872826700194,0.006739264859010108,-0.0017652759169448085,5,Swing,1.0
1777225951993,-0.0448772,-0.96449,-0.0176376,-0.00277558,-0.101583,0.00891517,0,2.6306802168534626,3.25665,999,log_newX5.csv,0,False,0.135,-90.95642087361485,0.9656945728922783,0.10201122482092498,0.0006863000000000008,0.00036490000000000133,-0.005812999999999957,0.0009790000000000632,0.00029560000000000003,-0.0011557999999999985,-0.00203422,4.946999999999981e-05,-0.0004820000000000102,-0.001593000000000011,-0.004204029999999999,0.00022787000000000154,-0.03386979298021231,0.021634497163574906,0.012212853636225152,-0.02580509745996018,0.005767897294871038,-0.0009713675641390696,5.988729026970563e-05,0.001825163207214514,0.005767897294871038,5.988729026970563e-05,5,Swing,0.7216311766872526
1777225952006,-0.0460482,-0.968137,-0.0180403,-0.00591395,-0.103686,0.00577485,0,2.6555623962842834,3.262,999,log_newX5.csv,0,False,0.148,-90.98647202646345,0.9693993707014308,0.10401495225747594,-0.0011709999999999984,-0.0018572999999999992,-0.003647000000000067,0.0021659999999998902,-0.0004026999999999989,-0.0006982999999999989,-0.00313837,-0.00110415,-0.0021029999999999938,-0.0016209999999999836,-0.0031403200000000003,0.001063709999999999,-0.030051152848599827,0.003818640131612483,0.024882179430820717,0.012669325794595565,0.003704797809152449,-0.002063099485718589,0.002003727436550959,0.0019438401462812532,0.003704797809152449,0.002003727436550959,5,Swing,0.7216311766872526
1777225952019,-0.0466684,-0.97092,-0.0180439,-0.0068786,-0.105896,0.00176689,0,2.6814684500169053,3.25848,999,log_newX5.csv,0,False,0.161,-91.00761379752757,0.9722083975597876,0.10613387703382979,-0.0006202000000000013,0.0005507999999999971,-0.00278299999999998,0.0008640000000000869,-3.6000000000029064e-06,0.000399099999999996,-0.0009646500000000001,0.00217372,-0.0022100000000000036,-0.00010700000000000986,-0.00400796,-0.0008676399999999994,-0.02114177106412285,0.008909381784476977,0.025906053732621892,0.0010238743018011753,0.0028090268583568223,-0.0008957709507956269,0.0021189247763538505,0.0001151973398028916,0.0028090268583568223,0.0021189247763538505,5,Swing,0.7216311766872526
1777225952033,-0.0472301,-0.973791,-0.0167467,-0.00676131,-0.107631,-0.00207194,0,2.707104929632237,3.26291,999,log_newX5.csv,0,False,0.175,-91.00156816653073,0.9750795075212585,0.1078630632296325,-0.0005616999999999983,5.8500000000002994e-05,-0.002870999999999957,-8.799999999997699e-05,0.0012972000000000018,0.0013008000000000047,0.00011728999999999993,0.00108194,-0.0017350000000000004,0.0004750000000000032,-0.0038388299999999997,0.00016912999999999997,0.006045630996837303,0.027187402060960153,0.025636479615331886,-0.0002695741172900057,0.0028711099614708857,6.20831031140634e-05,0.001729186195802715,-0.00038973858055113553,0.0028711099614708857,0.001729186195802715,5,Swing,0.7216311766872526
1777225952046,-0.048537,-0.976909,-0.0162974,-0.00692073,-0.109004,-0.00368653,0,2.744084842312209,3.37111,999,log_newX5.csv,0,False,0.188,-90.98918927425022,0.9782497840003647,0.1092856762031228,-0.0013068999999999997,-0.0007452000000000014,-0.003118000000000065,-0.00024700000000010824,0.0004492999999999997,-0.0008479000000000021,-0.00015941999999999953,-0.00027670999999999946,-0.0013729999999999992,0.0003620000000000012,-0.00161459,0.0022242399999999997,0.012378892280509035,0.006333261283671732,0.036979912679971694,0.011343433064639807,0.003170276479106171,0.00029916651763528535,0.001422612973490292,-0.0003065732223124229,0.003170276479106171,0.001422612973490292,5,Swing,0.7216311766872526
1777225952060,-0.0490358,-0.97834,-0.0160428,-0.00716819,-0.107917,-0.0063188,0,2.777823852656069,3.8448,999,log_newX5.csv,0,False,0.202,-90.97575087805767,0.979699462444213,0.10833923144602836,-0.0004988000000000006,0.0008080999999999991,-0.00143099999999996,0.001687000000000105,0.00025460000000000066,-0.00019469999999999904,-0.0002474599999999997,-8.804000000000017e-05,0.0010870000000000046,0.002460000000000004,-0.0026322700000000004,-0.0010176800000000004,0.013438396192555047,0.0010595039120460115,0.033739010343860176,-0.0032409023361115175,0.0014496784438483568,-0.0017205980352578143,-0.0009464447570944334,-0.0023690577305847255,0.0014496784438483568,-0.0009464447570944334,5,Swing,0.5879633950584522
1777225952073,-0.0493347,-0.97771,-0.0164769,-0.00448694,-0.106439,-0.00734355,0,2.8076586149779703,3.26,999,log_newX5.csv,0,False,0.215,-90.97297821478546,0.9790925619969237,0.10678633376123604,-0.0002989000000000047,0.00019989999999999591,0.0006300000000000194,0.0020609999999999795,-0.00043409999999999976,-0.0006887000000000004,0.0026812499999999996,0.0029287099999999993,0.0014779999999999932,0.0003909999999999886,-0.0010247499999999996,0.0016075200000000007,0.002772663272210707,-0.01066573292034434,0.029834762321901298,-0.003904248021958878,-0.0006069004472892825,-0.0020565788911376393,-0.0015528976847923176,-0.0006064529276978842,-0.0006069004472892825,-0.0015528976847923176,5,Swing,0.5879633950584522
1777225952087,-0.0497879,-0.978241,-0.0142154,0.00122586,-0.104495,-0.00805545,0,2.8361900435988328,3.25994,999,log_newX5.csv,0,False,0.229,-90.93503704645134,0.9796103136781329,0.10481220364271568,-0.0004532000000000008,-0.0001542999999999961,-0.0005310000000000592,-0.0011610000000000786,0.0022614999999999996,0.0026955999999999994,0.0057128000000000005,0.003031550000000001,0.0019440000000000013,0.0004660000000000081,-0.0007119000000000006,0.00031284999999999907,0.03794116833411465,0.03516850506190394,0.028531428620862442,-0.0013033337010388557,0.0005177516812091554,0.0011246521284984379,-0.0019741301185203647,-0.0004212324337280471,0.0005177516812091554,-0.0019741301185203647,5,Swing,0.5879633950584522
1777225952100,-0.0531652,-0.983632,-0.0157982,0.00711433,-0.0981358,-0.00649357,0,2.9056838096306468,3.26285,999,log_newX5.csv,0,False,0.242,-90.93101608965438,0.9851944138281945,0.0986073799689141,-0.0033772999999999997,-0.002924099999999999,-0.005390999999999924,-0.004859999999999864,-0.0015827999999999988,-0.0038442999999999984,0.00588847,0.0001756699999999993,0.006359200000000009,0.004415200000000008,0.0015618800000000007,0.0022737800000000013,0.004020956796964015,-0.033920211537150635,0.06949376603181401,0.040962337410951566,0.0055841001500616105,0.005066348468852455,-0.006204823673801582,-0.0042306935552812175,0.0055841001500616105,-0.006204823673801582,5,Swing,0.5879633950584522
1777225952114,-0.0512622,-0.982306,-0.0179773,0.00763414,-0.0904209,-0.00637808,0,2.9275990757166976,3.26139,999,log_newX5.csv,0,False,0.256,-90.9627445015607,0.9838069292804,0.09096647269646109,0.001903000000000002,0.005280300000000002,0.0013259999999999383,0.006716999999999862,-0.0021791000000000033,-0.0005963000000000045,0.0005198099999999999,-0.00536866,0.007714899999999997,0.0013556999999999875,0.00011548999999999934,-0.0014463900000000014,-0.0317284119063288,-0.035749368703292816,0.021915266086050877,-0.04757849994576313,-0.0013874845477944708,-0.006971584697856081,-0.007640907272453007,-0.0014360835986514248,-0.0013874845477944708,-0.007640907272453007,5,Swing,0.5879633950584522
1777225952127,-0.0470278,-0.978797,-0.019444,0.0172486,-0.0859445,-0.00600174,0,2.879675119932275,3.26393,999,log_newX5.csv,0,False,0.269,-91.01010254582167,0.9801189980394421,0.08786348596110673,0.004234399999999999,0.0023313999999999974,0.0035089999999999844,0.002183000000000046,-0.0014666999999999979,0.0007124000000000054,0.009614459999999998,0.00909465,0.004476400000000005,-0.0032384999999999914,0.0003763400000000002,0.00026085000000000084,-0.04735804426096024,-0.01562963235463144,-0.047923955784422656,-0.06983922187047353,-0.003687931240957898,-0.002300446693163427,-0.0031029867353543628,0.004537920537098644,-0.003687931240957898,-0.0031029867353543628,3,Heel-off,0.5053993564314433
1777225952140,-0.0385795,-0.978437,-0.0195201,0.0309858,-0.0865699,-0.00301478,0,2.7116006304167497,3.25917,999,log_newX5.csv,0,False,0.282,-91.04598291829461,0.979391839405077,0.09199758847979876,0.008448299999999999,0.0042139,0.00036000000000002697,-0.0031489999999999574,-7.609999999999909e-05,0.0013905999999999988,0.013737200000000001,0.004122740000000003,-0.0006254000000000121,-0.005101800000000017,0.0029869600000000003,0.00261062,-0.03588037247294551,0.011477671788014732,-0.16807448951552528,-0.12015053373110263,-0.0007271586343651215,0.0029607726065927764,0.004134102518692034,0.007237089254046397,-0.0007271586343651215,0.004134102518692034,3,Heel-off,0.5053993564314433
1777225952154,-0.0344815,-0.980028,-0.0189731,0.0433079,-0.0940152,0.00781061,0,2.523327749487576,3.31563,999,log_newX5.csv,0,False,0.296,-91.0630326775715,0.9808179408788666,0.10380480558250711,0.004098000000000004,-0.0043502999999999944,-0.001591000000000009,-0.001951000000000036,0.0005469999999999989,0.000623099999999998,0.012322100000000002,-0.001415099999999999,-0.007445299999999988,-0.006819899999999976,0.01082539,0.00783843,-0.01704975927688679,0.01883061319605872,-0.1882728809291736,-0.02019839141364832,0.0014261014737896316,0.002153260108154753,0.01180721710270835,0.007673114584016316,0.0014261014737896316,0.01180721710270835,3,Heel-off,0.5053993564314433
1777225952167,-0.0363438,-0.982923,-0.0167578,0.0558521,-0.0998491,0.020355,0,2.413623883256277,3.2588,999,log_newX5.csv,0,False,0.309,-91.03971960844814,0.9837374241067989,0.11620510259975678,-0.0018623000000000042,-0.005960300000000009,-0.002894999999999981,-0.0013039999999999718,0.0022153,0.001668300000000001,0.012544199999999998,0.0002220999999999959,-0.005833900000000003,0.001611399999999985,0.012544390000000002,0.0017190000000000018,0.023313069123361174,0.04036282840024796,-0.10970386623129924,0.07856901469787436,0.002919483227932229,0.0014933817541425976,0.012400297017249665,0.000593079914541314,0.002919483227932229,0.012400297017249665,3,Heel-off,0.5053993564314433
1777225952180,-0.0413105,-0.982986,-0.0142238,0.0652223,-0.101236,0.0301326,0,2.4116229751810594,3.2588,999,log_newX5.csv,0,False,0.322,-90.98279552368709,0.9839564777431419,0.12413963789237506,-0.0049666999999999975,-0.0031043999999999933,-6.300000000003525e-05,0.0028319999999999457,0.002534,0.0003186999999999999,0.009370199999999995,-0.003174000000000003,-0.0013869000000000103,0.004446999999999993,0.009777599999999997,-0.002766790000000005,0.05692408476105015,0.03361101563768898,-0.002000908075217467,0.10770295815608177,0.0002190536363430029,-0.0027004295915892262,0.007934535292618283,-0.004465761724631381,0.0002190536363430029,0.007934535292618283,3,Heel-off,0.5053993564314433
1777225952194,-0.0443316,-0.983137,-0.014924,0.0774454,-0.0952656,0.0356584,0,2.4575256537502055,3.26067,999,log_newX5.csv,0,False,0.336,-90.95223719481673,0.984249143918124,0.12784696326108025,-0.003021099999999999,0.0019455999999999987,-0.00015100000000001224,-8.799999999997699e-05,-0.0007001999999999998,-0.0032341999999999996,0.0122231,0.0028529000000000054,0.005970400000000001,0.007357300000000011,0.005525800000000001,-0.0042517999999999966,0.030558328870355922,-0.02636575589069423,0.045902678569146094,0.04790358664436356,0.0002926661749821369,7.361253863913397e-05,0.003707325368705189,-0.0042272099239130945,0.0002926661749821369,0.003707325368705189,3,Heel-off,0.40869167571929915
1777225952207,-0.0418656,-0.983139,-0.0134709,0.0875287,-0.0913087,0.0408609,0,2.4522936069333787,3.25498,999,log_newX5.csv,0,False,0.349,-90.90706067974737,0.9841221910571725,0.13292165048700683,0.002465999999999996,0.005487099999999995,-1.999999999946489e-06,0.00014900000000006575,0.0014531000000000006,0.0021533000000000004,0.010083300000000003,-0.0021397999999999973,0.003956899999999999,-0.0020135000000000014,0.005202499999999999,-0.00032330000000000206,0.04517651506935749,0.01461818619900157,-0.005232046816826763,-0.05113472538597286,-0.0001269528609515458,-0.00041961903593368266,0.005074687225926577,0.0013673618572213886,-0.0001269528609515458,0.005074687225926577,3,Heel-off,0.40869167571929915
1777225952221,-0.0378581,-0.983592,-0.0118877,0.0967835,-0.0943351,0.0487587,0,2.3852276885851924,3.26043,999,log_newX5.csv,0,False,0.363,-90.84908050992523,0.9843920842890297,0.14367869636779837,0.004007500000000004,0.0015415000000000081,-0.0004530000000000367,-0.0004510000000000902,0.0015831999999999999,0.0001300999999999993,0.009254799999999994,-0.0008285000000000098,-0.0030263999999999985,-0.006983299999999998,0.007897800000000003,0.0026953000000000046,0.05798016982214449,0.012803654752786997,-0.06706591834818632,-0.06183387153135955,0.00026989323185722114,0.0003968460928087669,0.010757045880791544,0.005682358654864966,0.00026989323185722114,0.010757045880791544,3,Heel-off,0.40869167571929915
1777225952234,-0.0420404,-0.983373,-0.00858224,0.10531,-0.100814,0.05819,0,2.402153869355519,3.25817,999,log_newX5.csv,0,False,0.376,-90.75478169720088,0.984308644280125,0.15697049020755463,-0.0041823,-0.008189800000000004,0.00021899999999996922,0.0006720000000000059,0.0033054599999999996,0.0017222599999999998,0.008526500000000006,-0.0007282999999999873,-0.006478899999999996,-0.0034524999999999972,0.009431299999999997,0.0015334999999999932,0.0942988127243467,0.036318642902202214,0.016926180770326482,0.0839920991185128,-8.344000890470049e-05,-0.00035333324076192163,0.01329179383975626,0.002534747958964717,-8.344000890470049e-05,0.01329179383975626,3,Heel-off,0.40869167571929915
1777225952261,-0.050241,-0.983055,-0.00696812,0.112288,-0.101722,0.058797,0,2.5435653034348435,16.7969,999,log_newX5.csv,0,False,0.403,-90.66058826595922,0.9843626596952642,0.1625209138449572,-0.008200600000000002,-0.004018300000000002,0.00031800000000004047,9.900000000007125e-05,0.0016141199999999993,-0.0016913400000000004,0.006977999999999998,-0.0015485000000000082,-0.000908000000000006,0.00557089999999999,0.0006070000000000034,-0.008824299999999993,0.09419343124166346,-0.00010538148268324221,0.14141143407932466,0.12448525330899818,5.4015415139163636e-05,0.00013745542404386413,0.005550423637402574,-0.007741370202353687,5.4015415139163636e-05,0.005550423637402574,3,Heel-off,0.40869167571929915
1777225952274,-0.0510523,-0.982682,-0.00505202,0.120723,-0.0984066,0.0506258,0,2.659827684432905,3.38128,999,log_newX5.csv,0,False,0.416,-90.56170292320977,0.9840202098358399,0.16377079494891633,-0.0008113000000000009,0.007389300000000001,0.0003729999999999567,5.499999999991623e-05,0.0019161000000000004,0.00030198000000000117,0.008434999999999998,0.001457,0.00331540000000001,0.004223400000000016,-0.008171200000000003,-0.008778200000000007,0.09888534274945471,0.0046919115077912465,0.11626238099806141,-0.02514905308126325,-0.0003424498594242209,-0.00039646527456338454,0.0012498811039591273,-0.004300542533443447,-0.0003424498594242209,0.0012498811039591273,4,Toe-off,0.4109377706116359
1777225952288,-0.0508879,-0.983999,-0.00194057,0.127817,-0.0987612,0.0451906,0,2.7410375288590303,3.4442,999,log_newX5.csv,0,False,0.43,-90.44048151416894,0.9853158763459233,0.16772939647777904,0.00016440000000000204,0.000975700000000003,-0.0013169999999999016,-0.0016899999999998583,0.00311145,0.0011953499999999995,0.007093999999999989,-0.0013410000000000089,-0.0003545999999999966,-0.0036700000000000066,-0.005435200000000001,0.0027360000000000023,0.12122140904082812,0.022336066291373413,0.08120984442612533,-0.03505253657193608,0.001295666510083393,0.001638116369507614,0.00395860152886271,0.0027087204249035823,0.001295666510083393,0.00395860152886271,4,Toe-off,0.4109377706116359
1777225952301,-0.0528688,-0.985303,0.00166158,0.133804,-0.100469,0.0417682,0,2.8302851080266618,3.36785,999,log_newX5.csv,0,False,0.443,-90.29537980440689,0.9867217807824739,0.17245901805426125,-0.0019809000000000007,-0.0021453000000000028,-0.0013040000000000829,1.2999999999818712e-05,0.00360215,0.0004907000000000002,0.00598700000000002,-0.0011069999999999691,-0.0017078000000000093,-0.0013532000000000127,-0.003422399999999999,0.002012800000000002,0.14510170976204506,0.02388030072121694,0.08924757916763149,0.008037734741506153,0.0014059044365505313,0.00011023792646713826,0.0047296215764822125,0.0007710200476195028,0.0014059044365505313,0.0047296215764822125,4,Toe-off,0.4109377706116359
1777225952315,-0.0558756,-0.987015,0.00324443,0.138208,-0.101269,0.0329747,0,2.940993158473534,3.42854,999,log_newX5.csv,0,False,0.457,-90.1647006959106,0.9886006368733458,0.1744826423031529,-0.003006799999999997,-0.0010258999999999963,-0.0017119999999999358,-0.0004079999999998529,0.00158285,-0.0020193,0.004403999999999991,-0.0015830000000000288,-0.0007999999999999952,0.0009078000000000142,-0.008793499999999996,-0.005371099999999997,0.13067910849629527,-0.01442260126574979,0.11070805044687226,0.021460471279240778,0.0018788560908719054,0.0004729516543213741,0.002023624248891659,-0.0027059973275905536,0.0018788560908719054,0.002023624248891659,4,Toe-off,0.4109377706116359
1777225952328,-0.0617035,-0.988405,0.00214119,0.144296,-0.0978893,0.0206723,0,3.111512035197579,3.38519,999,log_newX5.csv,0,False,0.47,-90.0866739553168,0.9903314347388282,0.17558756977012924,-0.005827900000000004,-0.002821100000000007,-0.0013900000000000023,0.00032199999999993345,-0.0011032400000000001,-0.0026860900000000004,0.00608800000000001,0.0016840000000000188,0.0033796999999999994,0.0041796999999999945,-0.012302400000000002,-0.0035089000000000058,0.0780267405937991,-0.05265236790249617,0.17051887672404487,0.0598108262771726,0.0017307978654824696,-0.0001480582253894358,0.0011049274669763243,-0.0009186967819153347,0.0017307978654824696,0.0011049274669763243,4,Toe-off,0.4109377706116359
1777225952343,-0.0632241,-0.988034,0.00356423,0.154445,-0.0942716,0.00347363,0,3.2600487458749816,4.16195,999,log_newX5.csv,0,False,0.485,-90.00742048850928,0.9900611979631879,0.18097640370207632,-0.001520600000000004,0.0043073,0.0003710000000000102,0.0017610000000000126,0.00142304,0.00252628,0.010148999999999991,0.004060999999999981,0.0036177000000000015,0.0002380000000000021,-0.01719867,-0.004896269999999998,0.07925346680751488,0.0012267262137157786,0.1485367106774027,-0.02198216604664216,-0.000270236775640309,-0.0020010346411227786,0.005388833931947085,0.00428390646497076,-0.000270236775640309,0.005388833931947085,4,Toe-off,0.4294410478067642
1777225952356,-0.06152,-0.991735,0.00550752,0.164442,-0.0894502,-0.0165456,0,3.3382752157283337,3.45763,999,log_newX5.csv,0,False,0.498,-89.91945635925858,0.9936565570666509,0.18792622627882463,0.001704100000000007,0.003224700000000011,-0.0037010000000000653,-0.0040720000000000756,0.0019432900000000003,0.0005202500000000003,0.009997000000000006,-0.00015199999999998548,0.0048214000000000035,0.001203700000000002,-0.02001923,-0.0028205599999999997,0.0879641292507074,0.008710662443192518,0.07822646985335213,-0.07031024082405057,0.0035953591034629806,0.0038655958791032896,0.00694982257674831,0.0015609886448012256,0.0035953591034629806,0.00694982257674831,4,Toe-off,0.4294410478067642
1777225952370,-0.0584319,-0.995205,0.00687297,0.172989,-0.0825953,-0.0314216,0,3.3441697638102603,3.42283,999,log_newX5.csv,0,False,0.512,-89.83431944581955,0.9969425844446764,0.19425368632190743,0.0030880999999999964,0.0013839999999999894,-0.003469999999999973,0.00023100000000009224,0.0013654499999999998,-0.0005778400000000005,0.008546999999999999,-0.0014500000000000068,0.006854899999999997,0.0020334999999999936,-0.014876,0.005143229999999999,0.08513691343902963,-0.0028272158116777746,0.005894548081926576,-0.07233192177142556,0.0032860273780255245,-0.00030933172543745613,0.006327460043082794,-0.0006223625336655159,0.0032860273780255245,0.006327460043082794,4,Toe-off,0.4294410478067642
1777225952383,-0.051697,-0.998121,0.000690976,0.182237,-0.0774681,-0.0414518,0,3.2417200826125603,3.41272,999,log_newX5.csv,0,False,0.525,-89.86836345704214,0.9994591476883048,0.20231135017554008,0.006734900000000002,0.0036468000000000056,-0.0029160000000000297,0.0005539999999999434,-0.006181994,-0.0075474439999999995,0.009248000000000006,0.0007010000000000072,0.005127199999999998,-0.0017276999999999987,-0.010030199999999996,0.004845800000000004,-0.0340440112225906,-0.11918092466162022,-0.10244968119770004,-0.10834422927962661,0.002516563243628367,-0.0007694641343971576,0.008057663853632657,0.001730203810549863,0.002516563243628367,0.008057663853632657,4,Toe-off,0.4294410478067642
1777225952397,-0.0466861,-0.998272,-0.000140041,0.20437,-0.0774193,-0.0511463,0,3.0893183935661646,3.34117,999,log_newX5.csv,0,False,0.539,-89.90609730716876,0.9993630959409556,0.22444774206077459,0.005010899999999999,-0.0017240000000000033,-0.00015100000000001224,0.0027650000000000174,-0.0008310170000000001,0.005350977,0.022132999999999986,0.01288499999999998,4.880000000000162e-05,-0.005078399999999997,-0.009694500000000002,0.00033569999999999434,-0.037733850126628,-0.0036898389040374013,-0.15240168904639573,-0.04995200784869569,-9.605174734916844e-05,-0.0026126149909775354,0.022136391885234502,0.014078728031601845,-9.605174734916844e-05,0.022136391885234502,4,Toe-off,0.4294410478067642
1777225952410,-0.0481266,-1.01076,-0.00330662,0.228693,-0.0740199,-0.0636015,0,2.9911719771057603,3.40948,999,log_newX5.csv,0,False,0.552,-89.98210320602976,1.0119105103532549,0.24864549995376953,-0.0014404999999999973,-0.006451399999999996,-0.012488000000000055,-0.012337000000000042,-0.003166579,-0.0023355620000000002,0.02432300000000001,0.0021900000000000253,0.003399399999999997,0.0033505999999999952,-0.012455200000000007,-0.002760700000000005,-0.0760058988609984,-0.0382720487343704,-0.09814641646040423,0.0542552725859915,0.01254741441229923,0.012643466159648398,0.024197757892994942,0.00206136600776044,0.01254741441229923,0.024197757892994942,4,Toe-off,0.3922689544730224
1777225952424,-0.0372484,-1.03112,-0.0193107,0.234381,-0.0756909,-0.087327,0,2.741907224377819,3.35328,999,log_newX5.csv,0,False,0.566,-90.27678968832554,1.031973255872966,0.26132273233075226,0.010878199999999998,0.012318699999999995,-0.020359999999999934,-0.007871999999999879,-0.01600408,-0.012837501000000001,0.005687999999999999,-0.018635000000000013,-0.0016710000000000058,-0.005070400000000003,-0.023725499999999997,-0.01127029999999999,-0.29468648229577354,-0.21868058343477514,-0.24926475272794146,-0.15111833626753723,0.0200627455197111,0.007515331107411871,0.012677232376982733,-0.011520525516012209,0.0200627455197111,0.012677232376982733,4,Toe-off,0.3922689544730224
1777225952437,-0.020919,-1.03725,-0.0127767,0.251997,-0.100595,-0.103803,0,2.313270775922982,3.40491,999,log_newX5.csv,0,False,0.579,-90.39266941182575,1.037539594966809,0.29051145389295757,0.0163294,0.005451200000000003,-0.006129999999999969,0.014229999999999965,0.006534,0.022538080000000002,0.01761600000000002,0.011928000000000022,-0.0249041,-0.023233099999999993,-0.016476000000000005,0.007249499999999992,-0.11587972350021403,0.17880675879555952,-0.42863644845483684,-0.17937169572689537,0.005566339093842965,-0.014496406425868136,0.02918872156220531,0.016511489185222578,0.005566339093842965,0.02918872156220531,4,Toe-off,0.3922689544730224
1777225952451,-0.0209613,-1.04309,-0.00980621,0.262835,-0.139185,-0.0932964,0,1.999323440314112,3.47255,999,log_newX5.csv,0,False,0.593,-90.43210113831141,1.043346675823647,0.31170325584273256,-4.229999999999859e-05,-0.0163717,-0.005840000000000067,0.00028999999999990145,0.002970490000000001,-0.003563509999999999,0.010837999999999959,-0.006778000000000062,-0.03859,-0.0136859,0.010506600000000005,0.02698260000000001,-0.039431726485659624,0.0764479970145544,-0.31394733560887,0.11468911284596683,0.0058070808568380095,0.0002407417629950448,0.02119180194977499,-0.00799691961243032,0.0058070808568380095,0.02119180194977499,4,Toe-off,0.3922689544730224
1777225952465,0.0052862,-1.04967,-0.0305838,0.264691,-0.193481,-0.0976707,0,1.3812753154333652,4.51783,999,log_newX5.csv,0,False,0.607,-90.76623846985699,1.0501287643107773,0.34210493781950885,0.0262475,0.0262898,-0.00658000000000003,-0.0007399999999999629,-0.020777590000000002,-0.023748080000000005,0.0018560000000000243,-0.008981999999999934,-0.05429599999999998,-0.015705999999999984,-0.004374299999999998,-0.014880900000000002,-0.3341373315455769,-0.2947056050599173,-0.6180481248807468,-0.3041007892718768,0.0067820884871303555,0.000975007630292346,0.030401681976776285,0.009209880027001294,0.0067820884871303555,0.030401681976776285,4,Toe-off,0.3922689544730224
1777225952479,0.0797747,-1.01282,0.0280738,0.301682,-0.38757,-0.128949,0,-0.20809518616510903,3.49276,999,log_newX5.csv,0,False,0.621,-90.13029558422363,1.016344672542996,0.5077896992111991,0.0744885,0.048241,0.03685000000000005,0.04343000000000008,0.058657600000000004,0.07943519,0.036990999999999996,0.03513499999999997,-0.19408900000000004,-0.13979300000000006,-0.03127830000000001,-0.02690400000000001,0.6359428856333551,0.970080217178932,-1.5893705015984743,-0.9713223767177275,-0.03378409176778119,-0.040566180254911544,0.16568476139169025,0.13528307941491396,-0.03378409176778119,0.16568476139169025,5,Swing,0.5431550912314854
1777225952493,0.11752,-1.31618,-0.039454,0.327687,-0.599298,-0.250308,0,-1.5296888275473473,3.3867,999,log_newX5.csv,0,False,0.635,-90.55895156618095,1.3220050532868624,0.7274551241396269,0.037745299999999996,-0.036743200000000004,-0.30335999999999985,-0.3402099999999999,-0.0675278,-0.1261854,0.026005,-0.010985999999999996,-0.21172799999999997,-0.017638999999999933,-0.12135899999999997,-0.09008069999999996,-0.4286559819573199,-1.064598867590675,-1.3215936413822382,0.26777686021623603,0.30566038074386626,0.33944447251164744,0.21966542492842778,0.05398066353673753,0.30566038074386626,0.21966542492842778,5,Swing,0.5431550912314854
1777225952506,0.167632,-1.19885,-0.0810968,0.0715585,-0.831222,-0.322852,0,-3.2620116949544378,3.49168,999,log_newX5.csv,0,False,0.648,-91.45342638946731,1.2132264837590054,0.8945859635106344,0.050112000000000004,0.012366700000000008,0.11732999999999993,0.4206899999999998,-0.041642799999999994,0.025885000000000005,-0.2561285,-0.2821335,-0.23192400000000002,-0.020196000000000047,-0.072544,0.04881499999999997,-0.8944748232863589,-0.46581884132903895,-1.7323228674070905,-0.4107292260248523,-0.10877856952785692,-0.41443895027172317,0.16713083937100748,-0.0525345855574203,-0.10877856952785692,0.16713083937100748,5,Swing,0.5431550912314854
1777225952520,0.217413,-1.08572,-0.117252,0.0317822,-1.0816,-0.175468,0,-5.42266335810454,3.40533,999,log_newX5.csv,0,False,0.662,-92.7259501075988,1.1134650252580904,1.0962014811433343,0.04978099999999999,-0.00033100000000001184,0.11312999999999995,-0.0041999999999999815,-0.0361552,0.005487599999999995,-0.0397763,0.2163522,-0.2503779999999999,-0.01845399999999986,0.14738399999999996,0.21992799999999996,-1.2725237181314952,-0.3780488948451364,-2.160651663150102,-0.4283287957430115,-0.099761458500915,0.009017111026941915,0.20161551763269991,0.034484678261692436,-0.099761458500915,0.20161551763269991,5,Swing,0.5431550912314854
1777225952534,0.271251,-1.10267,-0.0963643,0.0783045,-1.31823,-0.00371713,0,-7.677635128320253,4.43254,999,log_newX5.csv,0,False,0.676,-93.33881063217842,1.1396246365428795,1.3205588758838762,0.053838000000000025,0.004057000000000033,-0.01695000000000002,-0.13007999999999997,0.020887699999999995,0.057042899999999994,0.0465223,0.0862986,-0.23663000000000012,0.01374799999999976,0.17175087,0.02436687000000004,-0.6128605245796166,0.6596631935518786,-2.254971770215713,-0.09432010706561078,0.026159611284789053,0.12592106978570405,0.22435739474054195,0.022741877107842035,0.026159611284789053,0.22435739474054195,5,Swing,0.5431550912314854
1777225952548,0.269963,-1.13029,-0.0712155,-0.0392119,-1.51542,0.0917879,0,-9.22558493946618,3.43211,999,log_newX5.csv,0,False,0.69,-93.41078681723667,1.1642624931299856,1.518703515531593,-0.0012880000000000114,-0.055126000000000036,-0.027619999999999978,-0.010669999999999957,0.0251488,0.004261100000000004,-0.1175164,-0.16403869999999998,-0.19718999999999998,0.03944000000000014,0.09550503,-0.07624584,-0.07197618505824721,0.5408843395213694,-1.5479498111459282,0.7070219590697846,0.024637856587106155,-0.0015217546976828977,0.1981446396477169,-0.026212755092825057,0.024637856587106155,0.1981446396477169,5,Swing,0.6763533585729291
1777225952563,0.20344,-1.12393,-0.0495416,-0.133809,-1.67975,0.156274,0,-9.502377020536871,4.64987,999,log_newX5.csv,0,False,0.705,-93.17118917888112,1.1432676189897797,1.6923021225706123,-0.066523,-0.06523499999999999,0.006359999999999921,0.0339799999999999,0.021673900000000003,-0.003474899999999996,-0.09459710000000002,0.022919299999999976,-0.1643300000000001,0.03285999999999989,0.06448609999999999,-0.031018930000000014,0.23959763835554782,0.311573823413795,-0.2767920810706901,1.2711577300752381,-0.020994874140205955,-0.04563273072731211,0.1735986070390192,-0.0245460326086977,-0.020994874140205955,0.1735986070390192,5,Swing,0.6763533585729291
1777225952576,0.177179,-1.09048,-0.022713,-0.228759,-1.81669,0.175292,0,-9.427898714401175,3.40672,999,log_newX5.csv,0,False,0.718,-92.63682563375099,1.1050135333153164,1.8394076550468632,-0.026261000000000007,0.04026199999999999,0.0334500000000002,0.02709000000000028,0.026828599999999998,0.005154699999999995,-0.09494999999999998,-0.0003528999999999616,-0.13693999999999984,0.027390000000000247,0.019018000000000007,-0.045468099999999984,0.5343635451301338,0.29476590677458603,0.0744783061356955,0.3512703872063856,-0.03825408567446331,-0.017259211534257357,0.1471055324762509,-0.026493074562768282,-0.03825408567446331,0.1471055324762509,5,Swing,0.6763533585729291
1777225952591,0.176705,-1.05144,0.00518071,-0.2695,-1.9308,0.212743,0,-9.458147127712538,4.44565,999,log_newX5.csv,0,False,0.733,-91.8482034228325,1.0661977163646075,1.9610911437383527,-0.0004740000000000022,0.025787000000000004,0.039039999999999964,0.005589999999999762,0.027893710000000002,0.0010651100000000045,-0.04074100000000003,0.05420899999999995,-0.11411000000000016,0.022829999999999684,0.037450999999999984,0.018432999999999977,0.7886222109184899,0.2542586657883561,-0.0302484133113623,-0.1047267194470578,-0.038815816950708903,-0.0005617312762455917,0.12168348869148948,-0.025422043784761428,-0.038815816950708903,0.12168348869148948,5,Swing,0.6763533585729291
1777225952605,0.160208,-1.04427,0.046128,-0.308528,-2.0259,0.301701,0,-9.257038978083466,3.46274,999,log_newX5.csv,0,False,0.747,-90.66560645009085,1.05749431608307,2.0713483121351173,-0.01649700000000001,-0.01602300000000001,0.007169999999999899,-0.031870000000000065,0.040947290000000004,0.013053580000000002,-0.03902800000000001,0.00171300000000002,-0.09509999999999996,0.019010000000000193,0.08895800000000001,0.051507000000000025,1.1825969727416492,0.39397476182315927,0.20110814962907142,0.23135656294043372,-0.008703400281537377,0.030112416669171527,0.11025716839676458,-0.011426320294724901,-0.008703400281537377,0.11025716839676458,5,Swing,0.6763533585729291
1777225952618,0.112877,-1.02663,0.0818081,-0.358188,-2.08972,0.393389,0,-8.445950727905027,3.37141,999,log_newX5.csv,0,False,0.76,-89.25494412432673,1.0360516103238342,2.1563819761500973,-0.047330999999999984,-0.030833999999999973,0.0176400000000001,0.010470000000000201,0.03568009999999999,-0.005267190000000012,-0.04965999999999998,-0.010631999999999975,-0.06381999999999977,0.0312800000000002,0.09168799999999999,0.0027299999999999824,1.4106623257641218,0.22806535302247255,0.8110882501784396,0.6099801005493681,-0.021442705759235903,-0.012739305477698526,0.08503366401498003,-0.025223504381784556,-0.021442705759235903,0.08503366401498003,5,Swing,0.8278755756046019
1777225952632,0.0443404,-0.990179,0.1124,-0.378592,-2.06996,0.433957,0,-6.852491646937169,3.4565,999,log_newX5.csv,0,False,0.774,-87.70664021922029,0.9975240764578868,2.148577432142719,-0.0685366,-0.02120560000000002,0.0364509999999999,0.0188109999999998,0.030591900000000005,-0.005088199999999987,-0.020403999999999978,0.029256000000000004,0.019759999999999778,0.08357999999999954,0.04056799999999999,-0.05112,1.5483039051064367,0.1376415793423149,1.5934590809678575,0.7823708307894179,-0.03852753386594743,-0.017084828106711525,-0.0078045440073784,-0.09283820802235843,-0.03852753386594743,-0.0078045440073784,5,Swing,0.8278755756046019
1777225952645,-0.0262316,-0.966766,0.136677,-0.379717,-1.96402,0.411516,0,-4.5854917945840565,3.41607,999,log_newX5.csv,0,False,0.787,-86.15228840921829,0.9767318966449084,2.0422793586444046,-0.070572,-0.0020353999999999928,0.023413000000000017,-0.013037999999999883,0.024276999999999993,-0.006314900000000012,-0.0011250000000000426,0.019278999999999935,0.10593999999999992,0.08618000000000015,-0.02244099999999999,-0.06300899999999998,1.5543518100020037,0.006047904895567058,2.2669998523531127,0.6735407713852553,-0.020792179812978318,0.01773535405296911,-0.10629807349831433,-0.09849352949093593,-0.020792179812978318,-0.10629807349831433,5,Swing,0.8278755756046019
1777225952660,-0.0678472,-0.953515,0.150613,-0.370438,-1.79155,0.356696,0,-2.260574527315044,4.43795,999,log_newX5.csv,0,False,0.802,-84.76684215259726,0.9677181271123528,1.8638958529810619,-0.041615599999999996,0.0289564,0.013251000000000013,-0.010162000000000004,0.013936000000000004,-0.010340999999999989,0.009279000000000037,0.01040400000000008,0.17247000000000012,0.0665300000000002,-0.05481999999999998,-0.03237899999999999,1.385446256621023,-0.16890555338098068,2.3249172672690124,0.057917414915899634,-0.009013769532555616,0.011778410280422702,-0.1783835056633427,-0.07208543216502838,-0.009013769532555616,-0.1783835056633427,5,Swing,0.8278755756046019
1777225952673,-0.0770514,-0.94378,0.159399,-0.354602,-1.6,0.303582,0,-0.40648490239611323,3.41135,999,log_newX5.csv,0,False,0.815,-83.59077110001544,0.9602424942913951,1.6667047156374162,-0.00920420000000001,0.032411399999999986,0.00973500000000005,-0.0035159999999999636,0.008786000000000016,-0.005149999999999988,0.015836000000000017,0.0065569999999999795,0.1915499999999999,0.019079999999999764,-0.053113999999999995,0.0017059999999999853,1.1760710525818183,-0.20937520403920473,1.854089624918931,-0.47082764235008145,-0.007475632820957756,0.0015381367115978595,-0.19719113734364568,-0.018807631680302972,-0.007475632820957756,-0.19719113734364568,5,Swing,0.8278755756046019
1777225952688,-0.0697613,-0.938449,0.166737,-0.331494,-1.41264,0.255873,0,0.8342157769662104,4.62628,999,log_newX5.csv,0,False,0.83,-82.60050089738615,0.9556957631734536,1.4734011788257126,0.007290100000000008,0.016494300000000017,0.005330999999999975,-0.0044040000000000745,0.007337999999999983,-0.0014480000000000326,0.023107999999999962,0.007271999999999945,0.1873600000000002,-0.004189999999999694,-0.047709,0.005404999999999993,0.99027020262929,-0.18580084995252832,1.2407006793623236,-0.6133889455566073,-0.0045467311179414605,0.0029289017030162956,-0.19330353681170354,0.003887600531942148,-0.0045467311179414605,-0.19330353681170354,5,Swing,1.0
1777225952702,-0.0635604,-0.940447,0.172176,-0.309375,-1.23155,0.208101,0,1.6363719798007117,3.39698,999,log_newX5.csv,0,False,0.844,-81.79671753800037,0.9581884257457717,1.2867534026867773,0.006200899999999995,-0.0010892000000000124,-0.0019980000000000553,-0.00732900000000003,0.005438999999999999,-0.001898999999999984,0.022119,-0.0009889999999999621,0.18108999999999997,-0.00627000000000022,-0.04777200000000001,-6.30000000000075e-05,0.8037833593857897,-0.1864868432435003,0.8021562028345013,-0.43854447652782236,0.0024926625723180607,0.007039393690259521,-0.18664777613893535,0.006655760672768185,0.0024926625723180607,-0.18664777613893535,5,Swing,1.0
1777225952716,-0.0515816,-0.937678,0.173198,-0.288728,-1.05666,0.158265,0,2.0308049451762544,4.29309,999,log_newX5.csv,0,False,0.858,-81.18566763179524,0.9549336313831239,1.1067709897756626,0.011978800000000005,0.005777900000000009,0.0027690000000000214,0.004767000000000077,0.0010219999999999951,-0.004417000000000004,0.020647000000000026,-0.0014719999999999733,0.17489,-0.006199999999999983,-0.04983600000000002,-0.0020640000000000103,0.6110499062051247,-0.19273345318066504,0.39443296537554273,-0.40772323745895855,-0.0032547943626477505,-0.005747456934965811,-0.17998241291111472,0.006665363227820631,-0.0032547943626477505,-0.17998241291111472,5,Swing,1.0
1777225952730,-0.0124521,-0.935628,0.17534,-0.260213,-0.910601,0.107625,0,1.6846385835879032,3.46757,999,log_newX5.csv,0,False,0.872,-80.69939082565843,0.9519973344387106,0.9531464353366695,0.0391295,0.027150699999999993,0.0020499999999999963,-0.0007190000000000252,0.002142000000000005,0.0011200000000000099,0.028514999999999957,0.00786799999999993,0.14605899999999994,-0.02883100000000005,-0.05063999999999999,-0.0008039999999999714,0.48627680613681434,-0.12477310006831033,-0.34616636158835123,-0.740599326963894,-0.0029362969444133302,0.00031849741823442024,-0.15362455443899303,0.026357858472121687,-0.0029362969444133302,-0.15362455443899303,5,Swing,1.0
1777225952743,0.0435908,-0.944142,0.176299,-0.234528,-0.811289,0.0707689,0,0.5274945072043868,3.40189,999,log_newX5.csv,0,False,0.885,-80.35456790049338,0.9614497446094831,0.8474676757919501,0.0560429,0.016913400000000002,-0.008514000000000022,-0.010564000000000018,0.0009590000000000154,-0.0011829999999999896,0.02568500000000004,-0.002829999999999916,0.09931199999999996,-0.04674699999999998,-0.0368561,0.013783899999999988,0.3448229251650474,-0.14145388097176692,-1.1571440763835164,-0.8109777147951651,0.009452410170772474,0.012388707115185804,-0.10567875954471939,0.04794579489427364,0.009452410170772474,-0.10567875954471939,5,Swing,1.0
1777225952757,0.104506,-0.955106,0.174075,-0.216445,-0.760311,0.0584525,0,-1.2748361444958414,3.48196,999,log_newX5.csv,0,False,0.899,-80.16984463848418,0.9764481967298624,0.7926777084681075,0.0609152,0.004872300000000003,-0.010963999999999974,-0.002449999999999952,-0.0022240000000000038,-0.003183000000000019,0.018082999999999988,-0.007602000000000053,0.05097800000000008,-0.04833399999999988,-0.012316399999999998,0.024539700000000005,0.18472326200920008,-0.16009966315584734,-1.8023306517002282,-0.6451865753167119,0.014998452120379313,0.005546041949606839,-0.05478996732384267,0.05088879222087672,0.014998452120379313,-0.05478996732384267,5,Swing,1.0
1777225952770,0.156751,-0.960379,0.170021,-0.204481,-0.752677,0.061942,0,-3.3970717779286295,3.36661,999,log_newX5.csv,0,False,0.912,-80.11332776273812,0.9878288516149951,0.782414185105306,0.052245,-0.008670200000000003,-0.005272999999999972,0.005691000000000002,-0.004054000000000002,-0.0018299999999999983,0.011964000000000002,-0.0061189999999999856,0.007633999999999919,-0.04334400000000016,0.0034894999999999995,0.015805899999999998,0.05651687574605546,-0.12820638626314462,-2.122235633432788,-0.31990498173255966,0.011380654885132735,-0.003617797235246578,-0.010263523362801452,0.04452644396104122,0.011380654885132735,-0.010263523362801452,5,Swing,1.0
1777225952784,0.189982,-0.965407,0.165086,-0.194688,-0.773923,0.0712621,0,-5.444988375372757,3.45818,999,log_newX5.csv,0,False,0.926,-80.1627309038889,0.9976759109896359,0.8012106553019687,0.03323100000000001,-0.01901399999999999,-0.0050280000000000324,0.0002449999999999397,-0.004934999999999995,-0.0008809999999999929,0.009792999999999996,-0.0021710000000000063,-0.021245999999999987,-0.028879999999999906,0.009320099999999998,0.005830599999999998,-0.049403141150776264,-0.10592001689683173,-2.047916597444128,0.07431903598866008,0.00984705937464081,-0.0015335955104919252,0.01879647019666264,0.029059993559464092,0.00984705937464081,0.01879647019666264,5,Swing,1.0
1777225952798,0.204937,-0.967874,0.158742,-0.19098,-0.806869,0.0827184,0,-7.162379988605639,3.38878,999,log_newX5.csv,0,False,0.94,-80.30403757999073,1.0019871637945268,0.8332786312270104,0.014954999999999996,-0.018276000000000014,-0.002466999999999997,0.0025610000000000355,-0.006344000000000016,-0.0014090000000000213,0.003707999999999989,-0.006085000000000007,-0.03294599999999992,-0.011699999999999933,0.011456300000000003,0.0021362000000000048,-0.14130667610183423,-0.09190353495105796,-1.7173916132328815,0.3305249842112463,0.004311252804890864,-0.005535806569749946,0.032067975925041736,0.013271505728379096,0.004311252804890864,0.032067975925041736,5,Swing,1.0
1777225952813,0.20769,-0.96548,0.150113,-0.188578,-0.841221,0.0929269,0,-8.46937207113799,4.53241,999,log_newX5.csv,0,False,0.955,-80.53593016787136,0.9989097453068521,0.8670927526329637,0.0027530000000000054,-0.01220199999999999,0.0023940000000000072,0.004861000000000004,-0.008628999999999998,-0.0022849999999999815,0.0024020000000000152,-0.0013059999999999738,-0.03435200000000005,-0.0014060000000001294,0.01020850000000001,-0.0012477999999999934,-0.2318925878806226,-0.09058591177878839,-1.3069920825323509,0.4103995307005306,-0.0030774184876747324,-0.007388671292565596,0.0338141214059533,0.001746145480911565,-0.0030774184876747324,0.0338141214059533,5,Swing,1.0
1777225952826,0.202134,-0.959959,0.139501,-0.183713,-0.866628,0.0984696,0,-9.361235442850553,3.3745,999,log_newX5.csv,0,False,0.968,-80.85896688001769,0.990878380346448,0.8913421446768687,-0.005556000000000005,-0.00830900000000001,0.005520999999999998,0.003126999999999991,-0.01061200000000001,-0.0019830000000000125,0.004865000000000008,0.002462999999999993,-0.025406999999999957,0.008945000000000092,0.005542699999999998,-0.004665800000000012,-0.3230367121463331,-0.0911441242657105,-0.8918633717125637,0.4151287108197872,-0.00803136496040402,-0.004953946472729287,0.02424939204390497,-0.00956472936204833,-0.00803136496040402,0.02424939204390497,5,Swing,1.0
1777225952841,0.199079,-0.953332,0.127199,-0.176542,-0.883869,0.0951369,0,-9.991583539663784,4.17322,999,log_newX5.csv,0,False,0.983,-81.27532877298194,0.9821679775201388,0.9063346604133652,-0.003055000000000002,0.0025010000000000032,0.0066270000000000495,0.0011060000000000514,-0.01230199999999998,-0.0016899999999999693,0.007170999999999983,0.0023059999999999747,-0.017241000000000062,0.008165999999999896,-0.003332700000000008,-0.008875400000000006,-0.41636189296424675,-0.09332518081791363,-0.6303480968132309,0.2615152748993328,-0.008710402826309194,-0.0006790378659051743,0.014992515736496514,-0.009256876307408457,-0.008710402826309194,0.014992515736496514,5,Swing,1.0
1777225952854,0.198294,-0.952501,0.1087,-0.168467,-0.894446,0.0832248,0,-10.449410319764919,3.44394,999,log_newX5.csv,0,False,0.996,-81.87351059605743,0.9789761771549909,0.9139699909406436,-0.0007850000000000079,0.0022699999999999942,0.0008309999999999151,-0.005796000000000134,-0.018499,-0.006197000000000022,0.008074999999999999,0.0009040000000000159,-0.010576999999999948,0.006664000000000114,-0.011912099999999995,-0.008579399999999987,-0.5981818230754925,-0.18181993011124575,-0.45782678010113464,0.17252131671209625,-0.00319180036514799,0.005518602461161204,0.007635330527278383,-0.007357185209218131,-0.00319180036514799,0.007635330527278383,5,Swing,1.0
1777225952868,0.203724,-0.951232,0.0822474,-0.16175,-0.902076,0.0667586,0,-10.880393076194048,3.427,999,log_newX5.csv,0,False,1.01,-82.73389138562676,0.976273742762121,0.9188911159380964,0.00542999999999999,0.006214999999999998,0.0012690000000000756,0.0004380000000001605,-0.026452600000000007,-0.007953600000000005,0.006717000000000001,-0.001357999999999998,-0.007630000000000026,0.002946999999999922,-0.0164662,-0.004554100000000005,-0.8603807895693336,-0.2621989664938411,-0.4309827564291293,0.026844023672005335,-0.002702434392869879,0.0004893659722781107,0.004921124997452786,-0.0027142055298255974,-0.002702434392869879,0.004921124997452786,5,Swing,1.0
1777225952881,0.215259,-0.948393,0.0533289,-0.148405,-0.917824,0.0475914,0,-11.390448003962664,3.46359,999,log_newX5.csv,0,False,1.023,-83.82740542746295,0.9739762271766237,0.9309618039183777,0.011535000000000017,0.006105000000000027,0.002838999999999925,0.0015699999999998493,-0.0289185,-0.002465899999999993,0.013344999999999996,0.006627999999999995,-0.015747999999999984,-0.008117999999999959,-0.019167200000000002,-0.002701000000000002,-1.0935140418361868,-0.23313325226685322,-0.5100549277686159,-0.07907217133948663,-0.0022975155854972895,0.00040491880737258956,0.012070687980281325,0.007149562982828539,-0.0022975155854972895,0.012070687980281325,5,Swing,1.0
1777225952895,0.220255,-0.955933,0.0221085,-0.13516,-0.944281,0.0301811,0,-11.81761563126125,3.38157,999,log_newX5.csv,0,False,1.037,-85.13704522322783,0.9812282870393872,0.9543823821499483,0.0049960000000000004,-0.006539000000000017,-0.007539999999999991,-0.010378999999999916,-0.0312204,-0.002301899999999999,0.013245000000000007,-9.999999999998899e-05,-0.026457000000000064,-0.01070900000000008,-0.0174103,0.0017569000000000022,-1.3096397957648804,-0.2161257539286936,-0.4271676272985854,0.08288730047003057,0.00725205986276356,0.00954957544826085,0.02342057823157062,0.011349890251289296,0.00725205986276356,0.02342057823157062,5,Swing,1.0
1777225952909,0.214974,-0.968432,-0.00715326,-0.129414,-0.982384,0.0167794,0,-12.006108514588506,4.45839,999,log_newX5.csv,0,False,1.051,-86.56513381413347,0.9920310118280715,0.9910135494110865,-0.005281000000000008,-0.010277000000000008,-0.012498999999999927,-0.004958999999999936,-0.029261759999999998,0.001958640000000001,0.005746000000000001,-0.007499000000000006,-0.038103,-0.011645999999999934,-0.013401699999999999,0.004008600000000001,-1.428088590905645,-0.11844879514076467,-0.18849288332725678,0.2386747439713286,0.01080272478868427,0.00355066492592071,0.03663116726113824,0.013210589029567621,0.01080272478868427,0.03663116726113824,5,Swing,1.0
1777225952923,0.196233,-0.981246,-0.038543,-0.131764,-1.02566,0.0116801,0,-11.81549291469303,3.38939,999,log_newX5.csv,0,False,1.065,-88.10077412403746,1.001417328417079,1.034155023210742,-0.018741000000000008,-0.01346,-0.012813999999999992,-0.00031500000000006523,-0.03138974,-0.0021279800000000015,-0.002349999999999991,-0.008095999999999992,-0.04327599999999998,-0.005172999999999983,-0.005099299999999999,0.0083024,-1.5356403099039824,-0.10755171899833726,0.1906155998954766,0.3791084832227334,0.00938631658900757,-0.0014164081996766997,0.04314147379965538,0.006510306538517141,0.00938631658900757,0.04314147379965538,5,Swing,1.0
1777225952938,0.166803,-0.987127,-0.0657642,-0.136622,-1.06519,0.015942,0,-11.208944677007674,4.56243,999,log_newX5.csv,0,False,1.08,-89.64356673961927,1.0032785679658665,1.074034196079436,-0.029429999999999984,-0.010688999999999976,-0.005881000000000025,0.006932999999999967,-0.027221199999999994,0.004168540000000005,-0.004858000000000001,-0.0025080000000000102,-0.039530000000000065,0.003745999999999916,0.004261900000000001,0.0093612,-1.542792615581817,-0.007152305677834647,0.6065482376853559,0.4159326377898793,0.0018612395487873634,-0.007525077040220207,0.039879172868694024,-0.0032623009309613593,0.0018612395487873634,0.039879172868694024,5,Swing,1.0
1777225952951,0.134721,-0.995226,-0.0900096,-0.147453,-1.09636,0.0230942,0,-10.255078410186567,3.422,999,log_newX5.csv,0,False,1.093,-91.13598586742756,1.0083284519486495,1.1064723127501384,-0.032082,-0.0026520000000000155,-0.008099000000000078,-0.0022180000000000533,-0.0242454,0.0029757999999999937,-0.010831000000000007,-0.005973000000000006,-0.03116999999999992,0.008360000000000145,0.0071521999999999974,0.0028902999999999967,-1.4924191278082901,0.050373487773526904,0.9538662668211071,0.34731802913575116,0.005049883982783054,0.003188644433995691,0.0324381166707024,-0.0074410561979916245,0.005049883982783054,0.0324381166707024,5,Swing,1.0
1777225952966,0.10944,-0.999715,-0.10498,-0.166503,-1.11888,0.0283673,0,-9.163211732522477,4.33589,999,log_newX5.csv,0,False,1.108,-92.4485856685699,1.011151816111211,1.1315566300978004,-0.025281000000000012,0.006800999999999988,-0.004488999999999965,0.003610000000000113,-0.014970400000000009,0.009274999999999992,-0.01905000000000001,-0.008219000000000004,-0.022520000000000095,0.008649999999999824,0.005273100000000003,-0.0018790999999999947,-1.3125998011423405,0.17981932666594957,1.0918666776640897,0.13800041084298265,0.002823364162561459,-0.0022265198202215952,0.025084317347662033,-0.007353799323040366,0.002823364162561459,0.025084317347662033,5,Swing,1.0
1777225952979,0.0881339,-1.00149,-0.113248,-0.191373,-1.13438,0.0364766,0,-8.037830716575064,3.48344,999,log_newX5.csv,0,False,1.121,-93.53001761624775,1.0117187919245199,1.1509874681666,-0.021306099999999994,0.003974900000000017,-0.001774999999999971,0.002713999999999994,-0.008267999999999998,0.006702400000000011,-0.024869999999999975,-0.005819999999999964,-0.015499999999999847,0.007020000000000248,0.008109299999999996,0.0028361999999999936,-1.0814319476778422,0.2311678534644983,1.1253810159474131,0.0335143382833234,0.0005669758133088898,-0.0022563883492525694,0.019430838068799527,-0.0056534792788625055,0.0005669758133088898,0.019430838068799527,5,Swing,1.0
1777225952993,0.0664826,-0.992318,-0.112705,-0.218524,-1.14022,0.0481198,0,-6.8952560895327455,3.36509,999,log_newX5.csv,0,False,1.135,-94.32690456634592,1.000908270648095,1.16196811579666,-0.0216513,-0.00034520000000000384,0.009171999999999958,0.010946999999999929,0.0005430000000000018,0.008811,-0.02715100000000001,-0.002281000000000033,-0.005840000000000067,0.00965999999999978,0.0116432,0.003533900000000003,-0.7968869500981697,0.28454499757967255,1.1425746270423183,0.017193611094905137,-0.0108105212764249,-0.01137749708973379,0.010980647630060014,-0.008450190438739513,-0.0108105212764249,0.010980647630060014,5,Swing,1.0
1777225953006,0.0398989,-0.971808,-0.0981754,-0.23181,-1.13169,0.0554433,0,-5.664393861826621,3.48045,999,log_newX5.csv,0,False,1.148,-94.716400022934,0.9775689849061139,1.1565172249970557,-0.026583700000000002,-0.0049324000000000034,0.020510000000000028,0.01133800000000007,0.014529600000000004,0.013986600000000002,-0.013285999999999992,0.013865000000000016,0.008529999999999927,0.014369999999999994,0.007323500000000004,-0.004319699999999996,-0.3894954565880795,0.4073914935100902,1.2308622277061243,0.08828760066380603,-0.023339285741981075,-0.012528764465556175,-0.005450890799604258,-0.016431538429664272,-0.023339285741981075,-0.005450890799604258,5,Swing,1.0
1777225953020,-0.00338548,-0.942997,-0.0626861,-0.218862,-1.09276,0.058442,0,-4.078674375666814,3.38514,999,log_newX5.csv,0,False,1.162,-94.46968370475913,0.9450843087349617,1.1159930376162746,-0.043284380000000004,-0.016700680000000002,0.02881100000000003,0.008301000000000003,0.0354893,0.020959699999999998,0.012947999999999987,0.02623399999999998,0.03893000000000013,0.030400000000000205,0.0029987,-0.004324800000000004,0.24671631817486173,0.6362117747629412,1.5857194861598076,0.3548572584536833,-0.03248467617115214,-0.009145390429171063,-0.04052418738078112,-0.03507329658117686,-0.03248467617115214,-0.04052418738078112,5,Swing,1.0
1777225953034,-0.0554433,-0.917147,-0.00327302,-0.187487,-1.00917,0.0507373,0,-2.0422145696698792,3.51926,999,log_newX5.csv,0,False,1.176,-93.3174098420648,0.9188271283455939,1.0276914603519336,-0.05205782,-0.008773439999999993,0.02584999999999993,-0.0029610000000001024,0.05941307999999999,0.02392377999999999,0.031375000000000014,0.018427000000000027,0.08359000000000005,0.04465999999999992,-0.007704700000000002,-0.010703400000000002,1.1522738626943294,0.9055575445194677,2.0364598059969343,0.4507403198371267,-0.026257180389367862,0.006227495781784276,-0.08830157726434096,-0.04777738988355984,-0.026257180389367862,-0.08830157726434096,5,Swing,1.0
1777225953047,-0.101606,-0.889588,0.0592815,-0.146926,-0.8845,0.0274592,0,0.26595393531578404,3.40716,999,log_newX5.csv,0,False,1.189,-91.39121706107193,0.8973320930526502,0.8970404155558656,-0.0461627,0.005895119999999997,0.027559,0.0017090000000000716,0.06255452,0.0031414400000000092,0.040560999999999986,0.009185999999999972,0.12466999999999995,0.041079999999999894,-0.0232781,-0.015573399999999998,1.9261927809928778,0.7739189182985484,2.3081685049856633,0.27170869898872896,-0.02149503529294372,0.004762145096424142,-0.13065104479606804,-0.04234946753172708,-0.02149503529294372,-0.13065104479606804,5,Swing,1.0
1777225953061,-0.123702,-0.90774,0.0503115,-0.125225,-0.742032,-0.0189621,0,2.287387584671576,4.24035,999,log_newX5.csv,0,False,1.203,-90.15833473319464,0.9175104029035583,0.752763143947291,-0.022096000000000005,0.024066699999999996,-0.018151999999999946,-0.045710999999999946,-0.008969999999999999,-0.07152452000000001,0.021700999999999998,-0.018859999999999988,0.14246799999999993,0.01779799999999998,-0.0464213,-0.0231432,1.2328823278772916,-0.6933104531155863,2.021433649355792,-0.28673485562987144,0.020178309850908183,0.0416733451438519,-0.1442772716085745,-0.01362622681250647,0.020178309850908183,-0.1442772716085745,5,Swing,1.0
1777225953075,-0.11078,-0.913206,0.0127649,-0.111059,-0.622101,-0.0618323,0,3.537841859227329,3.46956,999,log_newX5.csv,0,False,1.217,-89.89920908911041,0.9199893203228013,0.6349543204083976,0.012922000000000003,0.03501800000000001,-0.005465999999999971,0.012685999999999975,-0.0375466,-0.0285766,0.014165999999999998,-0.007535,0.11993100000000001,-0.022536999999999918,-0.0428702,0.0035511000000000015,0.25912564408422156,-0.97375668379307,1.2504542745557532,-0.7709793748000386,0.0024789174192429986,-0.017699392431665184,-0.11780882353889344,0.026468448069681072,0.0024789174192429986,-0.11780882353889344,5,Swing,1.0
1777225953089,-0.0942835,-0.92326,-0.0325739,-0.0809333,-0.530313,-0.0718577,0,4.156337804285521,3.43575,999,log_newX5.csv,0,False,1.231,-90.47232597583735,0.928633116431597,0.5412444974936743,0.016496499999999997,0.0035744999999999943,-0.010054000000000007,-0.0045880000000000365,-0.0453388,-0.007792199999999999,0.030125700000000005,0.015959700000000007,0.09178799999999998,-0.02814300000000003,-0.010025399999999997,0.0328448,-0.5731168867269361,-0.8322425308111576,0.6184959450581915,-0.6319583294975617,0.00864379610879562,0.006164878689552622,-0.0937098229147233,0.02409900062417014,0.00864379610879562,-0.0937098229147233,5,Swing,1.0
1777225953103,-0.0780309,-0.951356,-0.076024,-0.0589329,-0.459714,-0.0623624,0,4.296217437343237,3.48204,999,log_newX5.csv,0,False,1.245,-91.5790316400279,0.9575733437532656,0.4676527744301,0.016252600000000006,-0.00024389999999999135,-0.02809600000000001,-0.018042000000000002,-0.04345009999999999,0.001888700000000007,0.022000399999999996,-0.008125300000000009,0.07059900000000002,-0.021188999999999958,0.009495299999999998,0.019520699999999995,-1.1067056641905566,-0.5335887774636205,0.1398796330577161,-0.4786163120004754,0.028940227321668677,0.020296431212873056,-0.07359172306357431,0.020118099851148985,0.028940227321668677,-0.07359172306357431,5,Swing,0.8865945317514958
1777225953117,-0.0589335,-0.974656,-0.0988531,-0.0487927,-0.406046,-0.060531,0,4.0656106910122345,3.37653,999,log_newX5.csv,0,False,1.259,-92.71701269566947,0.9814272317079142,0.4134224034208717,0.0190974,0.0028447999999999946,-0.023299999999999987,0.0047960000000000225,-0.022829100000000005,0.020620999999999987,0.010140200000000002,-0.011860199999999994,0.053667999999999993,-0.01693100000000003,0.001831399999999997,-0.007663900000000001,-1.1379810556415606,-0.031275391451004,-0.2306067463310022,-0.3704863793887183,0.0238538879546486,-0.005086339367020076,-0.054230371009228284,0.019361352054346026,0.0238538879546486,-0.054230371009228284,5,Swing,0.8865945317514958
1777225953130,-0.0394249,-0.982339,-0.0894622,-0.03477,-0.357749,-0.0661041,0,3.585593312831649,3.47723,999,log_newX5.csv,0,False,1.272,-93.38878148238938,0.9871918348982887,0.36546279145462945,0.0195086,0.00041120000000000045,-0.007682999999999995,0.015616999999999992,0.009390899999999994,0.03222,0.014022699999999999,0.003882499999999997,0.048297000000000034,-0.005370999999999959,-0.0055730999999999975,-0.007404499999999994,-0.6717687867199089,0.4662122689216517,-0.48001737818058565,-0.24941063184958345,0.005764603190374418,-0.018089284764274183,-0.047959611966242266,0.006270759042986018,0.005764603190374418,-0.047959611966242266,5,Swing,0.8865945317514958
1777225953144,-0.0214255,-0.987337,-0.0703382,-0.0173338,-0.31348,-0.0755956,0,2.9519162566438784,3.4054,999,log_newX5.csv,0,False,1.286,-93.57413665140062,0.9900711418875363,0.32293167351902785,0.0179994,-0.0015092000000000022,-0.004998000000000058,0.0026849999999999374,0.019124000000000002,0.009733100000000008,0.017436200000000002,0.0034135000000000033,0.044269,-0.0040280000000000316,-0.0094915,-0.0039184000000000024,-0.18535516901124538,0.48641361770866354,-0.6336770561877705,-0.15365967800718483,0.002879306989247654,-0.0028852962011267635,-0.0425311179356016,0.005428494030640663,0.002879306989247654,-0.0425311179356016,5,Swing,0.8865945317514958
1777225953157,-0.0175083,-1.01046,-0.0661204,-0.0108189,-0.276653,-0.0829455,0,2.4220409801178215,3.41525,999,log_newX5.csv,0,False,1.299,-93.61999001083214,1.0127723631029086,0.28902229494705073,0.003917199999999999,-0.0140822,-0.023122999999999894,-0.018124999999999836,0.004217800000000008,-0.014906199999999994,0.0065149000000000006,-0.010921300000000002,0.036827,-0.007442000000000004,-0.007349900000000006,0.0021415999999999935,-0.04585335943151847,0.1395018095797269,-0.5298752765260568,0.10380177966171367,0.022701221215372325,0.01982191422612467,-0.03390937857197712,0.008621739363624481,0.022701221215372325,-0.03390937857197712,5,Swing,0.8865945317514958
1777225953171,-0.0211529,-1.04074,-0.072528,-0.0234432,-0.239068,-0.0912332,0,2.081512132212372,3.47708,999,log_newX5.csv,0,False,1.313,-93.71898695314432,1.0434785592250613,0.25695639519669483,-0.003644599999999998,-0.007561799999999997,-0.030280000000000085,-0.007157000000000191,-0.006407599999999999,-0.010625400000000007,-0.012624300000000001,-0.019139200000000002,0.03758499999999998,0.0007579999999999809,-0.008287699999999995,-0.0009377999999999886,-0.09899694231218348,-0.05314358288066501,-0.34052884790544935,0.18934642862060747,0.03070619612215264,0.008004974906780316,-0.0320658997503559,0.001843478821621225,0.03070619612215264,-0.0320658997503559,5,Swing,0.8766230489177269
1777225953186,-0.023706,-1.06873,-0.0707562,-0.0451594,-0.200178,-0.105671,0,1.8617155068484235,4.58384,999,log_newX5.csv,0,False,1.328,-93.73757430193692,1.0713319873757339,0.2308180307804397,-0.0025531000000000026,0.0010914999999999953,-0.02798999999999996,0.0022900000000001253,0.00177179999999999,0.00817939999999999,-0.0217162,-0.0090919,0.03889000000000001,0.0013050000000000284,-0.0144378,-0.0061501000000000056,-0.01858734879259316,0.08040959351959032,-0.21979662536394873,0.12073222254150062,0.0278534281506726,-0.0028527679714800414,-0.02613836441625514,0.005927535334100759,0.0278534281506726,-0.02613836441625514,5,Swing,0.8766230489177269
1777225953200,-0.0203569,-1.09577,-0.0653894,-0.0742486,-0.16296,-0.119421,0,1.6457788507433242,3.47697,999,log_newX5.csv,0,False,1.342,-93.65043979548062,1.0979080425563745,0.21524449224767633,0.0033491000000000007,0.005902200000000003,-0.027039999999999953,0.0009500000000000064,0.005366800000000005,0.003595000000000015,-0.029089199999999996,-0.007372999999999994,0.037218,-0.0016720000000000068,-0.013749999999999998,0.0006878000000000023,0.0871345064562945,0.10572185524888766,-0.21593665610509927,0.0038599692588494605,0.026576055180640656,-0.0012773729700319425,-0.015573538532763359,0.01056482588349178,0.026576055180640656,-0.015573538532763359,5,Swing,0.8766230489177269
1777225953215,-0.0131382,-1.13279,-0.0590248,-0.112485,-0.128688,-0.134581,0,1.3804348798399317,4.21515,999,log_newX5.csv,0,False,1.357,-93.47005613337217,1.134402804745422,0.21754429923581084,0.0072187000000000015,0.003869600000000001,-0.03702000000000005,-0.0099800000000001,0.006364599999999998,0.0009977999999999931,-0.038236400000000004,-0.009147200000000008,0.034272,-0.002946000000000004,-0.015160000000000007,-0.0014100000000000085,0.18038366210845425,0.09324915565215974,-0.26534397090339246,-0.04940731479829319,0.03649476218904746,0.009918707008406802,0.0022998069881345062,0.017873345520897865,0.03649476218904746,0.0022998069881345062,5,Swing,0.8766230489177269
1777225953228,0.00014264,-1.17153,-0.050539,-0.172783,-0.10112,-0.156387,0,1.0056189457551084,3.47269,999,log_newX5.csv,0,False,1.37,-93.19993042083601,1.1726196108573188,0.2540395899421978,0.013280839999999999,0.006062139999999997,-0.03874,-0.0017199999999999438,0.008485800000000002,0.0021212000000000036,-0.06029799999999999,-0.022061599999999987,0.027567999999999995,-0.006704000000000002,-0.021805999999999992,-0.006645999999999985,0.27012571253615647,0.08974205042770222,-0.3748159340848234,-0.10947196318143093,0.03821680611189682,0.001722043922849359,0.036495290706386935,0.03419548371825243,0.03821680611189682,0.036495290706386935,5,Swing,0.8766230489177269
1777225953242,0.0192337,-1.20491,-0.0438471,-0.250818,-0.0793561,-0.181455,0,0.48704444166914507,3.3949,999,log_newX5.csv,0,False,1.384,-92.8984802792928,1.2058609420219646,0.3195825038330634,0.01909106,0.005810220000000001,-0.033379999999999965,0.005360000000000031,0.006691900000000001,-0.001793900000000001,-0.078035,-0.017737000000000003,0.021763900000000003,-0.005804099999999993,-0.025068000000000007,-0.003262000000000015,0.3014501415432136,0.03132442900705712,-0.5185745040859633,-0.1437585700011399,0.03324133116464578,-0.004975474947251035,0.06554291389086564,0.029047623184478705,0.03324133116464578,0.06554291389086564,5,Swing,0.8793878702354035
1777225953255,0.0427581,-1.23613,-0.0403212,-0.337577,-0.0670207,-0.201314,0,-0.1794525934022445,3.50065,999,log_newX5.csv,0,False,1.397,-92.62016063972983,1.2375263355521164,0.39871961546115336,0.0235244,0.004433340000000001,-0.031220000000000026,0.0021599999999999397,0.0035258999999999985,-0.003166000000000002,-0.08675900000000003,-0.008724000000000037,0.012335399999999996,-0.009428500000000006,-0.019858999999999988,0.005209000000000019,0.2783196395629659,-0.023130501980247686,-0.6664970350713896,-0.1479225309854263,0.03166539353015185,-0.001575937634493929,0.07913711162808995,0.013594197737224312,0.03166539353015185,0.07913711162808995,5,Swing,0.8793878702354035
1777225953269,0.0762442,-1.26418,-0.031662,-0.429406,-0.0698709,-0.217342,0,-1.0630968158738343,3.45501,999,log_newX5.csv,0,False,1.411,-92.29990124508531,1.2668728162991107,0.4863219103297835,0.0334861,0.009961699999999997,-0.02805000000000013,0.003169999999999895,0.008659199999999999,0.0051333,-0.091829,-0.005069999999999963,-0.002850199999999997,-0.015185599999999994,-0.016028000000000014,0.0038309999999999733,0.32025939464452335,0.04193975508155745,-0.8836442224715898,-0.21714718740020023,0.029346480746994308,-0.002318912783157545,0.08760229486863014,0.008465183240540186,0.029346480746994308,0.08760229486863014,5,Swing,0.8793878702354035
1777225953283,0.108503,-1.29522,-0.0219885,-0.526566,-0.0884548,-0.224986,0,-2.0693774356553325,3.48165,999,log_newX5.csv,0,False,1.425,-91.94132178955196,1.2999427847183314,0.5794089265752125,0.032258800000000004,-0.0012272999999999937,-0.031039999999999957,-0.002989999999999826,0.009673500000000002,0.0010143000000000027,-0.09715999999999997,-0.005330999999999975,-0.0185839,-0.015733700000000003,-0.007643999999999984,0.00838400000000003,0.358579455533345,0.03832006088882167,-1.0062806197814982,-0.12263639730990838,0.03306996841922061,0.0037234876722263,0.09308701624542898,0.00548472137679884,0.03306996841922061,0.09308701624542898,5,Swing,0.8793878702354035
1777225953296,0.140467,-1.32816,-0.00834566,-0.631451,-0.117834,-0.228036,0,-3.1412756462154565,3.41788,999,log_newX5.csv,0,False,1.438,-91.51412341820472,1.3355933564262126,0.6816271959458484,0.031964000000000006,-0.00029479999999999784,-0.03293999999999997,-0.0019000000000000128,0.013642840000000002,0.00396934,-0.104885,-0.007725000000000037,-0.029379199999999994,-0.010795299999999994,-0.003049999999999997,0.004593999999999987,0.42719837134724514,0.06861891581390012,-1.071898210560124,-0.06561759077862583,0.03565057170788122,0.00258060328866061,0.10221826937063594,0.009131253125206962,0.03565057170788122,0.10221826937063594,5,Swing,0.8793878702354035
1777225953310,0.166161,-1.36084,0.00793903,-0.743385,-0.155371,-0.227498,0,-4.173289936662168,3.45434,999,log_newX5.csv,0,False,1.452,-91.0147724713283,1.3709697340635718,0.7927904804360355,0.025693999999999995,-0.006270000000000012,-0.03268000000000004,0.00025999999999992696,0.016284689999999998,0.002641849999999996,-0.11193399999999998,-0.007048999999999972,-0.037537000000000015,-0.00815780000000002,0.0005379999999999829,0.00358799999999998,0.4993509468764188,0.07215257552917365,-1.0320142904467113,0.039883920113412685,0.035376377637359235,-0.0002741940705219825,0.11116328449018709,0.008945015119551147,0.035376377637359235,0.11116328449018709,5,Swing,0.88818168694721
1777225953323,0.178753,-1.39481,0.0284799,-0.861472,-0.198293,-0.224607,0,-5.01838824229585,3.46706,999,log_newX5.csv,0,False,1.465,-90.42461550930219,1.40650583923886,0.9120868517208216,0.012591999999999992,-0.013102000000000003,-0.033970000000000056,-0.0012900000000000134,0.02054087,0.004256180000000002,-0.11808700000000005,-0.006153000000000075,-0.04292199999999999,-0.005384999999999973,0.0028910000000000047,0.0023530000000000217,0.5901569620261142,0.09080601514969544,-0.845098305633682,0.1869159848130293,0.03553610517528827,0.00015972753792903305,0.1192963712847861,0.00813308679459901,0.03553610517528827,0.1192963712847861,5,Swing,0.88818168694721
1777225953337,0.171734,-1.42322,0.0559977,-0.986252,-0.246363,-0.218216,0,-5.519992790057431,3.87558,999,log_newX5.csv,0,False,1.479,-89.70119110449542,1.434637054296762,1.0397143636254143,-0.0070189999999999975,-0.01961099999999999,-0.028409999999999824,0.005560000000000231,0.0275178,0.006976929999999999,-0.12478,-0.006692999999999949,-0.04807,-0.005148000000000014,0.006391000000000008,0.003500000000000003,0.7234244048067637,0.1332674427806495,-0.5016045477615814,0.3434937578721007,0.028131215057901837,-0.007404890117386431,0.12762751190459265,0.008331140619806554,0.028131215057901837,0.12762751190459265,5,Swing,0.88818168694721
1777225953351,0.141737,-1.43678,0.0826561,-1.11538,-0.292186,-0.203488,0,-5.548281746783695,3.47797,999,log_newX5.csv,0,False,1.493,-88.8924205814612,1.4461183134295097,1.1708341339147916,-0.029996999999999996,-0.022978,-0.013560000000000016,0.014849999999999808,0.0266584,-0.0008593999999999997,-0.12912800000000002,-0.0043480000000000185,-0.045823,0.002246999999999999,0.014727999999999991,0.008336999999999983,0.8087705230342266,0.08534611822746285,-0.028288956726263415,0.47331559103531795,0.011481259132747779,-0.01664995592515406,0.13111977028937738,0.00349225838478473,0.011481259132747779,0.13111977028937738,5,Swing,0.88818168694721
1777225953365,0.0918209,-1.42684,0.100236,-1.24412,-0.322801,-0.180629,0,-5.041670642534333,3.63253,999,log_newX5.csv,0,False,1.507,-88.106031792146,1.433300638028467,1.2979452591084109,-0.049916100000000005,-0.01991910000000001,0.009939999999999838,0.023499999999999854,0.01757990000000001,-0.00907849999999999,-0.12873999999999985,0.000388000000000166,-0.030615000000000003,0.015208,0.02285899999999999,0.008131,0.7863887893151968,-0.02238173371902974,0.5066111042493615,0.5349000609756249,-0.012817675401042727,-0.024298934533790506,0.12711112519361922,-0.0040086450957581565,-0.012817675401042727,0.12711112519361922,5,Swing,0.88818168694721
1777225953378,0.0351959,-1.38552,0.102405,-1.36597,-0.334421,-0.163107,0,-4.071681565037167,3.46699,999,log_newX5.csv,0,False,1.52,-87.47572302063409,1.3897450146706085,1.415738443212587,-0.056624999999999995,-0.00670889999999999,0.04132000000000002,0.031380000000000186,0.0021689999999999904,-0.015410900000000019,-0.12185000000000001,0.006889999999999841,-0.01162000000000002,0.018994999999999984,0.01752200000000001,-0.005336999999999981,0.6303087715119062,-0.15608001780329062,0.969989077497166,0.4633779732478045,-0.04355562335785845,-0.030737947956815725,0.11779318410417616,-0.00931794108944306,-0.04355562335785845,0.11779318410417616,5,Swing,0.8888761758924997
1777225953392,-0.0117797,-1.31834,0.0988841,-1.4686,-0.325987,-0.166991,0,-2.833775496291117,3.38548,999,log_newX5.csv,0,False,1.534,-86.99883030271386,1.3220957537806786,1.5135849755629844,-0.046975600000000006,0.009649399999999989,0.06718000000000002,0.025859999999999994,-0.0035208999999999935,-0.005689899999999984,-0.10263,0.019220000000000015,0.008433999999999997,0.020054000000000016,-0.0038839999999999986,-0.02140600000000001,0.47689271792023646,-0.15341605359166977,1.2379060687460504,0.26791699124888435,-0.06764926088992995,-0.0240936375320715,0.09784653235039742,-0.019946651753778744,-0.06764926088992995,0.09784653235039742,5,Swing,0.8888761758924997
1777225953405,-0.036029,-1.23492,0.0249531,-1.5456,-0.312801,-0.20594,0,-1.6168366711360334,3.46545,999,log_newX5.csv,0,False,1.547,-87.49688880442045,1.2356974356373043,1.5903254727259448,-0.024249299999999998,0.02272630000000001,0.08342000000000005,0.016240000000000032,-0.073931,-0.0704101,-0.07700000000000018,0.02562999999999982,0.013186000000000031,0.004752000000000034,-0.03894900000000001,-0.03506500000000001,-0.4980585017065948,-0.9749512196268313,1.2169388251550834,-0.02096724359096691,-0.08639831814337429,-0.018749057253444334,0.07674049716296039,-0.021106035187437033,-0.08639831814337429,0.07674049716296039,5,Swing,0.8888761758924997
1777225953419,-0.0139408,-1.08339,-0.0763939,-1.56766,-0.304599,-0.262775,0,-0.9813648609512874,3.43597,999,log_newX5.csv,0,False,1.561,-89.26278533466936,1.0861695383142773,1.6184526953315626,0.0220882,0.0463375,0.15152999999999994,0.06810999999999989,-0.10134699999999999,-0.027415999999999996,-0.02205999999999997,0.05494000000000021,0.008201999999999987,-0.004984000000000044,-0.05683499999999997,-0.017885999999999957,-1.7658965302489094,-1.2678380285423145,0.635471810184746,-0.5814670149703375,-0.14952789732302696,-0.06312957917965267,0.02812722260561773,-0.048613274557342656,-0.14952789732302696,0.02812722260561773,5,Swing,0.8888761758924997
1777225953433,0.0151776,-0.982222,-0.214187,-1.48174,-0.331059,-0.281345,0,-0.9499169923102215,3.83555,999,log_newX5.csv,0,False,1.575,-92.78529064108196,1.0054185634822743,1.5441206229132491,0.0291184,0.0070302,0.10116800000000004,-0.05036199999999991,-0.1377931,-0.03644610000000001,0.08592,0.10797999999999996,-0.026459999999999984,-0.03466199999999997,-0.01857000000000003,0.03826499999999994,-3.5225053064125973,-1.756608776163688,0.03144786864106586,-0.6040239415436801,-0.080750974832003,0.06877692249102396,-0.07433207241831341,-0.10245929502393114,-0.080750974832003,-0.07433207241831341,5,Swing,0.8888761758924997
1777225953450,0.0120194,-0.938849,-0.265137,-1.34245,-0.359419,-0.21962,0,-0.8839864828288267,3.45162,999,log_newX5.csv,0,False,1.592,-96.29319626566542,0.9756431414950654,1.4069779545042629,-0.0031582,-0.0322766,0.043372999999999995,-0.05779500000000004,-0.05095000000000002,0.08684309999999998,0.13929000000000014,0.05337000000000014,-0.028359999999999996,-0.0019000000000000128,0.061725,0.08029500000000003,-3.507905624583458,0.0145996818291394,0.06593050948139478,0.034482640840328926,-0.02977542198720895,0.05097555284479405,-0.13714266840898626,-0.06281059599067285,-0.02977542198720895,-0.13714266840898626,5,Swing,0.8944847282324584
1777225953463,-0.0263686,-0.876001,-0.297984,-1.21925,-0.35673,-0.132075,0,-0.20418424378409672,3.43193,999,log_newX5.csv,0,False,1.605,-99.66832782358316,0.9256713884111143,1.2772120657999595,-0.038388,-0.0352298,0.06284800000000001,0.01947500000000002,-0.032847000000000015,0.018103000000000008,0.12319999999999998,-0.01609000000000016,0.002688999999999997,0.031048999999999993,0.08754500000000001,0.02582000000000001,-3.37513155791774,0.13277406666571778,0.67980223904473,0.6138717295633352,-0.049971753083951076,-0.020196331096742126,-0.1297658887043034,0.007376779704682868,-0.049971753083951076,-0.1297658887043034,5,Swing,0.8944847282324584
1777225953477,-0.0901002,-0.771054,-0.267018,-1.06615,-0.321753,-0.0742356,0,1.5532464281871063,3.50704,999,log_newX5.csv,0,False,1.619,-102.21665044937124,0.8209390533285891,1.1161145728895219,-0.0637316,-0.0253436,0.10494700000000001,0.042099,0.03096600000000005,0.06381300000000006,0.1531,0.029900000000000038,0.03497699999999998,0.03228799999999998,0.0578394,-0.029705600000000013,-2.5483226257880887,0.8268089321296515,1.757430671971203,1.077628432926473,-0.10473233508252522,-0.05476058199857414,-0.16109749291043762,-0.031331604206134234,-0.10473233508252522,-0.16109749291043762,5,Swing,0.8944847282324584
1777225953490,-0.154377,-0.656162,-0.220861,-0.859567,-0.21015,-0.0702854,0,4.529539862433999,3.41806,999,log_newX5.csv,0,False,1.632,-103.94195909591511,0.7093380080709055,0.8876702582840995,-0.06427679999999998,-0.0005451999999999818,0.114892,0.009944999999999982,0.046156999999999976,0.015190999999999927,0.20658299999999996,0.05348299999999995,0.11160300000000001,0.07662600000000003,0.003950200000000001,-0.0538892,-1.7253086465438656,0.823013979244223,2.9762934342468923,1.2188627622756893,-0.11160104525768355,-0.006868710175158332,-0.22844431460542236,-0.06734682169498474,-0.11160104525768355,-0.22844431460542236,5,Swing,0.8944847282324584
1777225953504,-0.173959,-0.566029,-0.140733,-0.650034,-0.0998073,-0.119004,0,7.79242457062576,3.50595,999,log_newX5.csv,0,False,1.646,-103.94749677500894,0.608651246454815,0.6683319910832415,-0.019582000000000016,0.044694799999999965,0.09013300000000002,-0.024758999999999975,0.080128,0.03397100000000003,0.20953299999999997,0.002950000000000008,0.1103427,-0.0012603000000000059,-0.0487186,-0.0526688,-0.005537679093833958,1.7197709674500317,3.262884708191762,0.2865912739448695,-0.10068676161609047,0.010914283641593081,-0.21933826720085803,0.009106047404564332,-0.10068676161609047,-0.21933826720085803,5,Swing,0.8944847282324584
1777225953518,-0.171818,-0.485907,-0.0962901,-0.413743,0.036929,-0.152758,0,10.855205552578907,3.4161,999,log_newX5.csv,0,False,1.66,-103.20763201281505,0.5243079449436275,0.44258561618516257,0.002141000000000004,0.02172300000000002,0.08012200000000003,-0.010010999999999992,0.044442899999999994,-0.03568510000000001,0.23629099999999997,0.026758000000000004,0.1367363,0.026393600000000003,-0.033754000000000006,0.014964599999999995,0.7398647621938892,0.7454024412877231,3.0627809819531464,-0.2001037262386154,-0.08434330151118752,0.01634346010490295,-0.22574637489807892,-0.006408107697220888,-0.08434330151118752,-0.22574637489807892,5,Swing,1.0
1777225953531,-0.148727,-0.448547,-0.0654889,-0.152203,0.13599,-0.139881,0,12.829852626053697,3.44934,999,log_newX5.csv,0,False,1.673,-101.8835945259602,0.47707748611856543,0.24743833064018195,0.023091,0.020949999999999996,0.037360000000000004,-0.04276200000000002,0.0308012,-0.013641699999999993,0.26154,0.02524900000000002,0.09906100000000001,-0.037675299999999995,0.012877,0.046631000000000006,1.3240374868548486,0.5841727246609594,1.9746470734747898,-1.0881339084783566,-0.047230458825062105,0.037112842686125413,-0.19514728554498062,0.030599089353098297,-0.047230458825062105,-0.19514728554498062,5,Swing,1.0
1777225953545,-0.103263,-0.423799,-0.0379423,0.0818791,0.182689,-0.128565,0,13.049085169240175,3.5088,999,log_newX5.csv,0,False,1.687,-100.0552851678762,0.43784524400670377,0.23792523397657928,0.045464000000000004,0.022373000000000004,0.024747999999999992,-0.012612000000000012,0.027546600000000004,-0.0032545999999999964,0.23408210000000002,-0.02745789999999998,0.04669899999999999,-0.05236200000000002,0.011315999999999993,-0.0015610000000000068,1.8283093580839989,0.5042718712291503,0.21923254318647878,-1.755414530288311,-0.03923224211186166,0.007998216713200446,-0.009513096663602671,0.18563418888137795,-0.03923224211186166,-0.009513096663602671,5,Swing,1.0
1777225953558,-0.068808,-0.384972,-0.0105833,0.332469,0.187954,-0.0880151,0,12.260478906108084,3.52496,999,log_newX5.csv,0,False,1.7,-97.76420965029794,0.39121603735901467,0.39192984053910723,0.034455,-0.011009000000000005,0.038827,0.014079000000000008,0.027358999999999998,-0.0001876000000000065,0.25058990000000003,0.016507800000000017,0.00526500000000002,-0.04143399999999997,0.040549900000000014,0.02923390000000002,2.291075517578264,0.46276615949426514,-0.7886062631320918,-1.0078388063185706,-0.0466292066476891,-0.007396964535827444,0.15400460656252796,0.16351770322613063,-0.0466292066476891,0.15400460656252796,5,Swing,1.0
1777225953572,-0.0600304,-0.373621,0.0289345,0.610213,0.173918,0.0136515,0,11.406930633093982,3.51532,999,log_newX5.csv,0,False,1.714,-94.47031551942565,0.37951746449328255,0.634660333993901,0.008777599999999997,-0.025677400000000003,0.011351,-0.027476,0.0395178,0.0121588,0.277744,0.02715409999999996,-0.01403600000000002,-0.01930100000000004,0.1016666,0.06111669999999998,3.293894130872289,1.0028186132940249,-0.853548273014102,-0.06494200988201015,-0.011698572865732115,0.03493063378195699,0.24273049345479375,0.08872588689226579,-0.011698572865732115,0.24273049345479375,5,Swing,1.0
1777225953586,-0.0426937,-0.423636,0.0751484,0.849681,0.139843,0.0943916,0,9.85622914616565,3.39342,999,log_newX5.csv,0,False,1.728,-90.5451284993747,0.4323626886518424,0.8662699582465965,0.017336699999999997,0.0085591,-0.05001500000000003,-0.06136600000000003,0.0462139,0.0066961000000000034,0.23946800000000001,-0.03827599999999998,-0.034074999999999994,-0.020038999999999974,0.08074010000000001,-0.020926499999999987,3.9251870200509558,0.6312928891786669,-1.5507014869283324,-0.6971532139142305,0.052845224158559856,0.06454379702429197,0.2316096242526955,-0.01112086920209826,0.052845224158559856,0.2316096242526955,5,Swing,0.8749514783774587
1777225953602,-0.0311482,-0.486203,0.107262,1.00792,0.0888256,0.136637,0,8.160600054999625,3.46808,999,log_newX5.csv,0,False,1.744,-87.03688948232762,0.49886742148214086,1.0210104717310002,0.0115455,-0.005791199999999996,-0.06256699999999998,-0.012551999999999952,0.03211359999999999,-0.01410030000000001,0.1582389999999999,-0.0812290000000001,-0.05101739999999999,-0.016942399999999996,0.0422454,-0.03849470000000001,3.5082390170470745,-0.41694800300388124,-1.6956290911660243,-0.1449276042376919,0.06650473283029845,0.013659508671738596,0.15474051348440376,-0.07686911076829173,0.06650473283029845,0.15474051348440376,5,Swing,0.8749514783774587
1777225953616,-0.0215102,-0.506037,0.123208,1.14924,0.032062,0.186663,0,6.594884737636552,3.37294,999,log_newX5.csv,0,False,1.758,-84.14059838326219,0.52126417998654,1.164741870550295,0.009638,-0.0019074999999999995,-0.019833999999999963,0.04273300000000002,0.015946000000000002,-0.01616759999999999,0.1413200000000001,-0.016918999999999795,-0.056763600000000004,-0.005746200000000014,0.05002599999999999,0.007780599999999985,2.8962910990654365,-0.6119479179816381,-1.5657153173630727,0.12991377380295166,0.022396758504399095,-0.04410797432589936,0.14373139881929475,-0.01100911466510901,0.022396758504399095,0.14373139881929475,5,Swing,0.8749514783774587
1777225953629,0.0020106,-0.523225,0.136345,1.31915,-0.0488414,0.241545,0,4.755677555175289,3.5749,999,log_newX5.csv,0,False,1.771,-81.7777451076689,0.5407017682256644,1.3419710100739732,0.0235208,0.0138828,-0.017188000000000092,0.0026459999999998707,0.013136999999999996,-0.002809000000000006,0.16991,0.028589999999999893,-0.0809034,-0.024139799999999996,0.054882000000000014,0.004856000000000027,2.362853275593281,-0.5334378234721555,-1.839207182461263,-0.27349186509819035,0.019437588239124448,-0.0029591702652746465,0.17722913952367825,0.033497740704383494,0.019437588239124448,0.17722913952367825,5,Swing,0.8749514783774587
1777225953643,0.0157081,-0.57135,0.157112,1.49875,-0.152622,0.300957,0,3.0606705376120633,3.46384,999,log_newX5.csv,0,False,1.785,-79.84528153191155,0.5927661827817188,1.5362682556223701,0.0136975,-0.009823300000000002,-0.04812499999999997,-0.03093699999999988,0.020767000000000008,0.007630000000000012,0.17959999999999998,0.009689999999999976,-0.1037806,-0.0228772,0.059411999999999965,0.004529999999999951,1.9324635757573532,-0.4303896998359278,-1.695007017563226,0.1442001648980371,0.05206441455605437,0.032626826316929924,0.1942972455483969,0.017068106024718643,0.05206441455605437,0.1942972455483969,5,Swing,0.8749514783774587
1777225953656,0.0147642,-0.653604,0.174468,1.65402,-0.261613,0.369932,0,1.8960438665004204,3.47449,999,log_newX5.csv,0,False,1.798,-78.55098866436447,0.6766500228638436,1.7149557448497033,-0.0009438999999999993,-0.014641399999999999,-0.08225399999999994,-0.034128999999999965,0.01735600000000001,-0.0034109999999999974,0.15527000000000002,-0.024329999999999963,-0.10899099999999998,-0.005210399999999976,0.06897500000000001,0.009563000000000044,1.2942928675470853,-0.6381707082102679,-1.1646266711116429,0.530380346451583,0.0838838400821248,0.03181942552607042,0.17868748922733313,-0.015609756321063761,0.0838838400821248,0.17868748922733313,5,Swing,0.7008496566554417
1777225953670,0.00635215,-0.74236,0.183038,1.77166,-0.370924,0.42446,0,1.255222501917268,3.49758,999,log_newX5.csv,0,False,1.812,-77.90215340263242,0.7646186166015202,1.8591745644172308,-0.00841205,-0.0074681500000000015,-0.08875600000000006,-0.006502000000000119,0.008569999999999994,-0.008786000000000016,0.11763999999999997,-0.03763000000000005,-0.10931099999999999,-0.0003200000000000147,0.05452800000000002,-0.014446999999999988,0.6488352617320459,-0.6454576058150394,-0.6408213645831524,0.5238053065284904,0.08796859373767663,0.0040847536555518316,0.14421881956752758,-0.03446866965980555,0.08796859373767663,0.14421881956752758,5,Swing,0.7008496566554417
1777225953684,-0.00773956,-0.824761,0.185299,1.86839,-0.47521,0.459989,0,1.0578328474745398,3.44043,999,log_newX5.csv,0,False,1.826,-77.74964062296705,0.845355740094662,1.9819928396240487,-0.01409171,-0.00567966,-0.08240099999999995,0.0063550000000001106,0.0022609999999999852,-0.006309000000000009,0.09672999999999998,-0.020909999999999984,-0.10428600000000005,0.005024999999999946,0.03552899999999998,-0.018999000000000044,0.15251277966537202,-0.49632248206667384,-0.19738965444272827,0.44343171014042415,0.08073712349314177,-0.007231470244534854,0.12281827520681787,-0.021400544360709706,0.08073712349314177,0.12281827520681787,5,Swing,0.7008496566554417
1777225953697,-0.0215507,-0.910973,0.189063,1.94996,-0.56536,0.493197,0,1.1305274443001208,3.46136,999,log_newX5.csv,0,False,1.839,-77.89165133794603,0.9306347604557279,2.0893107026024156,-0.01381114,0.0002805700000000008,-0.08621200000000007,-0.00381100000000012,0.0037640000000000173,0.001503000000000032,0.08156999999999992,-0.015160000000000062,-0.09014999999999995,0.014136000000000093,0.033208000000000015,-0.002320999999999962,-0.14201071497898,-0.294523494644352,0.07269459682558099,0.27008425126830926,0.08527902036106594,0.004541896867924167,0.10731786297836687,-0.015500412228451,0.08527902036106594,0.10731786297836687,5,Swing,0.7008496566554417
1777225953711,-0.0268181,-1.0069,0.190691,2.00206,-0.64383,0.524763,0,1.2300834888140133,3.4009,999,log_newX5.csv,0,False,1.853,-78.26566535991594,1.0251487101726313,2.167518747016736,-0.005267400000000002,0.008543739999999998,-0.09592699999999987,-0.009714999999999807,0.0016279999999999906,-0.0021360000000000268,0.05210000000000026,-0.029469999999999663,-0.07847000000000004,0.011679999999999913,0.03156599999999998,-0.0016420000000000323,-0.37401402196991285,-0.23200330699093286,0.09955604451389255,0.026861447688311557,0.09451394971690341,0.009234929355837473,0.07820804441432028,-0.029109818564046597,0.09451394971690341,0.07820804441432028,5,Swing,0.7008496566554417
1777225953724,-0.0262761,-1.09227,0.182356,2.03129,-0.711551,0.548308,0,1.2649811824598456,3.46839,999,log_newX5.csv,0,False,1.866,-78.87517569200634,1.1076993712498036,2.221055053924823,0.0005420000000000008,0.005809400000000003,-0.08537000000000017,0.010556999999999706,-0.008335000000000009,-0.009963,0.029229999999999645,-0.022870000000000612,-0.06772100000000003,0.010749000000000009,0.023545000000000038,-0.008020999999999945,-0.6095103320903945,-0.23549631012048167,0.034897693645832284,-0.06465835086806027,0.08255066107717224,-0.011963288639731173,0.053536306908087195,-0.024671737506233082,0.08255066107717224,0.053536306908087195,5,Swing,0.5230252800516305
1777225953738,-0.0193391,-1.16112,0.169007,2.06153,-0.773315,0.5556,0,1.178335411994383,3.38807,999,log_newX5.csv,0,False,1.88,-79.64330722059474,1.1735148150908916,2.2708177800354217,0.006936999999999999,0.006394999999999998,-0.06884999999999986,0.016520000000000312,-0.013349,-0.005013999999999991,0.030240000000000045,0.0010100000000003995,-0.06176399999999993,0.005957000000000101,0.007291999999999965,-0.016253000000000073,-0.7681315285883983,-0.15862119649800377,-0.08664577046546262,-0.12154346411129491,0.06581544384108806,-0.016735217236084177,0.04976272611059862,-0.0037735807974885738,0.06581544384108806,0.04976272611059862,5,Swing,0.5230252800516305
1777225953751,-0.021906,-1.23525,0.155938,2.08751,-0.835485,0.553114,0,1.1323133650215254,3.46945,999,log_newX5.csv,0,False,1.893,-80.49746864557139,1.2452466001479385,2.315527646632836,-0.002566899999999997,-0.009503899999999996,-0.07413000000000003,-0.0052800000000001734,-0.013068999999999997,0.00028000000000000247,0.025980000000000114,-0.0042599999999999305,-0.06217000000000006,-0.0004060000000001285,-0.0024859999999999882,-0.009777999999999953,-0.8541614249766525,-0.0860298963882542,-0.04602204697285761,0.04062372349260501,0.07173178505704692,0.0059163412159588535,0.04470986659741438,-0.005052859513184238,0.07173178505704692,0.04470986659741438,5,Swing,0.5230252800516305
1777225953765,-0.0521238,-1.31357,0.135711,2.08267,-0.882523,0.553079,0,1.4370578888908427,3.38118,999,log_newX5.csv,0,False,1.907,-81.47110259558276,1.321590144843491,2.328574146268484,-0.0302178,-0.027650900000000003,-0.07831999999999995,-0.004189999999999916,-0.020226999999999995,-0.007157999999999998,-0.0048400000000001775,-0.03082000000000029,-0.04703799999999991,0.015132000000000145,-3.500000000000725e-05,0.002450999999999981,-0.9736339500113758,-0.11947252503472328,0.3047445238693174,0.350766570842175,0.07634354469555249,0.004611759638505575,0.013046499635648079,-0.031663366961766304,0.07634354469555249,0.013046499635648079,5,Swing,0.5230252800516305
1777225953778,-0.111689,-1.37201,0.0988785,2.03724,-0.896008,0.558774,0,2.3028757299726217,3.51289,999,log_newX5.csv,0,False,1.92,-82.66163012933121,1.380095225186744,2.2946471486352755,-0.0595652,-0.0293474,-0.05844000000000005,0.019879999999999898,-0.036832500000000004,-0.01660550000000001,-0.04542999999999964,-0.04058999999999946,-0.01348500000000008,0.03355299999999983,0.005695000000000006,0.005730000000000013,-1.190527533748451,-0.21689358373707535,0.865817841081779,0.5610733172124616,0.05850508034325297,-0.01783846435229952,-0.03392699763320861,-0.04697349726885669,0.05850508034325297,-0.03392699763320861,5,Swing,0.5230252800516305
1777225953792,-0.183963,-1.40419,0.0496237,1.97168,-0.861203,0.554806,0,3.6958916120442846,3.42331,999,log_newX5.csv,0,False,1.934,-84.09734684445831,1.4170583802619743,2.2219366163878305,-0.07227399999999999,-0.012708799999999992,-0.0321800000000001,0.02625999999999995,-0.049254799999999994,-0.01242229999999999,-0.06556000000000006,-0.020130000000000425,0.034804999999999975,0.048290000000000055,-0.0039679999999999715,-0.009662999999999977,-1.4357167151271,-0.24518918137864887,1.393015882071663,0.527198040989884,0.03696315507523029,-0.021541925268022677,-0.07271053224744506,-0.03878353461423645,0.03696315507523029,-0.07271053224744506,1,Heel-strike,0.6554895519787239
1777225953805,-0.243464,-1.42322,-0.00597697,1.89012,-0.77618,0.535964,0,5.3199084997306,3.45078,999,log_newX5.csv,0,False,1.947,-85.75698985869171,1.443906372264622,2.1124077296052484,-0.059501000000000026,0.012772999999999965,-0.01902999999999988,0.013150000000000217,-0.05560067,-0.0063458700000000035,-0.08156000000000008,-0.016000000000000014,0.08502300000000007,0.050218000000000096,-0.018842000000000025,-0.014874000000000054,-1.6596430142333958,-0.2239262991062958,1.6240168876863152,0.2310010056146523,0.026847992002647647,-0.010115163072582645,-0.1095288867825821,-0.03681835453513704,0.026847992002647647,-0.1095288867825821,1,Heel-strike,0.6554895519787239
1777225953819,-0.271993,-1.43974,-0.069082,1.78658,-0.65772,0.509067,0,6.769623385206238,3.37511,999,log_newX5.csv,0,False,1.961,-87.64540476000998,1.4668346131629837,1.9706884343520668,-0.02852899999999997,0.030972000000000055,-0.01652000000000009,0.00250999999999979,-0.06310503,-0.0075043600000000085,-0.10353999999999997,-0.02197999999999989,0.11846000000000001,0.03343699999999994,-0.02689699999999995,-0.008054999999999923,-1.8884149013182707,-0.22877188708487495,1.4497148854756379,-0.17430200221067738,0.022928240898361762,-0.003919751104285885,-0.1417192952531816,-0.03219040847059951,0.022928240898361762,-0.1417192952531816,1,Heel-strike,0.6554895519787239
1777225953832,-0.254296,-1.46003,-0.134874,1.65273,-0.533495,0.476461,0,7.598868610579332,3.32576,999,log_newX5.csv,0,False,1.974,-89.70736127524114,1.4881347561266083,1.8008743577623623,0.017696999999999963,0.046225999999999934,-0.02028999999999992,-0.003769999999999829,-0.06579199999999999,-0.002686969999999983,-0.13385000000000002,-0.03031000000000006,0.12422499999999992,0.005764999999999909,-0.032606000000000024,-0.005709000000000075,-2.0619565152311594,-0.1735416139128887,0.8292452253730946,-0.6204696601025432,0.02130014296362459,-0.0016280979347371716,-0.1698140765897045,-0.028094781336522878,0.02130014296362459,-0.1698140765897045,1,Heel-strike,0.6554895519787239
1777225953846,-0.185172,-1.47366,-0.201551,1.48259,-0.433854,0.432051,0,7.463165026462453,3.36662,999,log_newX5.csv,0,False,1.988,-91.8903869007828,1.4988613247345466,1.6040481501554122,0.06912400000000002,0.051427000000000056,-0.013630000000000031,0.006659999999999888,-0.06667700000000001,-0.0008850000000000247,-0.17013999999999996,-0.03628999999999993,0.09964100000000004,-0.024583999999999884,-0.044410000000000005,-0.011803999999999981,-2.18302562554166,-0.1210691103105006,-0.13570358411687966,-0.9649488094899743,0.010726568607938303,-0.010573574355686288,-0.19682620760695002,-0.027012131017245533,0.010726568607938303,-0.19682620760695002,1,Heel-strike,0.6554895519787239
1777225953859,-0.099935,-1.47305,-0.268643,1.28253,-0.380362,0.383732,0,6.4784925548105345,3.32179,999,log_newX5.csv,0,False,2.001,-94.17190198292867,1.5006773031448166,1.3916927461792707,0.08523700000000001,0.01611299999999999,0.0006099999999999994,0.01424000000000003,-0.06709200000000001,-0.0004149999999999987,-0.20006000000000013,-0.02992000000000017,0.05349200000000004,-0.046148999999999996,-0.048319,-0.003908999999999996,-2.281515082145873,-0.09848945660421293,-0.9846724716519182,-0.8489688875350385,0.001815978410270036,-0.008910590197668267,-0.2123554039761415,-0.015529196369191478,0.001815978410270036,-0.2123554039761415,1,Heel-strike,0.8316095098491554
1777225953873,-0.0371255,-1.46203,-0.328985,1.06688,-0.368367,0.349153,0,5.111676091375691,3.50128,999,log_newX5.csv,0,False,2.015,-96.47080579174127,1.4990467483955427,1.1814546112729005,0.06280949999999999,-0.022427500000000017,0.01102000000000003,0.01041000000000003,-0.06034200000000001,0.006750000000000006,-0.2156499999999999,-0.01558999999999977,0.011994999999999978,-0.04149700000000006,-0.034579000000000026,0.013739999999999974,-2.2989038088125966,-0.017388726666723642,-1.3668164634348434,-0.38214399178292524,-0.0016305547492738715,-0.0034465331595439075,-0.21023813490637022,0.002117269069771277,-0.0016305547492738715,-0.21023813490637022,1,Heel-strike,0.8316095098491554
1777225953886,-0.0128982,-1.45645,-0.372175,0.83694,-0.368945,0.322602,0,3.863533214967378,3.35279,999,log_newX5.csv,0,False,2.028,-98.595196136113,1.5033054236209753,0.9698768102336502,0.0242273,-0.03858219999999999,0.005579999999999918,-0.005440000000000111,-0.04318999999999995,0.017152000000000056,-0.22994000000000003,-0.014290000000000136,-0.0005780000000000229,-0.012573,-0.02655099999999999,0.008028000000000035,-2.124390344371733,0.17451346444086369,-1.2481428764083131,0.1186735870265303,0.004258675225432551,0.0058892299747064225,-0.21157780103925028,-0.0013396661328800574,0.004258675225432551,-0.21157780103925028,1,Heel-strike,0.8316095098491554
1777225953900,-0.00930044,-1.44816,-0.396643,0.592882,-0.360075,0.280833,0,2.915651976347645,3.37618,999,log_newX5.csv,0,False,2.042,-100.41122649021925,1.5015257417817363,0.7483516856652358,0.00359776,-0.020629540000000002,0.00829000000000013,0.0027100000000002122,-0.024468000000000045,0.018721999999999905,-0.244058,-0.014117999999999964,0.008870000000000045,0.009448000000000067,-0.041769,-0.01521800000000001,-1.8160303541062461,0.30835999026548677,-0.9478812386197331,0.30026163778858006,-0.0017796818392390445,-0.006038357064671596,-0.22152512456841444,-0.009947323529164165,-0.0017796818392390445,-0.22152512456841444,1,Heel-strike,0.8316095098491554
1777225953913,0.00569452,-1.48462,-0.394435,0.34945,-0.347187,0.20334,0,2.070589685686456,3.36474,999,log_newX5.csv,0,False,2.055,-101.61813337581218,1.5361340895843143,0.5329176963368735,0.01499496,0.0113972,-0.03646000000000016,-0.04475000000000029,0.0022080000000000433,0.02667600000000009,-0.24343200000000004,0.0006259999999999599,0.012887999999999955,0.0040179999999999105,-0.077493,-0.035724000000000006,-1.2069068855929288,0.6091234685133173,-0.8450622906611889,0.10281894795854418,0.03460834780257804,0.03638802964181709,-0.21543398932836233,0.006091135240052115,0.03460834780257804,-0.21543398932836233,1,Heel-strike,0.8316095098491554
1777225953927,0.031936,-1.41761,-0.337504,0.0869718,-0.348979,0.134527,0,1.172035251723296,3.33796,999,log_newX5.csv,0,False,2.069,-102.09725963590644,1.457582577493296,0.3839895183012682,0.026241479999999998,0.011246519999999998,0.06701000000000001,0.10347000000000017,0.056930999999999954,0.05472299999999991,-0.2624782,-0.019046199999999958,-0.0017919999999999603,-0.014679999999999915,-0.06881299999999999,0.008680000000000021,-0.4791262600942616,0.7277806254986672,-0.8985544339631601,-0.05349214330197127,-0.0785515120910183,-0.11315985989359634,-0.14892817803560526,0.06650581129275707,-0.0785515120910183,-0.14892817803560526,1,Heel-strike,1.0
1777225953940,0.0312344,-1.38812,-0.0739095,-0.00560234,-0.344531,0.144014,0,0.5076616129231423,3.36003,999,log_newX5.csv,0,False,2.082,-99.65249099418783,1.390437102616875,0.3734608793039448,-0.0007016000000000001,-0.026943079999999998,0.029490000000000016,-0.03752,0.2635945,0.20666350000000006,-0.09257414,0.16990406,0.0044480000000000075,0.006239999999999968,0.009486999999999995,0.07829999999999998,2.4447686417186105,2.923894901812872,-0.6643736388001537,0.2341807951630065,-0.06714547487642109,0.011406037214597209,-0.010528638997323425,0.13839953903828184,-0.06714547487642109,-0.010528638997323425,1,Heel-strike,1.0
1777225953954,0.0300782,-1.47831,0.0272613,-0.209809,-0.335888,0.144261,0,0.05567346775513243,3.37736,999,log_newX5.csv,0,False,2.096,-96.75940044093291,1.4788672464737767,0.42148760497314747,-0.0011561999999999996,-0.00045459999999999945,-0.09018999999999999,-0.11968000000000001,0.1011708,-0.1624237,-0.20420665999999998,-0.11163251999999999,0.008642999999999956,0.004194999999999949,0.0002469999999999972,-0.009239999999999998,2.893090553254922,0.4483219115363113,-0.45198814516800984,0.21238549363214382,0.08843014385690173,0.15557561873332282,0.048026725669202686,0.05855536466652611,0.08843014385690173,0.048026725669202686,1,Heel-strike,1.0
1777225953967,0.000924416,-1.41405,0.00610332,-0.540731,-0.298125,0.132622,0,0.030513967808999617,3.41153,999,log_newX5.csv,0,False,2.109,-94.86649722377365,1.4140634736672761,0.6315513636039431,-0.029153784,-0.027997584,0.06425999999999998,0.15444999999999998,-0.02115798,-0.12232878,-0.33092199999999994,-0.12671533999999995,0.037763000000000047,0.02912000000000009,-0.01163900000000001,-0.011886000000000008,1.8929032171592581,-1.0001873360956637,-0.025159499946132816,0.426828645221877,-0.06480377280650051,-0.15323391666340225,0.21006375863079568,0.162037032961593,-0.06480377280650051,0.21006375863079568,1,Heel-strike,1.0
1777225953981,-0.034007,-1.27086,-0.0626472,-0.608319,-0.217305,0.129335,0,0.43586782647882855,3.4776,999,log_newX5.csv,0,False,2.123,-94.31419549135144,1.27285752828698,0.6587875310075321,-0.034931416,-0.005777632000000001,0.14318999999999993,0.07892999999999994,-0.06875052,-0.047592539999999996,-0.06758800000000009,0.26333399999999985,0.08081999999999998,0.04305699999999993,-0.0032869999999999844,0.008352000000000026,0.5523017324222081,-1.34060148473705,0.4053538586698289,0.43051335861596174,-0.14120594538029607,-0.07640217257379556,0.027236167403588918,-0.18282759122720676,-0.14120594538029607,0.027236167403588918,1,Heel-strike,1.0
1777225953994,-0.0491503,-1.19692,-0.0218343,-0.587645,-0.150999,0.0966597,0,0.95327454839722,3.54557,999,log_newX5.csv,0,False,2.136,-93.43102303474315,1.1981276956345597,0.61438623164105,-0.015143299999999998,0.019788116,0.07394000000000012,-0.06924999999999981,0.0408129,0.10956342,0.02067400000000008,0.08826200000000017,0.066306,-0.014513999999999971,-0.032675300000000004,-0.02938830000000002,0.8831724566082926,0.33087072418608443,0.5174067219183915,0.11205286324856262,-0.07472983265242039,0.06647611272787568,-0.04440129936648207,-0.07163746677007099,-0.07472983265242039,-0.04440129936648207,1,Heel-strike,1.0
1777225954008,-0.0457942,-1.20903,0.0246675,-0.606956,-0.0846364,0.0648882,0,1.2816275398582295,3.36684,999,log_newX5.csv,0,False,2.15,-92.18834482424771,1.2101483938798128,0.616254318151362,0.0033561000000000007,0.0184994,-0.012110000000000065,-0.08605000000000018,0.046501799999999996,0.005688899999999997,-0.019311000000000078,-0.03998500000000016,0.0663626,5.659999999998999e-05,-0.03177150000000001,0.0009037999999999963,1.2426782104954412,0.35950575388714867,0.3283529914610095,-0.18905373045738205,0.012020698245253092,0.08675053089767348,0.001868086510312006,0.04626938587679408,0.012020698245253092,0.001868086510312006,1,Heel-strike,1.0
1777225954021,-0.0179152,-1.19959,0.0460603,-0.692794,-0.0265354,0.0620633,0,1.1663678424490522,3.37149,999,log_newX5.csv,0,False,2.163,-91.00310640881099,1.2006076268819592,0.6960743545743157,0.027879,0.0245229,0.009440000000000115,0.02155000000000018,0.0213928,-0.025108999999999996,-0.08583799999999997,-0.06652699999999989,0.058101,-0.008261599999999994,-0.0028248999999999913,0.028946600000000017,1.1852384154367144,-0.05743979505872687,-0.1152596974091773,-0.4436126888701868,-0.009540766997853556,-0.021561465243106648,0.07982003642295366,0.07795194991264165,-0.009540766997853556,0.07982003642295366,1,Heel-strike,1.0
1777225954035,0.00789855,-1.13633,0.0556582,-0.748779,-0.00193473,0.0837169,0,0.7438047555836329,3.43958,999,log_newX5.csv,0,False,2.177,-89.97455395725015,1.1377196892114256,0.7534469147635969,0.02581375,-0.002065250000000001,0.06325999999999987,0.05381999999999976,0.0095979,-0.0117949,-0.05598499999999995,0.02985300000000002,0.02460067,-0.033500329999999995,0.021653599999999995,0.024478499999999986,1.0285524515608415,-0.15668596387587286,-0.4225630868654193,-0.307303389456242,-0.06288793767053358,-0.05334717067268002,0.057372560189281274,-0.02244747623367238,-0.06288793767053358,0.057372560189281274,1,Heel-strike,1.0
1777225954048,0.0242947,-1.07506,0.0671442,-0.72696,-0.0219812,0.106062,0,0.19380343384381837,3.39284,999,log_newX5.csv,0,False,2.19,-89.01593421269368,1.0774286888893063,0.7349851444739819,0.016396149999999998,-0.009417600000000002,0.06127000000000016,-0.0019899999999997142,0.011486000000000003,0.0018881000000000037,0.021818999999999922,0.07780399999999987,-0.02004647,-0.04464714,0.022345100000000007,0.0006915000000000115,0.9586197445564721,-0.06993270700436938,-0.5500013217398145,-0.1274382348743952,-0.060291000322119315,0.0025969373484142633,-0.018461770289615043,-0.07583433047889632,-0.060291000322119315,-0.018461770289615043,1,Heel-strike,1.0
1777225954062,0.00259464,-1.07131,0.0597441,-0.708242,-0.0725416,0.123665,0,0.1040158368777197,3.43875,999,log_newX5.csv,0,False,2.204,-88.41946692202924,1.072977728446187,0.7226078096170565,-0.02170006,-0.03809621,0.00374999999999992,-0.05752000000000024,-0.0074001,-0.018886100000000003,0.018718000000000012,-0.0031009999999999094,-0.0505604,-0.030513929999999998,0.017602999999999994,-0.004742100000000013,0.5964672906644353,-0.3621524538920369,-0.08978759696609867,0.46021372477371586,-0.004450960443119323,0.05584003987899999,-0.012377334856925382,0.006084435432689661,-0.004450960443119323,-0.012377334856925382,1,Heel-strike,1.0
1777225954075,-0.043849,-1.06697,0.0499089,-0.705927,-0.0899552,0.127074,0,0.710992750003627,3.4958,999,log_newX5.csv,0,False,2.217,-88.12294376418039,1.0690363015352706,0.7228918790607901,-0.04644364,-0.02474358,0.0043400000000000105,0.0005900000000000905,-0.009835200000000002,-0.0024351000000000025,0.002315000000000067,-0.016402999999999945,-0.0174136,0.0331468,0.0034089999999999954,-0.014193999999999998,0.29652315784885275,-0.2999441328155825,0.6069769131259073,0.6967645100920059,-0.003941426910916368,0.0005095335322029548,0.0002840694437336033,0.012661404300658985,-0.003941426910916368,0.0002840694437336033,1,Heel-strike,1.0
1777225954089,-0.0686338,-1.03324,0.0487048,-0.680728,-0.0836395,0.0984143,0,1.5444624451636262,3.44439,999,log_newX5.csv,0,False,2.231,-87.90094268713709,1.0366617836331578,0.6928719581486468,-0.024784799999999996,0.021658840000000006,0.03373000000000004,0.029390000000000027,-0.0012040999999999996,0.008631100000000003,0.02519899999999997,0.022883999999999904,0.0063156999999999935,0.023729299999999995,-0.028659699999999996,-0.03206869999999999,0.22200107704330208,-0.07452208080555067,0.8334696951599991,0.22649278203409184,-0.032374517902112876,-0.028433090991196508,-0.03001992091214334,-0.030303990355876942,-0.032374517902112876,-0.03001992091214334,1,Heel-strike,1.0
1777225954102,-0.0544422,-1.025,0.0502009,-0.644322,-0.0991525,0.0551163,0,1.9476098343196002,3.35629,999,log_newX5.csv,0,False,2.244,-87.71052355128637,1.0276716807919006,0.6542322710367778,0.014191599999999992,0.03897639999999999,0.008240000000000025,-0.025490000000000013,0.0014961000000000002,0.0027002,0.03640600000000005,0.011207000000000078,-0.015512999999999999,-0.021828699999999993,-0.043297999999999996,-0.0146383,0.19041913585071768,-0.031581941192584395,0.40314738915597403,-0.4303223060040251,-0.00899010284125712,0.023384415060855757,-0.03863968711186894,-0.008619766199725598,-0.00899010284125712,-0.03863968711186894,1,Heel-strike,1.0
1777225954116,-0.0362011,-1.02737,0.0518216,-0.626286,-0.139332,0.04663,0,1.9659554741989838,3.52978,999,log_newX5.csv,0,False,2.258,-87.54893385231496,1.029312933353006,0.6432899166938651,0.018241100000000003,0.004049500000000011,-0.0023699999999999832,-0.010610000000000008,0.0016207000000000027,0.0001246000000000025,0.01803599999999994,-0.01837000000000011,-0.04017950000000001,-0.024666500000000008,-0.008486300000000002,0.034811699999999994,0.16158969897141162,-0.02882943687930606,0.018345639879383535,-0.3848017492765905,0.0016412525611053663,0.010631355402362486,-0.010942354342912686,0.02769733276895625,0.0016412525611053663,-0.010942354342912686,1,Heel-strike,1.0
1777225954130,-0.0364494,-1.01617,0.0417757,-0.605658,-0.176911,0.0626369,0,1.9893499958729768,3.47534,999,log_newX5.csv,0,False,2.272,-87.57511433352863,1.0176813041275987,0.6340682109415438,-0.0002482999999999999,-0.018489400000000003,0.011199999999999877,0.01356999999999986,-0.010045900000000003,-0.011666600000000006,0.02062799999999998,0.0025920000000000387,-0.037579,0.0026005000000000056,0.016006899999999998,0.0244932,-0.02618048121367167,-0.1877701801850833,0.02339452167399303,0.005048881794609494,-0.01163162922540728,-0.013272881786512647,-0.009221705752321396,0.0017206485905912894,-0.01163162922540728,-0.009221705752321396,1,Heel-strike,1.0
1777225954143,-0.0604077,-0.995412,0.0364316,-0.562934,-0.180276,0.0568412,0,2.3894870165044115,3.52657,999,log_newX5.csv,0,False,2.285,-87.66394798902446,0.9979085135631672,0.5938224032060765,-0.023958300000000002,-0.023710000000000002,0.020758000000000054,0.009558000000000177,-0.0053440999999999975,0.004701800000000006,0.042723999999999984,0.022096000000000005,-0.003364999999999979,0.03421400000000002,-0.005795699999999994,-0.02180259999999999,-0.08883365549583289,-0.06265317428216122,0.40013702063143475,0.3767424989574417,-0.019772790564431486,-0.008141161339024205,-0.040245807735467265,-0.03102410198314587,-0.019772790564431486,-0.040245807735467265,1,Heel-strike,1.0
1777225954157,-0.0837825,-0.988199,0.0301831,-0.5049,-0.142164,0.025701,0,3.0525543458732844,3.48719,999,log_newX5.csv,0,False,2.299,-87.82241614532533,0.9922035025300304,0.5251620267089007,-0.023374799999999994,0.0005835000000000076,0.007212999999999914,-0.01354500000000014,-0.006248500000000001,-0.0009044000000000031,0.05803400000000003,0.015310000000000046,0.03811199999999998,0.04147699999999996,-0.0311402,-0.025344500000000006,-0.15846815630087008,-0.06963450080503719,0.6630673293688729,0.26293030873743817,-0.005705011033136809,0.014067779531294677,-0.06866037649717582,-0.02841456876170856,-0.005705011033136809,-0.06866037649717582,1,Heel-strike,1.0
1777225954170,-0.0763453,-0.994322,0.0323183,-0.456514,-0.0924139,-0.00531278,0,3.413419590520469,3.49148,999,log_newX5.csv,0,False,2.312,-87.90777552208529,0.997772176917647,0.465804236499131,0.007437199999999991,0.030811999999999985,-0.0061229999999999896,-0.013335999999999903,0.0021352000000000003,0.008383700000000001,0.04838600000000004,-0.00964799999999999,0.04975010000000002,0.01163810000000004,-0.03101378,0.00012641999999999862,-0.08535937675995342,0.07310877954091666,0.3608652446471847,-0.3022020847216882,0.005568674387616546,0.011273685420753354,-0.05935779020976967,0.009302586287406156,0.005568674387616546,-0.05935779020976967,1,Heel-strike,1.0
1777225954184,-0.0530625,-1.00089,0.0326601,-0.424436,-0.0614137,-0.00653927,0,3.3106742970525134,3.49896,999,log_newX5.csv,0,False,2.326,-87.9680921410068,1.0028275540382106,0.42890596020086136,0.023282800000000006,0.015845600000000015,-0.006568000000000018,-0.0004450000000000287,0.0003417999999999963,-0.001793400000000004,0.032077999999999995,-0.016308000000000045,0.03100019999999999,-0.018749900000000028,-0.0012264900000000002,0.02978729,-0.06031661892151874,0.02504275783843468,-0.1027452934679558,-0.4636105381151405,0.005055377120563587,-0.000513297267052959,-0.03689827629826964,0.02245951391150003,0.005055377120563587,-0.03689827629826964,1,Heel-strike,1.0
1777225954198,-0.0358075,-0.998813,0.0308336,-0.402501,-0.0567124,0.0139272,0,2.970689841883292,3.50333,999,log_newX5.csv,0,False,2.34,-88.0393417231451,0.9999301460173156,0.406715279052312,0.017255,-0.006027800000000007,0.0020770000000001065,0.008645000000000125,-0.0018264999999999983,-0.0021682999999999945,0.021934999999999982,-0.010143000000000013,0.0047012999999999985,-0.026298899999999993,0.02046647,0.02169296,-0.07124958213829302,-0.010932963216774283,-0.33998445516922127,-0.23723916170126547,-0.002897408020894998,-0.007952785141458585,-0.022190681148549385,0.014707595149720254,-0.002897408020894998,-0.022190681148549385,1,Heel-strike,0.923069027628562
1777225954211,-0.0396466,-0.991988,0.0263523,-0.378394,-0.0641942,0.0318604,0,2.7862313759479,3.49209,999,log_newX5.csv,0,False,2.353,-88.15792565009933,0.9931296434760418,0.3851207598115168,-0.003839099999999998,-0.021094099999999998,0.00682499999999997,0.0047479999999998634,-0.0044813000000000006,-0.0026548000000000023,0.02410699999999999,0.0021720000000000073,-0.007481800000000004,-0.012183100000000002,0.017933199999999996,-0.002533270000000004,-0.11858392695422992,-0.0473343448159369,-0.18445846593539228,0.155525989233829,-0.006800502541273734,-0.003903094520378736,-0.021594519240795196,0.0005961619077541891,-0.006800502541273734,-0.021594519240795196,1,Heel-strike,0.923069027628562
1777225954225,-0.0581648,-0.990856,0.02481,-0.36015,-0.0689786,0.0307997,0,2.9408188661104426,3.50139,999,log_newX5.csv,0,False,2.367,-88.26808117963918,0.9928717403547348,0.3679873520626083,-0.018518200000000005,-0.014679100000000007,0.0011320000000000219,-0.005692999999999948,-0.0015423,0.0029390000000000006,0.018243999999999982,-0.005863000000000007,-0.004784399999999994,0.0026974000000000095,-0.0010606999999999978,-0.018993899999999994,-0.11015552953985264,0.008428397414377287,0.1545874901625428,0.3390459560979351,-0.00025790312130702375,0.00654259941996671,-0.01713340774890848,0.004461111491886716,-0.00025790312130702375,-0.01713340774890848,1,Heel-strike,0.923069027628562
1777225954238,-0.0719263,-0.990131,0.0210903,-0.348204,-0.0682837,0.014127,0,3.26854366551315,3.38112,999,log_newX5.csv,0,False,2.38,-88.40631302064006,0.9929640429274265,0.35511725025784086,-0.013761499999999996,0.0047567000000000095,0.0007249999999999757,-0.0004070000000000462,-0.0037196999999999994,-0.0021773999999999995,0.011946000000000012,-0.00629799999999997,0.0006948999999999983,0.0054792999999999925,-0.0166727,-0.015612000000000001,-0.1382318410008736,-0.028076311461020964,0.3277247994027075,0.17313730924016468,9.230257269166042e-05,0.0003502056939986842,-0.012870101804767442,0.004263305944141038,9.230257269166042e-05,-0.012870101804767442,1,Heel-strike,0.923069027628562
1777225954252,-0.0765072,-0.989726,0.0178607,-0.337257,-0.0667631,-0.00404174,0,3.5794915294342133,3.48678,999,log_newX5.csv,0,False,2.394,-88.55755551985808,0.9928393179826884,0.3438254371521071,-0.004580899999999999,0.009180599999999997,0.0004049999999999887,-0.00031999999999998696,-0.003229599999999999,0.0004901000000000003,0.01094700000000004,-0.0009989999999999721,0.001520599999999997,0.0008256999999999987,-0.018168740000000003,-0.001496040000000004,-0.15124249921802857,-0.013010658217154969,0.3109478639210632,-0.016776935481644273,-0.00012472494473803053,-0.00021702751742969095,-0.011291813105733739,0.001578288699033703,-0.00012472494473803053,-0.011291813105733739,1,Heel-strike,0.923069027628562
1777225954266,-0.0750797,-0.987541,0.0128047,-0.327485,-0.0659031,-0.0181646,0,3.7869180921694503,3.40119,999,log_newX5.csv,0,False,2.408,-88.74655002773719,0.9904736989820476,0.33454386335392555,0.0014274999999999982,0.006008399999999997,0.0021849999999999925,0.0017800000000000038,-0.005056,-0.0018264000000000006,0.009771999999999947,-0.0011750000000000926,0.0008599999999999997,-0.0006605999999999973,-0.01412286,0.004045880000000003,-0.18899450787910155,-0.03775200866107298,0.20742656273523696,-0.10352130118582625,-0.002365619000640806,-0.0022408940559027757,-0.009281573798181564,0.002010239307552175,-0.002365619000640806,-0.009281573798181564,1,Heel-strike,0.799556521952547
1777225954279,-0.0743871,-0.980658,0.00609863,-0.309329,-0.0596266,-0.0262186,0,3.9357258175821217,3.50474,999,log_newX5.csv,0,False,2.421,-88.98891713680888,0.9834941519390377,0.31611260122703116,0.0006926000000000015,-0.0007348999999999967,0.0068829999999999725,0.00469799999999998,-0.006706070000000001,-0.0016500700000000009,0.018156000000000005,0.008384000000000058,0.006276500000000004,0.005416500000000005,-0.008054000000000002,0.006068859999999997,-0.24236710907169368,-0.05337260119259213,0.1488077254126714,-0.058618837322565565,-0.006979547043009959,-0.004613928042369153,-0.018431262126894388,-0.009149688328712824,-0.006979547043009959,-0.018431262126894388,1,Heel-strike,0.799556521952547
1777225954293,-0.0726277,-0.979217,0.000919663,-0.283639,-0.0446507,-0.0341389,0,4.018416645231634,3.3816,999,log_newX5.csv,0,False,2.435,-89.24753003654557,0.9819071044026129,0.2891543391075085,0.0017593999999999943,0.0010667999999999928,0.0014410000000000256,-0.005441999999999947,-0.005178967,0.001527103000000001,0.025690000000000046,0.007534000000000041,0.0149759,0.008699399999999996,-0.007920299999999998,0.00013370000000000395,-0.2586128997366899,-0.016245790664996207,0.08269082764951197,-0.06611689776315943,-0.0015870475364248016,0.005392499506585158,-0.02695826211952268,-0.008526999992628292,-0.0015870475364248016,-0.02695826211952268,1,Heel-strike,0.799556521952547
1777225954306,-0.0687837,-0.98009,-0.00496022,-0.257651,-0.0237102,-0.0401284,0,4.017342802837508,3.48245,999,log_newX5.csv,0,False,2.448,-89.52915181915701,0.982513210734664,0.26183296177448706,0.003844,0.002084600000000006,-0.0008730000000000127,-0.0023140000000000382,-0.005879883000000001,-0.0007009160000000011,0.025987999999999956,0.00029799999999990945,0.0209405,0.0059646000000000005,-0.005989500000000002,0.0019307999999999964,-0.2816217826114382,-0.023008882874748338,-0.0010738423941258901,-0.08376467004363786,0.0006061063320511595,0.002193153868475961,-0.027321377333021424,-0.00036311521349874365,0.0006061063320511595,-0.027321377333021424,1,Heel-strike,0.799556521952547
1777225954320,-0.0629691,-0.982392,-0.00984009,-0.234238,-0.00241753,-0.0414684,0,3.9227843769932322,3.4738,999,log_newX5.csv,0,False,2.462,-89.81139208125362,0.9844571989629708,0.23789265077732205,0.005814600000000003,0.001970600000000003,-0.0023020000000000262,-0.0014290000000000136,-0.004879869999999999,0.0010000130000000019,0.023413000000000017,-0.0025749999999999384,0.02129267,0.00035216999999999887,-0.001340000000000001,0.004649500000000001,-0.28224026209660735,-0.0006184794851691322,-0.09455842584427554,-0.09348458345014965,0.00194398822830677,0.0013378818962556105,-0.02394031099716501,0.003381066335856414,0.00194398822830677,-0.02394031099716501,1,Heel-strike,0.799556521952547
