timestamp,ax,ay,az,gx,gy,gz,roll_k,pitch_k,delay_ms,classe_prevista
1774536270813,0.0324684,0.93182,-0.471891,-1.25935,-1.51122,0.152649,0,0,3.22099,-1
1774536270826,0.0278324,0.94287,-0.470215,-1.35113,-0.954282,1.12962,0,0,3.24871,-1
1774536270840,0.0390617,0.941162,-0.472412,-1.1298,-0.496252,1.79379,0,0,3.29697,-1
1774536270853,0.0319829,0.927003,-0.46753,-1.35874,-0.465653,2.12972,0,0,3.22643,-1
1774536270866,0.0393061,0.939941,-0.4729,-1.1985,-0.0687618,2.00002,0,0,3.22217,-1
1774536270880,0.036133,0.936035,-0.465577,-1.66405,-0.221351,2.27477,0,0,3.22588,-1
1774536270893,0.0415035,0.927735,-0.467285,-1.8702,-0.442715,2.20612,0,0,3.23032,-1
1774536270906,0.0422363,0.932617,-0.462403,-1.80154,-0.526705,2.05346,0,0,3.2296,-1
1774536270920,0.0449217,0.947753,-0.46875,-1.66414,-0.557247,1.73287,0,0,3.22365,-1
1774536270933,0.0395512,0.938721,-0.46875,-1.74808,-0.931242,1.54965,0,0,3.28988,0
1774536270946,0.0378419,0.939697,-0.466797,-1.77099,-0.748119,1.51909,0,0,3.27043,0
1774536270960,0.0415036,0.939209,-0.475829,-1.86258,-0.450426,1.44276,0,0,3.24471,0
1774536270973,0.0449216,0.938965,-0.467286,-1.64889,-0.748047,1.35879,0,0,3.23193,0
1774536270986,0.0419924,0.932374,-0.46582,-1.97705,-0.893108,1.25956,0,0,3.28076,5
1774536271000,0.0334479,0.936523,-0.464356,-1.77866,-1.03815,1.33587,0,0,3.25117,5
1774536271013,0.0458976,0.937988,-0.473144,-2.16025,-1.15265,1.52669,0,0,3.26475,5
1774536271027,0.0397953,0.930665,-0.468506,-2.50377,-0.969493,1.70226,0,0,3.27986,5
1774536271040,0.0432127,0.935791,-0.462159,-2.75569,-0.938936,1.9389,0,0,3.28897,5
1774536271053,0.0422364,0.931641,-0.466064,-3.02286,-0.793915,2.02289,0,0,3.32625,5
1774536271067,0.0437011,0.932373,-0.467285,-3.38163,-0.87785,2.3511,0,0,3.27378,5
1774536271080,0.0385746,0.935791,-0.463867,-3.51906,-0.824435,2.81672,0,0,3.25358,5
1774536271093,0.03418,0.93335,-0.467773,-3.687,-0.854957,3.37396,0,0,3.26899,5
1774536271107,0.0363768,0.938232,-0.46167,-4.18313,-0.702313,4.0686,0,0,3.27314,5
1774536271120,0.0432124,0.948974,-0.46167,-4.19847,-0.633598,4.61824,0,0,3.23623,5
1774536271134,0.0463865,0.954345,-0.450928,-4.08399,-0.893091,4.7786,0,0,3.27945,5
1774536271147,0.0495603,0.950684,-0.457519,-3.56496,-0.839703,4.09171,0,0,3.28351,5
1774536271160,0.0532224,0.948975,-0.449708,-3.34354,-1.09157,3.23677,0,0,3.30551,5
1774536271174,0.0517579,0.950683,-0.458984,-3.00768,-1.42743,2.25969,0,0,3.31584,5
1774536271187,0.0568844,0.946533,-0.457764,-2.48863,-1.34352,1.28259,0,0,3.29923,5
1774536271201,0.0522464,0.949707,-0.445557,-1.90848,-1.28245,0.748172,0,0,3.31206,5
1774536271216,0.0456548,0.944336,-0.45581,-1.89313,-1.16796,0.671767,0,0,5.02454,5
1774536271229,0.0419924,0.953124,-0.454102,-1.44282,-0.717625,0.702285,0,0,3.33577,5
1774536271243,0.0529777,0.952393,-0.453613,-0.778726,-1.19077,0.73282,0,0,3.27958,5
1774536271256,0.0371105,0.944337,-0.459716,-0.648874,-0.679466,0.99996,0,0,3.41825,5
1774536271270,0.0429683,0.947021,-0.455078,-0.358822,-0.435151,1.03816,0,0,3.2773,5
1774536271283,0.0451659,0.948486,-0.451416,-0.267189,-0.435115,1.15265,0,0,3.26332,5
1774536271296,0.0615223,0.952148,-0.455078,-0.122159,-0.221406,0.717622,0,0,3.29889,5
1774536271310,0.0668942,0.95459,-0.456543,0.58768,-0.419818,-0.786034,0,0,3.39191,5
1774536271323,0.0583502,0.946046,-0.454834,0.870187,-1.01518,-2.12957,0,0,3.28314,5
1774536271337,0.0637203,0.948486,-0.45581,1.43503,-1.50374,-4.22106,0,0,3.28173,5
1774536271351,0.0681149,0.948486,-0.450928,1.90069,-1.9694,-6.61796,0,0,3.31302,5
1774536271365,0.0568856,0.952881,-0.443604,2.02288,-2.47321,-7.96926,0,0,3.30647,5
1774536271379,0.0114778,0.932619,-0.461913,1.36651,-2.24431,-7.31308,0,0,3.84897,5
1774536271393,0.0092775,0.948241,-0.456543,1.03058,-1.58788,-3.96997,0,0,3.39754,5
1774536271406,0.00952147,0.945069,-0.460205,1.03817,-0.595569,-1.19889,0,0,3.26252,5
1774536271420,0.00976561,0.939698,-0.461914,0.244394,-0.290122,1.8774,0,0,3.31143,5
1774536271433,0.0319809,0.946533,-0.465332,-0.373953,-0.282444,3.20591,0,0,3.26915,5
1774536271447,0.0383296,0.928224,-0.45337,-0.931214,-0.328237,3.45798,0,0,3.26071,5
1774536271460,0.0422361,0.937255,-0.454102,-0.96946,-0.290082,3.37406,0,0,3.26769,5
1774536271474,0.0449217,0.929688,-0.454346,-1.19081,-0.0153084,2.62607,0,0,3.28467,5
1774536271487,0.045166,0.931396,-0.453857,-1.16794,0.145014,1.72533,0,0,3.24519,5
1774536271500,0.0424807,0.941894,-0.456299,-1.80906,0.442703,1.68703,0,0,3.25164,5
1774536271514,0.0358891,0.947998,-0.452393,-0.908532,0.396953,1.96942,0,0,3.27817,5
1774536271527,0.0446771,0.941895,-0.44751,-0.862602,-0.0304702,1.74812,0,0,3.28162,5
1774536271540,0.0529779,0.960936,-0.453613,0.282271,-0.526643,1.43516,0,0,3.27595,5
1774536271554,0.038087,0.950684,-0.444337,0.656432,-0.931237,1.46564,0,0,3.31384,5
1774536271567,0.0468744,0.976072,-0.450927,1.83952,-1.05342,1.66409,0,0,3.33565,5
1774536271581,0.0432131,0.96045,-0.456298,2.3587,-0.931316,1.27487,0,0,3.27467,5
1774536271594,0.0458982,0.94629,-0.462646,2.72514,-0.885503,1.12216,0,0,3.27651,5
1774536271607,0.0363776,0.934083,-0.459229,2.90074,-0.412285,1.22136,0,0,3.26202,5
1774536271621,0.0417477,0.943359,-0.453614,2.96946,-0.320624,0.633676,0,0,3.27478,5
1774536271634,0.035645,0.941895,-0.463378,3.01526,-0.435097,0.801502,0,0,3.28945,5
1774536271647,0.0397946,0.945312,-0.471191,2.73287,-0.145082,0.839689,0,0,3.25547,5
1774536271661,0.0358889,0.943604,-0.455567,2.67176,-0.114508,0.816797,0,0,3.31369,5
1774536271674,0.04248,0.936524,-0.456055,2.45805,-0.267153,1.35106,0,0,3.25545,5
1774536271688,0.0368656,0.942871,-0.467773,2.16798,0.114447,1.51906,0,0,3.2594,5
1774536271701,0.0505362,0.934571,-0.453126,1.73289,-0.0381451,1.35117,0,0,3.28819,5
1774536271714,0.0446781,0.936767,-0.45166,1.60307,-0.160287,1.18323,0,0,3.29051,5
1774536271728,0.0449219,0.937988,-0.46704,1.46567,-0.152673,1.04582,0,0,3.33141,5
1774536271741,0.0480955,0.954345,-0.4563,1.68699,-0.473234,0.389411,0,0,3.29804,5
1774536271755,0.0429691,0.955322,-0.459961,2.52659,-0.389326,-0.0381038,0,0,3.29306,5
1774536271768,0.0456541,0.951416,-0.465332,3.03046,-0.114545,0.099216,0,0,3.28758,5
1774536271781,0.0375982,0.951904,-0.473388,3.48085,0.244221,0.931173,0,0,3.26202,5
1774536271795,0.0395506,0.958252,-0.461427,4.4426,0.503778,1.70217,0,0,3.28021,5
1774536271808,0.0349124,0.974852,-0.456055,5.27468,0.38933,2.4808,0,0,3.26117,5
1774536271821,0.0468742,0.950441,-0.465087,6.70971,0.290091,2.45039,0,0,3.33917,5
1774536271835,0.0373542,0.950684,-0.464844,6.25198,0.618271,3.25179,0,0,3.31408,5
1774536271848,0.048095,0.928468,-0.475341,6.16795,0.778602,3.42745,0,0,3.31312,5
1774536271862,0.0441897,0.942138,-0.470948,5.89317,0.809156,3.79384,0,0,3.30286,5
1774536271876,0.0517573,0.928468,-0.464844,5.42755,0.450435,3.32068,0,0,3.95815,5
1774536271889,0.0593256,0.917237,-0.4646,4.76346,-0.0075649,2.67949,0,0,3.31743,5
1774536271903,0.0485847,0.929931,-0.476073,4.45806,-0.373991,2.61833,0,0,3.28834,5
1774536271916,0.0546871,0.923096,-0.47168,3.58028,-0.328251,2.44277,0,0,3.36125,5
1774536271930,0.0520021,0.918213,-0.478027,2.91613,-0.335877,2.23667,0,0,3.28795,5
1774536271943,0.042237,0.920654,-0.47583,2.35123,0.0152145,2.00767,0,0,3.27689,5
1774536271956,0.0417481,0.920166,-0.479004,1.41235,0.473214,2.59533,0,0,3.26797,5
1774536271970,0.063475,0.926757,-0.480713,0.832148,-0.00756148,2.14511,0,0,3.32878,5
1774536271983,0.0556646,0.929687,-0.483886,0.687045,0.519005,1.82448,0,0,3.26884,5
1774536271997,0.0588377,0.939208,-0.48584,0.259606,0.465657,1.75574,0,0,3.41128,5
1774536272010,0.057129,0.930421,-0.481446,-0.167875,0.267205,1.33594,0,0,3.28706,5
1774536272024,0.0471198,0.926758,-0.478516,-0.29769,0.0916294,1.22902,0,0,3.27256,5
1774536272037,0.0622548,0.931884,-0.478027,-0.290077,-0.465565,0.778693,0,0,3.27671,5
1774536272051,0.0551763,0.930908,-0.47583,-0.366401,-0.763314,0.213825,0,0,3.27273,5
1774536272064,0.05957,0.929443,-0.476318,-0.755667,-1.10682,-0.541871,0,0,3.30628,5
1774536272077,0.0544437,0.92749,-0.470704,-1.09155,-1.21372,-0.572514,0,0,3.30139,5
1774536272091,0.0412607,0.933593,-0.483398,-1.07634,-1.04583,0.167828,0,0,3.79761,5
1774536272105,0.0419921,0.940429,-0.478028,-1.12976,-0.595487,0.946448,0,0,3.30041,5
1774536272118,0.0400392,0.943359,-0.47876,-1.08398,-0.389344,1.87772,0,0,3.29364,5
1774536272132,0.0600572,0.942871,-0.470215,0.0837943,-0.267194,2.00761,0,0,3.26738,5
1774536272145,0.0429699,0.947998,-0.481933,0.137397,0.129711,2.2824,0,0,3.24251,5
1774536272159,0.0529778,0.923342,-0.474366,-0.167893,0.435069,2.977,0,0,3.29234,5
1774536272172,0.0417488,0.913331,-0.47583,-1.35097,0.526704,3.5419,0,0,3.26932,5
1774536272185,0.0478511,0.919189,-0.47876,-1.93884,0.915972,4.76318,0,0,3.28838,5
1774536272199,0.0776346,0.946531,-0.478027,-1.82444,0.549673,3.82457,0,0,3.27106,5
1774536272212,0.0908194,0.943848,-0.479492,-1.83206,-0.656308,1.57286,0,0,3.25221,5
1774536272226,0.060549,0.928224,-0.46753,-1.54966,-1.09917,0.702421,0,0,3.27843,5
1774536272239,0.0605469,0.932129,-0.472168,-1.63358,-1.45796,0.450419,0,0,3.26184,5
1774536272253,0.0527349,0.935058,-0.47583,-1.71754,-1.20614,0.969388,0,0,3.73702,5
1774536272266,0.0541991,0.960203,-0.475342,-1.58017,-1.00766,1.70981,0,0,3.27238,5
1774536272280,0.0644524,0.974852,-0.476318,-0.358962,-1.13739,1.64886,0,0,3.47517,5
1774536272293,0.0556647,0.984374,-0.473633,1.25167,-0.938961,2.05337,0,0,3.2618,5
1774536272307,0.0500492,0.989746,-0.481201,3.13712,-0.687061,2.16792,0,0,3.24301,5
1774536272320,0.0624991,0.989014,-0.475098,5.78586,-0.763347,2.06872,0,0,3.25254,5
1774536272333,0.0690913,0.953616,-0.470948,7.28985,-1.45028,0.427727,0,0,3.26969,5
1774536272347,0.0505384,0.946045,-0.485106,7.80145,-1.35116,0.435113,0,0,3.27314,5
1774536272360,0.0349132,0.934327,-0.492187,7.64125,-1.77856,0.511439,0,0,3.23597,5
1774536272373,0.0556626,0.9458,-0.481202,8.96927,-1.48096,1.40445,0,0,3.23515,5
1774536272387,0.0661614,0.958007,-0.488525,9.11448,-1.23668,1.11455,0,0,3.24899,5
1774536272400,0.0874009,0.929201,-0.474854,8.68709,-2.26702,-0.0685249,0,0,3.26347,5
1774536272413,0.068849,0.916993,-0.483642,8.68702,-2.80908,-0.129762,0,0,3.26591,5
1774536272427,0.0861804,0.93579,-0.47046,8.5878,-3.70979,-0.923545,0,0,3.26702,5
1774536272440,0.0817874,0.931153,-0.494627,8.80149,-4.63345,-1.51136,0,0,3.24778,5
1774536272453,0.0681162,0.914308,-0.50415,7.67193,-5.01521,-0.771103,0,0,3.27762,5
1774536272467,0.0773919,0.905762,-0.497315,6.90088,-6.51886,-1.63346,0,0,3.27388,5
1774536272480,0.0695806,0.93701,-0.498779,7.11447,-7.70211,-1.36645,0,0,3.2598,5
1774536272493,0.0422382,0.930176,-0.498779,6.23677,-7.46568,-1.41221,0,0,3.26702,5
1774536272507,-0.00146178,0.932129,-0.5,6.71749,-6.26736,0.343248,0,0,3.25395,5
1774536272520,0.0400362,0.945067,-0.486573,7.28236,-4.65673,3.77048,0,0,3.23956,5
1774536272533,0.0283211,0.886723,-0.500243,8.90815,-3.38187,7.66354,0,0,3.26575,5
1774536272547,0.0209966,1.08714,-0.530027,12.3277,-2.29787,11.4574,0,0,3.26434,5
1774536272560,0.0102547,1.02344,-0.525147,12.4351,-1.71764,13.7325,0,0,3.24426,5
1774536272573,-0.00781124,1.08837,-0.53125,21.4948,-0.175804,18.9305,0,0,3.23945,5
1774536272587,0.0126939,1.17285,-0.556151,30.1285,3.7933,28.4719,0,0,3.30228,5
1774536272600,0.002198,1.25414,-0.533205,41.7158,6.36603,24.2296,0,0,3.28454,5
1774536272614,0.105217,1.2107,-0.583737,54.4561,6.58775,35.5785,0,0,3.33238,5
1774536272627,0.131834,1.29809,-0.552492,66.6776,4.45833,34.0918,0,0,3.65543,5
1774536272641,0.170163,1.55418,-0.586668,87.058,0.893664,21.1699,0,0,3.28636,5
1774536272654,0.118412,1.5315,-0.561281,115.057,0.694686,22.0991,0,0,3.27017,5
1774536272668,0.0566449,1.42115,-0.568603,135.081,-0.755508,26.2055,0,0,3.27702,5
1774536272681,0.049561,1.4187,-0.547609,153.463,-0.0764377,25.7787,0,0,3.2753,5
1774536272694,0.0290542,1.47509,-0.570311,173.982,0.0839454,29.404,0,0,3.28125,5
1774536272708,0.140129,1.51172,-0.544435,193.913,-0.961675,29.3893,0,0,3.25482,5
1774536272721,0.172117,1.53662,-0.566405,214.142,-2.6257,25.6876,0,0,3.2558,5
1774536272734,0.159425,1.60668,-0.597654,234.928,-6.66352,18.6194,0,0,3.26345,5
1774536272748,0.31786,1.78783,-0.60205,250.127,-14.7011,8.33742,0,0,3.29414,5
1774536272761,0.356198,1.73951,-0.646725,250.13,-22.5179,-4.64691,0,0,3.25606,5
1774536272775,0.440912,1.78393,-0.722163,250.13,-35.2118,-24.9435,0,0,3.61645,5
1774536272788,0.440186,2.07688,-0.728271,250.13,-34.4658,-37.2577,0,0,3.26839,5
1774536272802,0.768532,1.78518,-0.834709,250.13,-52.753,-17.7663,0,0,3.25493,5
1774536272815,0.16264,1.82641,-0.853758,250.13,-49.0082,-34.0892,0,0,3.25247,5
1774536272829,0.334461,1.75001,-0.62404,250.13,-43.5428,-24.4671,0,0,3.60171,5
1774536272842,0.577131,1.95433,-0.364276,250.13,-47.3124,-4.34653,0,0,3.28743,5
1774536272855,0.249535,2.61494,0.2087,250.13,-49.5264,21.5305,0,0,3.25851,5
1774536272869,0.172857,1.81158,0.255856,250.13,-47.4736,21.168,0,0,3.30516,5
1774536272882,0.0778875,-2.14084,0.870807,235.185,-40.8865,3.88046,0,0,3.27208,5
1774536272896,0.0266149,-3.0329,0.972161,33.5417,-32.4974,4.664,0,0,3.59199,3
1774536272909,0.0559062,0.247573,0.073061,-77.7238,-11.6596,23.5315,0,0,3.2751,3
1774536272923,0.0744616,1.02656,-0.0558992,-109.514,2.10481,39.9365,0,0,3.26021,3
1774536272936,0.123532,0.667506,0.00121671,-120.54,-3.99908,42.5034,0,0,3.28682,3
1774536272950,0.0556688,0.386006,0.0471159,-143.668,-12.1209,44.1372,0,0,3.30445,3
1774536272963,-0.0598064,0.125507,0.134027,-182.727,-11.7024,41.3363,0,0,3.30551,3
1774536272977,-0.12231,-0.0241594,0.275869,-238.732,-7.82501,29.0476,0,0,3.28315,3
1774536272991,-0.107667,0.156237,0.353022,-250.136,-5.16834,14.422,0,0,3.76519,3
1774536273004,-0.022711,0.556124,0.322024,-250.137,-2.53475,17.4957,0,0,3.27738,3
1774536273018,0.0195283,0.82005,0.211189,-250.137,2.23593,33.1732,0,0,3.26312,3
1774536273031,0.00171023,0.949454,0.114753,-250.137,8.51051,45.6851,0,0,3.31347,3
1774536273044,-0.00561472,1.05566,0.00830823,-250.137,14.1518,45.1146,0,0,3.2546,3
1774536273058,0.0141588,1.13818,-0.121573,-250.137,16.5645,32.208,0,0,3.26578,3
1774536273071,0.0761675,1.26928,-0.246329,-250.137,17.1602,18.9562,0,0,3.27036,3
1774536273085,0.18798,1.40697,-0.374015,-250.137,16.9008,19.1526,0,0,3.30251,3
1774536273098,0.242672,1.54247,-0.529042,-250.137,19.0531,29.3954,0,0,3.29036,3
1774536273112,0.207278,1.72411,-0.680898,-250.137,25.9913,40.1587,0,0,3.46451,5
1774536273125,0.184816,1.78979,-0.780755,-250.137,37.1052,50.8992,0,0,3.43323,5
1774536273140,0.104742,1.85253,-0.914053,-250.137,51.9749,61.0366,0,0,3.29993,5
1774536273153,-0.0485733,1.8938,-1.083,-250.137,70.5392,54.0392,0,0,3.31902,5
1774536273167,-0.11523,1.84497,-1.22021,-250.137,89.5544,26.9506,0,0,3.26719,5
1774536273180,0.0236719,1.72755,-1.32861,-250.137,101.525,3.32415,0,0,3.32326,5
1774536273194,0.325662,1.698,-1.45702,-250.137,103.916,-5.75436,0,0,3.30273,5
1774536273208,0.552963,1.69409,-1.64696,-250.137,94.2915,2.65523,0,0,3.74323,5
1774536273221,0.617915,1.66358,-1.87743,-250.137,79.5442,8.60979,0,0,3.27902,5
1774536273234,0.46339,1.54249,-2.1118,-221.279,68.6658,16.121,0,0,3.35565,5
1774536273248,0.261977,1.40528,-2.29271,-181.174,65.0616,24.556,0,0,3.27476,5
1774536273261,0.164069,1.24415,-2.4143,-130.031,62.3287,18.8711,0,0,3.25838,5
1774536273275,0.0192972,1.0796,-2.49438,-76.3592,55.1537,15.5043,0,0,3.29401,5
1774536273288,-0.211898,0.981696,-2.47266,-23.5194,48.8025,9.75659,0,0,3.3526,5
1774536273302,-0.369862,0.95093,-2.344,28.2518,43.8633,-19.0033,0,0,3.32052,5
1774536273315,-0.350831,0.943116,-2.12184,72.0698,40.0845,-54.1627,0,0,3.24532,5
1774536273329,-2.92023,3.99966,-0.312871,250.103,-6.27549,1.8084,0,0,3.60532,5
1774536273342,0.700674,2.22595,-0.275393,190.871,-85.4614,-82.4912,0,0,3.2773,5
1774536273356,0.106975,-0.453914,0.0649176,250.121,-41.2662,-84.3967,0,0,3.24325,5
1774536273369,-0.342254,0.654952,-0.0685942,250.13,-6.89828,-47.4483,0,0,3.25215,5
1774536273384,0.0761426,0.963601,-0.276353,250.13,-10.5185,-46.4124,0,0,4.78991,5
1774536273397,0.107664,0.910404,-0.418691,211.723,-16.4571,-40.9398,0,0,3.26528,5
1774536273411,-0.125228,0.789803,-0.430907,165.793,-14.1149,-22.1937,0,0,3.28819,5
1774536273425,-0.12915,0.701666,-0.551505,132.257,-4.78003,-13.4517,0,0,3.86193,5
1774536273439,-0.0351628,0.670656,-0.537355,97.448,-0.51209,-9.75628,0,0,3.28154,5
1774536273452,-0.0400387,0.384053,-0.409677,58.647,1.99962,-5.67237,0,0,3.27891,5
1774536273466,-0.0942345,0.859098,-0.486811,47.9482,6.80844,-0.37484,0,0,3.27388,5
1774536273479,-0.0207571,0.999258,-0.437015,44.7333,9.0302,8.15903,0,0,3.28086,5
1774536273493,0.0100076,0.82716,-0.491207,40.6876,10.9081,11.6865,0,0,3.30939,2
1774536273506,0.0800732,0.700937,-0.592278,26.712,8.59577,4.03168,0,0,3.27554,2
1774536273519,0.00854993,1.03367,-0.519536,13.0631,5.45085,2.0232,0,0,3.30295,2
1774536273533,0.0722612,0.843763,-0.492922,8.4816,3.17591,-0.617925,0,0,3.28028,2
1774536273547,0.0510269,0.892819,-0.478761,7.51923,2.69473,-0.0077251,0,0,3.64267,5
1774536273560,0.00879202,0.958736,-0.47583,3.48152,0.702589,3.13693,0,0,3.29858,5
1774536273574,0.044187,0.958496,-0.466065,4.75553,-0.885258,2.5955,0,0,3.25999,5
1774536273587,0.049316,0.981688,-0.475097,4.12223,-1.95404,2.30539,0,0,3.28545,5
1774536273600,0.0131861,0.960451,-0.471192,5.5952,-1.16806,4.93854,0,0,3.26538,5
1774536273614,0.00439515,0.978514,-0.469238,7.48063,1.44999,8.30484,0,0,3.31345,5
1774536273627,0.015136,0.9314,-0.478759,6.56502,3.64853,12.4421,0,0,3.31906,5
1774536273641,0.0241693,0.934814,-0.472657,7.39682,5.71725,14.6791,0,0,3.86802,5
1774536273655,0.0603002,0.952635,-0.476318,7.41221,5.74045,14.4275,0,0,3.31614,5
1774536273668,0.0703118,0.916751,-0.48291,6.31314,4.77114,13.504,0,0,3.27245,5
1774536273682,0.0781245,0.926757,-0.475342,5.66422,3.62613,12.8398,0,0,3.28199,5
1774536273695,0.0773926,0.93457,-0.481689,4.94667,1.24463,11.7101,0,0,3.28308,5
1774536273709,0.0791014,0.928955,-0.476563,4.68706,-0.228787,9.94683,0,0,3.32034,5
1774536273722,0.0815428,0.939941,-0.483398,4.93126,-1.32045,7.77132,0,0,3.26434,5
1774536273736,0.0764164,0.912355,-0.479737,4.51915,-1.83198,5.87815,0,0,3.34893,5
1774536273749,0.0893546,0.93286,-0.471192,5.14494,-1.56493,4.21399,0,0,3.27958,5
1774536273763,0.088379,0.9375,-0.476562,4.9008,-1.82439,1.00811,0,0,3.62956,5
1774536273776,0.0930173,0.918947,-0.488036,4.47335,-2.52661,-1.62556,0,0,3.28512,5
1774536273790,0.0732436,0.937743,-0.480225,4.32063,-2.16036,-3.71724,0,0,3.26278,5
1774536273803,0.0751952,0.945312,-0.483154,4.59538,-2.16794,-4.71741,0,0,3.31093,5
1774536273817,0.0859367,0.917727,-0.478272,4.7786,-2.38928,-5.14497,0,0,3.27767,5
1774536273830,0.0546897,0.938963,-0.501463,4.21383,-2.44274,-4.52681,0,0,3.47782,5
1774536273844,0.0573729,0.926759,-0.489015,3.90081,-3.1602,-3.90849,0,0,3.27895,5
1774536273858,0.0668939,0.953856,-0.488281,4.65638,-3.73274,-3.79391,0,0,3.79902,5
1774536273871,0.0549325,0.919436,-0.49414,4.29776,-3.85494,-3.51913,0,0,3.25912,5
1774536273884,0.0561523,0.936766,-0.492188,4.54958,-3.44281,-3.01534,0,0,3.25458,5
1774536273898,0.0551758,0.942871,-0.482667,4.11457,-3.33589,-2.68707,0,0,3.26665,5
1774536273911,0.0493168,0.951904,-0.497069,6.9843,-1.86282,-1.68717,0,0,3.28647,5
1774536273925,0.0595696,0.984617,-0.495117,7.21371,-2.50372,-0.580319,0,0,3.28945,5
1774536273938,0.0722647,0.922612,-0.5,8.0991,-2.77095,0.694465,0,0,3.25371,5
1774536273951,0.0244174,0.951658,-0.51123,9.05329,-1.5727,3.09124,0,0,3.31862,5
1774536273965,0.057859,0.959716,-0.491945,9.70983,-1.41224,5.00735,0,0,3.34445,5
1774536273979,0.0151397,1.01684,-0.500976,13.2819,-0.58791,7.8927,0,0,3.58675,5
1774536273992,0.069088,0.976565,-0.514647,16.9384,0.190723,12.526,0,0,3.27138,5
1774536274005,0.0263702,1.12328,-0.517334,20.0911,1.28991,16.839,0,0,3.26821,5
1774536274019,0.0668917,1.3308,-0.53784,26.6937,1.45036,19.3889,0,0,3.28314,5
1774536274032,0.345684,1.25025,-0.40455,47.1801,-1.23624,42.5156,0,0,3.26645,5
1774536274046,-0.0417209,1.44213,-0.589343,68.9357,6.28895,29.7118,0,0,3.29658,5
1774536274059,0.121571,1.40552,-0.568361,76.4798,2.40516,42.395,0,0,3.26986,5
1774536274073,0.106935,1.58177,-0.63232,93.3486,1.10706,30.3835,0,0,3.81589,5
1774536274087,0.0854507,1.6687,-0.56934,124.949,-1.07601,27.4661,0,0,3.24095,5
1774536274100,0.0942377,1.5359,-0.523685,148.615,-1.7022,28.5342,0,0,3.26951,5
1774536274113,0.245351,1.4729,-0.51294,168.333,-5.96883,22.8405,0,0,3.2793,5
1774536274127,0.220949,1.72166,-0.581294,192.874,-11.2435,23.954,0,0,3.30184,5
1774536274140,0.159184,1.85937,-0.551272,223.278,-14.1751,23.7405,0,0,3.27402,5
1774536274154,0.0935105,1.96117,-0.552002,250.126,-15.7555,24.7632,0,0,3.30747,5
1774536274167,0.175043,2.35764,-0.552246,250.13,-18.4271,22.7789,0,0,3.31254,5
1774536274181,0.158693,2.16603,-0.524172,250.13,-19.725,15.4362,0,0,3.31847,5
1774536274195,0.137697,2.13989,-0.701159,250.13,-23.8162,13.5117,0,0,3.69476,5
1774536274208,0.236565,1.78323,-0.538341,250.13,-14.8487,19.9532,0,0,3.29143,5
1774536274222,0.148688,2.20627,-0.94211,250.13,-28.1049,0.178538,0,0,3.28351,5
1774536274235,0.152099,2.69357,-0.371866,250.13,-14.1319,49.6185,0,0,3.28089,5
1774536274249,0.168944,2.10502,0.0146214,250.13,-21.9301,71.0884,0,0,3.27665,5
1774536274262,0.0371186,1.98731,0.742137,250.13,-32.1664,55.8038,0,0,3.27769,5
1774536274275,1.46499,-3.79086,1.21432,250.13,-87.9382,-4.5253,0,0,3.30447,5
1774536274289,0.118502,-0.677708,0.74808,15.9664,-119.949,-29.9885,0,0,3.87539,5
1774536274303,-0.0588255,-0.26956,0.10527,-37.6484,-110.116,-0.958552,0,0,3.2779,3
1774536274316,-0.00342185,0.323933,0.362531,-76.4446,-106.581,43.8559,0,0,3.25684,3
1774536274330,-0.0507779,0.525865,0.144302,-102.233,-94.7728,58.3871,0,0,3.27119,3
1774536274343,-0.264389,0.421394,0.120363,-125.126,-86.0395,61.7705,0,0,3.28932,3
1774536274357,-0.519758,0.00906206,0.201166,-169.894,-64.1331,49.5362,0,0,3.27584,3
1774536274370,-0.562497,-0.302468,0.30346,-243.378,-41.6293,14.8449,0,0,3.27971,3
1774536274383,-0.384778,0.119111,0.318847,-250.136,-22.5983,-9.90469,0,0,3.29197,3
1774536274397,-0.180434,0.644494,0.206551,-250.137,-7.54424,-4.49699,0,0,3.26862,3
1774536274411,-0.016613,0.88011,0.0908284,-250.137,4.47148,13.9209,0,0,3.59597,2
1774536274424,0.0402792,0.922116,-0.0451565,-250.137,13.1132,28.3108,0,0,3.2716,2
1774536274437,0.0349125,1.03295,-0.14013,-250.137,19.7242,30.4806,0,0,3.25545,2
1774536274451,0.0324709,1.19847,-0.329577,-250.137,23.862,24.8329,0,0,3.31952,2
1774536274464,0.0859338,1.30126,-0.457511,-250.137,26.1065,17.6957,0,0,3.24962,2
1774536274478,0.118406,1.25489,-0.486082,-250.137,27.9692,15.2141,0,0,3.26912,2
1774536274491,0.120605,1.38915,-0.537106,-250.137,30.969,14.1834,0,0,3.28078,2
1774536274505,0.0593305,1.52953,-0.609126,-250.137,38.7317,12.0538,0,0,3.70936,2
1774536274518,-0.0117138,1.58276,-0.591554,-250.137,50.3876,11.8092,0,0,3.25756,5
1774536274532,-0.0422342,1.62475,-0.611327,-250.137,63.3568,11.1375,0,0,3.38993,5
1774536274545,-0.0822726,1.66504,-0.656735,-250.137,74.6395,-3.01314,0,0,3.26556,5
1774536274558,-0.0354037,1.68555,-0.763909,-250.137,81.4417,-21.7224,0,0,3.30467,5
1774536274572,0.130604,1.67334,-0.931385,-250.137,82.9311,-29.0829,0,0,3.26743,5
1774536274585,0.447488,1.87596,-1.21775,-250.137,74.6196,-25.1151,0,0,3.2916,5
1774536274599,0.656724,2.02343,-1.57615,-250.137,56.5294,-13.1087,0,0,3.54245,5
1774536274612,0.702389,2.00049,-1.83592,-250.137,36.5221,2.5778,0,0,3.31523,5
1774536274626,0.524182,1.81178,-2.05101,-234.361,24.5819,25.4393,0,0,3.2613,5
1774536274639,0.341077,1.6172,-2.208,-190.785,23.4353,46.3251,0,0,3.26654,5
1774536274653,0.273442,1.37843,-2.35082,-141.015,21.2446,65.2109,0,0,3.27538,5
1774536274666,0.0205255,1.01589,-2.41577,-99.5406,13.6653,92.9271,0,0,3.2733,5
1774536274679,-0.367404,0.892587,-2.49218,-54.1213,12.13,79.5974,0,0,3.28351,5
1774536274693,-0.597884,0.820073,-2.50537,0.930675,11.9848,23.5733,0,0,3.28684,5
1774536274706,0.393974,3.26936,-3.9999,32.1175,-31.9858,-119.582,0,0,3.29717,5
1774536274721,0.590074,-3.77954,1.33605,250.097,-58.7364,-76.1516,0,0,4.43654,5
1774536274734,-0.948135,3.12305,0.492491,250.13,-49.5128,-54.5834,0,0,3.27601,5
1774536274748,-0.257861,2.2215,-0.075888,250.13,-23.5306,-55.3052,0,0,3.25512,5
1774536274761,-0.11085,1.09407,-0.357646,250.13,-14.9402,-39.7428,0,0,3.28904,5
1774536274775,-0.0376028,0.550575,-0.405026,237.842,-3.7803,-28.391,0,0,3.25495,5
1774536274788,0.0341747,0.475347,-0.513908,193.671,-6.45761,-18.3374,0,0,3.26119,5
1774536274801,-0.1079,0.561029,-0.574703,154.533,-3.1608,-6.55902,0,0,3.24493,5
1774536274815,-0.179438,0.557373,-0.586181,109.259,6.47184,7.37959,0,0,3.79123,5
1774536274829,0.0309911,0.419931,-0.597655,65.9378,10.3964,10.6102,0,0,3.25127,3
1774536274842,-0.049799,0.811496,-0.547367,47.644,8.66438,8.07672,0,0,3.25095,3
1774536274856,-0.0710434,0.958242,-0.446784,36.9405,14.4342,11.946,0,0,3.36352,3
1774536274869,-0.0043992,0.947511,-0.391361,33.7028,14.2901,19.4798,0,0,3.29527,3
1774536274882,0.0190413,0.42948,-0.569323,25.6577,14.229,14.6648,0,0,3.26995,3
1774536274896,0.0568821,1.15766,-0.475104,11.5975,9.09237,5.76469,0,0,3.27652,5
1774536274909,0.191641,0.750029,-0.468262,5.14601,3.58098,-5.90665,0,0,3.27104,5
1774536274928,0.0532323,0.897206,-0.473632,7.59505,1.1912,-10.5642,0,0,7.01096,5
1774536274941,0.103024,0.954586,-0.482421,8.09916,-4.22819,-17.6783,0,0,3.24528,5
1774536274955,0.096436,0.952149,-0.473145,8.29768,-8.2742,-22.6939,0,0,3.25621,5
1774536274968,0.0327193,0.972899,-0.475342,8.77855,-10.3508,-24.0761,0,0,3.34065,5
1774536274981,-0.00463606,0.974365,-0.489745,10.6562,-10.4427,-21.8782,0,0,3.30882,5
1774536274995,-0.0500456,0.954591,-0.489014,9.83218,-7.97747,-15.7032,0,0,3.26847,5
1774536275008,-0.0576167,0.977293,-0.491211,9.90839,-3.79452,-8.85599,0,0,3.25812,5
1774536275021,-0.065185,0.96338,-0.48999,8.90091,0.900059,-0.810367,0,0,3.26836,5
1774536275035,-0.0390643,0.964111,-0.493896,8.8397,4.14455,5.54103,0,0,3.25458,5
1774536275048,-0.0139178,0.938967,-0.494873,8.22147,6.41951,9.06054,0,0,3.24876,5
1774536275061,0.0278291,0.928712,-0.486085,7.91608,2.41281,8.62602,0,0,3.28391,5
1774536275075,0.0393058,0.934082,-0.494628,7.04593,1.04601,7.29028,0,0,3.26704,5
1774536275088,0.0922814,0.917726,-0.502441,6.1986,-0.343303,5.54988,0,0,3.24369,5
1774536275101,0.0637227,0.926025,-0.481691,6.38165,-1.59523,3.19119,0,0,3.25689,5
1774536275115,0.0571294,0.927246,-0.487793,5.43526,-3.09138,1.16824,0,0,3.23589,5
1774536275128,0.0290547,0.917481,-0.493164,5.90833,-3.33584,-0.0761492,0,0,3.27393,5
1774536275142,0.0146494,0.923095,-0.490723,5.72522,-3.38167,-0.221352,0,0,3.24132,5
1774536275155,0.00317463,0.932128,-0.485352,6.25946,-2.48105,0.60293,0,0,3.2466,5
1774536275168,0.0136711,0.923829,-0.489258,6.00767,-1.95428,0.816762,0,0,3.27343,5
1774536275182,0.0195308,0.920166,-0.499755,6.96932,-2.2595,0.580188,0,0,3.25326,5
1774536275195,0.0227049,0.912598,-0.496826,6.42756,-2.20611,0.221428,0,0,3.25895,5
1774536275208,0.0112313,0.933592,-0.497314,6.74804,-2.33586,1.16016,0,0,3.27038,5
1774536275224,0.00903336,0.923585,-0.504638,6.60308,-2.39694,2.56467,0,0,5.51724,5
1774536275237,0.0229482,0.936523,-0.50708,6.62595,-2.8091,2.72517,0,0,3.26901,5
1774536275255,0.0119637,0.89014,-0.506348,4.93918,-3.0076,3.40448,0,0,7.37788,5
1774536275268,0.0236808,0.909911,-0.501953,6.33567,-3.55717,2.83978,0,0,3.27193,5
1774536275283,0.000489905,0.927245,-0.520018,5.19101,-2.66426,4.29749,0,0,4.88489,5
1774536275297,0.0170887,0.918458,-0.498781,8.28198,-1.36661,4.83198,0,0,3.24797,5
1774536275311,0.00927789,0.973385,-0.50415,8.52668,-1.48853,6.06852,0,0,3.25591,5
1774536275325,0.0353986,0.976562,-0.507812,9.48077,-1.91597,7.61809,0,0,4.81613,5
1774536275339,0.0671365,0.997801,-0.512695,12.7018,-3.79361,7.58779,0,0,3.91036,5
1774536275353,0.0854479,1.19481,-0.524901,19.2128,-7.26665,0.214846,0,0,3.23156,5
1774536275366,0.106688,1.0691,-0.552732,21.4043,-10.8773,2.14475,0,0,3.27797,5
1774536275380,0.0578647,1.46115,-0.579588,37.6998,-8.62629,24.6607,0,0,3.27716,5
1774536275395,0.103268,1.11355,-0.605467,53.9289,-3.46642,29.2741,0,0,5.17859,5
1774536275408,0.0146546,1.60348,-0.60376,63.9909,-6.48046,17.9406,0,0,3.26804,5
1774536275422,0.0161132,1.58692,-0.602295,102.544,-4.93916,12.3901,0,0,3.27912,5
1774536275435,0.0439434,1.5376,-0.571779,120.501,-7.81636,16.404,0,0,3.2798,5
1774536275448,-0.055413,1.78367,-0.590087,151.102,-6.73299,13.4814,0,0,3.28838,5
1774536275463,0.188948,1.81885,-0.484382,188.3,-9.44234,6.39801,0,0,4.01932,5
1774536275476,0.347889,1.51784,-0.493652,216.484,-19.6015,-0.869139,0,0,3.23958,5
1774536275489,0.344727,1.70433,-0.495849,234.929,-30.3724,-4.83147,0,0,3.23427,5
1774536275503,0.471183,2.4084,-0.621573,250.127,-42.4944,-13.5101,0,0,3.2736,5
1774536275516,0.396734,2.59886,-0.592775,250.13,-53.4182,-6.4896,0,0,3.24871,5
1774536275529,0.352298,2.07865,-0.587159,250.13,-58.1367,18.439,0,0,3.25628,5
1774536275543,0.194835,2.29198,-0.443369,250.13,-57.7558,30.8531,0,0,3.28334,3
1774536275556,-0.151343,2.37768,-0.707745,250.13,-53.2907,11.957,0,0,3.69078,3
1774536275570,0.383507,2.34229,-0.37307,250.13,-52.6184,38.7059,0,0,3.2716,3
1774536275583,0.621565,1.98098,0.0700373,250.13,-68.303,66.5836,0,0,3.24886,3
1774536275597,0.562016,2.14135,0.4177,250.13,-90.3402,60.1002,0,0,3.27056,3
1774536275610,0.216333,2.1709,0.643539,250.13,-112.127,20.1739,0,0,3.24123,3
1774536275623,-0.0253737,-2.39494,0.164584,250.13,-104.314,-78.489,0,0,3.2713,3
1774536275637,-0.25804,-0.773551,0.601532,250.13,-101.168,-121.681,0,0,3.2601,3
1774536275650,-0.303708,-0.670906,0.303488,116.157,-68.8598,-99.1942,0,0,3.25769,3
1774536275663,-0.160899,-0.916487,0.481189,-3.94382,-32.6238,-15.0584,0,0,3.26306,3
1774536275677,-0.0217383,-0.719008,0.518308,-119.044,1.14761,68.4531,0,0,3.28065,3
1774536275690,-0.176991,-0.115765,0.445073,-193.538,30.2399,117.725,0,0,3.2713,3
1774536275703,-0.437726,0.0434459,0.47949,-247.106,64.0102,138.104,0,0,3.24569,3
1774536275717,-0.54052,-0.0588307,0.509275,-250.137,95.2014,128.65,0,0,3.28334,3
1774536275732,-0.45899,0.110828,0.524901,-250.137,113.524,75.3515,0,0,3.37791,2
1774536275745,-0.267836,0.728961,0.395517,-250.137,114.481,30.106,0,0,3.45789,2
1774536275759,-0.0813119,1.03269,0.16652,-250.137,106.673,15.0099,0,0,3.28158,2
1774536275772,0.324679,1.06567,0.0859431,-250.137,89.0942,33.3789,0,0,3.31497,2
1774536275786,0.438713,0.964607,0.0205124,-250.137,62.9734,93.075,0,0,3.30914,2
1774536275799,0.414797,0.930178,0.0310051,-250.137,32.4015,119.065,0,0,3.26141,2
1774536275812,0.248059,1.22361,-0.06762,-250.137,-0.20885,102.88,0,0,3.34952,5
1774536275826,0.121591,1.46141,-0.215566,-250.137,-32.7203,66.5856,0,0,3.3081,5
1774536275839,-0.0126859,1.57299,-0.426499,-250.137,-59.0724,40.668,0,0,3.30101,5
1774536275853,-0.118157,1.76341,-0.597156,-250.137,-71.418,33.1462,0,0,3.24715,5
1774536275866,-0.394024,1.7893,-0.786852,-250.137,-62.3067,44.0747,0,0,3.54254,5
1774536275880,-0.59691,1.84716,-0.960193,-250.137,-36.2558,50.8158,0,0,3.27695,5
1774536275893,-0.76244,1.97314,-1.11889,-250.137,1.97137,45.2451,0,0,3.29088,5
1774536275908,-0.797361,2.02002,-1.33055,-250.137,51.5498,17.0958,0,0,3.36693,5
1774536275922,-0.391874,1.95557,-1.41308,-250.137,84.1783,-6.14155,0,0,3.35617,5
1774536275935,0.165,1.88331,-1.49658,-250.137,94.9831,-6.37401,0,0,3.31493,5
1774536275948,0.521948,1.90234,-1.63231,-250.137,88.0316,3.38785,0,0,3.29028,5
1774536275962,0.579098,1.76832,-1.77782,-236.063,74.9027,21.0355,0,0,3.26658,5
1774536275975,0.339372,1.57692,-1.8081,-200.349,66.2608,36.5855,0,0,3.33523,5
1774536275989,0.0547074,1.51612,-1.81177,-161.075,62.0541,35.7711,0,0,3.45784,5
1774536276004,0.0117218,1.32008,-1.7356,-110.16,52.6503,6.92036,0,0,3.28545,5
1774536276017,0.168202,1.11525,-1.71753,-68.7238,29.431,-14.7448,0,0,3.26076,5
1774536276031,0.296866,0.989023,-1.72119,-31.2652,2.9658,-18.3964,0,0,3.25641,5
1774536276044,0.274904,0.878182,-1.67701,1.75841,-17.7526,-6.19267,0,0,3.24382,5
1774536276057,0.111584,0.875977,-1.55592,31.1254,-29.1433,3.99084,0,0,3.2691,5
1774536276071,-0.0871443,0.983391,-1.30104,62.4152,-31.7553,-6.41065,0,0,3.55049,5
1774536276084,-0.229482,0.992675,-0.977318,85.4851,-23.7417,-30.3094,0,0,3.27019,5
1774536276098,-1.95886,3.99967,-0.0916147,250.105,-67.253,20.9847,0,0,3.27267,5
1774536276111,1.15945,1.67985,-0.139645,166.738,-109.856,-85.1139,0,0,3.29638,5
1774536276125,-0.348771,-0.477144,-0.154052,223.304,-51.4668,-72.4675,0,0,3.26478,5
1774536276138,-0.44555,0.882229,-0.0669006,240.44,1.40428,-34.2576,0,0,3.24903,5
1774536276151,0.129598,1.11449,-0.186271,225.239,0.297876,-42.2125,0,0,3.27864,5
1774536276165,0.0158771,1.042,-0.318594,198.821,-5.28161,-32.9174,0,0,3.25256,5
1774536276178,-0.219466,0.809831,-0.415276,161.807,-15.9602,-10.2629,0,0,3.32236,2
1774536276192,0.0380679,0.858151,-0.471187,134.577,-19.259,-2.19968,0,0,3.25351,2
1774536276205,-0.125477,0.815433,-0.491942,105.279,-11.2455,4.40359,0,0,3.89541,2
1774536276219,-0.106203,0.816894,-0.522459,79.7061,1.34162,9.96863,0,0,3.31384,2
1774536276233,-0.0439497,0.728522,-0.526611,47.6002,3.94617,12.1294,0,0,3.31362,2
1774536276250,-0.0227066,0.823724,-0.444342,35.7193,6.70188,17.8694,0,0,6.90249,2
1774536276265,0.034664,0.944327,-0.429933,34.0079,9.89265,22.5337,0,0,5.06417,2
1774536276279,0.0642069,0.949707,-0.42627,35.4731,12.0226,21.6719,0,0,3.29778,2
1774536276292,0.157464,0.793712,-0.470212,27.963,7.99297,11.3374,0,0,3.27195,2
1774536276306,0.129641,0.789795,-0.51904,19.8791,5.19889,2.44408,0,0,3.29725,2
1774536276319,0.124512,0.930898,-0.45313,11.1311,0.840348,-0.365991,0,0,3.27015,5
1774536276332,0.0727575,0.941406,-0.464355,12.2746,1.3358,-1.06096,0,0,3.32049,5
1774536276346,0.105955,0.938233,-0.475097,10.214,-0.892796,-4.45751,0,0,3.2668,5
1774536276359,0.0747092,0.972166,-0.462647,8.20641,-3.49579,-3.97717,0,0,3.28376,5
1774536276373,0.0761718,0.9729,-0.466797,9.51125,-3.24431,-3.33597,0,0,3.26964,5
1774536276386,0.00464368,0.96753,-0.477294,8.94665,-1.29037,2.00683,0,0,3.26943,5
1774536276399,0.0205067,0.95215,-0.470704,9.11448,1.11414,5.47276,0,0,3.27699,5
1774536276413,0.032714,0.963134,-0.471191,9.83959,3.03025,7.74012,0,0,3.24562,5
1774536276426,0.0761688,0.925784,-0.468994,9.15277,3.69456,7.87021,0,0,3.30358,5
1774536276439,0.0795896,0.902834,-0.462159,7.97728,4.35868,7.40465,0,0,3.28317,5
1774536276453,0.0886224,0.929197,-0.472656,7.89314,3.67949,5.54226,0,0,3.30947,5
1774536276466,0.0720226,0.927002,-0.476806,6.733,2.48873,3.85521,0,0,3.28516,5
1774536276480,0.0793452,0.940429,-0.47583,6.12223,0.679661,2.83985,0,0,3.27345,5
1774536276493,0.0927725,0.911623,-0.475098,4.62618,-1.96144,1.67956,0,0,3.28623,5
1774536276506,0.0637227,0.938719,-0.484863,3.78639,-2.8243,1.83967,0,0,3.25614,5
1774536276520,0.0739739,0.945312,-0.470948,4.01523,-3.58004,1.50387,0,0,3.24806,5
1774536276533,0.0812983,0.944336,-0.470215,3.38177,-3.89308,0.946648,0,0,3.27773,5
1774536276546,0.0859372,0.92505,-0.483886,3.93885,-3.76338,-0.251729,0,0,3.26341,5
1774536276560,0.0978996,0.929687,-0.467042,3.83208,-3.61071,-2.35083,0,0,3.27088,5
1774536276573,0.0886237,0.913819,-0.466309,3.12224,-4.41209,-4.19056,0,0,3.24143,5
1774536276586,0.0969232,0.914062,-0.482177,3.90065,-4.832,-6.60269,0,0,3.30612,5
1774536276600,0.0876471,0.932128,-0.478028,3.49624,-5.0305,-7.89294,0,0,3.29273,5
1774536276613,0.0478543,0.93335,-0.482177,3.28247,-4.45047,-7.22911,0,0,3.27241,5
1774536276627,0.0578606,0.941894,-0.486816,3.18322,-4.68699,-6.31311,0,0,3.27201,5
1774536276640,0.0559083,0.934327,-0.493652,4.03804,-4.52674,-5.58026,0,0,3.30106,5
1774536276653,0.0273457,0.940185,-0.497314,3.67944,-4.23668,-3.7331,0,0,3.27062,5
1774536276667,0.0380852,0.920656,-0.496826,3.90836,-3.86265,-2.03079,0,0,3.25888,5
1774536276680,0.0583482,0.961667,-0.487061,4.58005,-3.59546,-1.80919,0,0,3.63163,3
1774536276694,0.0717764,0.97705,-0.486084,6.28219,-3.44277,-1.54202,0,0,3.25465,3
1774536276707,0.065186,0.961427,-0.478272,8.04554,-3.64119,-1.9694,0,0,3.27954,3
1774536276720,0.0402849,0.977538,-0.484375,8.77852,-2.57268,-0.542199,0,0,3.23895,3
1774536276734,0.0336919,0.972168,-0.488281,12.1369,-1.06893,1.2669,0,0,3.27677,3
1774536276747,0.0539537,0.986083,-0.493896,12.977,-0.664183,3.6256,0,0,3.26101,3
1774536276761,0.043946,0.991211,-0.507812,16.7704,-2.67909,5.51117,0,0,3.28419,3
1774536276774,0.0588368,1.00854,-0.492189,17.3892,-3.19076,8.60259,0,0,3.30212,3
1774536276787,0.0717764,1.11034,-0.497558,24.4493,-3.70221,13.587,0,0,3.28519,3
1774536276801,-0.0925178,1.47605,-0.569575,37.2882,-2.01552,9.37468,0,0,3.36623,3
1774536276814,0.297092,1.44141,-0.567383,55.1042,-4.49581,35.1564,0,0,3.28425,3
1774536276828,0.00197378,1.27565,-0.57666,68.8758,4.95278,38.3736,0,0,3.2743,3
1774536276841,0.0581015,1.33789,-0.554445,75.77,2.85528,40.6943,0,0,3.25554,3
1774536276854,-0.00536665,1.70627,-0.602536,96.0428,3.9235,29.3986,0,0,3.30138,3
1774536276868,0.0773868,1.54322,-0.51734,127.278,3.3207,30.9998,0,0,3.25108,3
1774536276881,0.0986313,1.28664,-0.527343,143.578,2.0002,25.9168,0,0,3.28769,3
1774536276894,0.201897,1.4746,-0.535156,159.784,-0.991918,23.6263,0,0,3.2786,5
1774536276908,0.246335,1.61156,-0.579343,184.134,-6.89988,15.5737,0,0,3.27712,5
1774536276921,0.256347,1.85985,-0.562989,213.965,-12.793,15.603,0,0,3.27508,5
1774536276935,0.342523,2.07127,-0.557129,249.315,-22.4566,16.9693,0,0,3.25389,5
1774536276948,0.30347,2.11035,-0.526369,250.13,-29.5943,14.2828,0,0,3.35075,5
1774536276961,0.435782,2.24657,-0.600337,250.13,-37.4874,10.283,0,0,3.34097,5
1774536276975,0.43335,2.00612,-0.590577,250.13,-43.3045,11.8929,0,0,3.30345,5
1774536276988,0.372563,2.09423,-0.612303,250.13,-46.1522,16.4115,0,0,3.39164,5
1774536277002,0.0962107,2.06812,-0.697748,250.13,-57.1739,17.1984,0,0,3.2968,5
1774536277015,0.197259,2.37205,-0.821036,250.13,-43.8417,16.9848,0,0,3.31921,5
1774536277029,0.281732,2.34473,-0.296912,250.13,-40.2677,76.7162,0,0,3.29186,5
1774536277042,0.112072,2.20362,0.468452,250.13,-41.267,119.032,0,0,3.29395,5
1774536277055,0.104493,0.253554,1.91323,250.13,-55.2803,86.7224,0,0,3.29532,5
1774536277069,-0.272679,-3.9997,1.02155,160.22,-83.2324,51.9823,0,0,3.27808,5
1774536277082,-0.308835,0.412045,-0.0441149,68.9831,-76.4361,3.15236,0,0,3.30573,5
1774536277096,-0.446768,0.786351,0.0961816,-15.7049,-50.6604,-24.3776,0,0,3.30225,4
1774536277109,-0.206072,0.531756,0.00977167,-53.6355,-33.9643,-27.3049,0,0,3.30027,4
1774536277123,-0.0774016,0.531982,-0.0649362,-74.9281,-31.1378,-31.6024,0,0,3.29002,4
1774536277136,-0.148433,0.229269,0.0908094,-102.171,-25.8787,-35.1521,0,0,3.35484,1
1774536277149,-0.136475,-0.0175608,0.199455,-145.024,-21.3595,-45.5786,0,0,3.29251,1
1774536277163,-0.0903353,-0.362281,0.371814,-212.364,-20.481,-62.4936,0,0,3.27243,1
1774536277176,0.0112234,-0.0918158,0.464837,-250.132,-24.7703,-66.839,0,0,3.30091,1
1774536277190,0.101068,0.407436,0.377692,-250.137,-27.2515,-49.8422,0,0,3.28638,1
1774536277203,0.16479,0.748511,0.221446,-250.137,-27.168,-23.0956,0,0,3.31965,1
1774536277216,0.121341,0.942125,0.0410283,-250.137,-24.9927,-0.583529,0,0,3.27354,2
1774536277230,-0.00414161,0.94043,-0.0600515,-250.137,-18.085,6.80042,0,0,3.29778,2
1774536277243,-0.064693,1.01757,-0.172111,-250.137,-8.63501,-1.556,0,0,3.29049,2
1774536277257,-0.0588383,1.11694,-0.31664,-250.137,2.0671,-11.2505,0,0,3.26562,2
1774536277270,0.0095167,1.22363,-0.438712,-250.137,14.4867,-14.4423,0,0,3.30962,2
1774536277283,0.0832468,1.38524,-0.510981,-250.137,27.7537,-8.5276,0,0,3.2703,2
1774536277297,-0.404019,1.65306,-0.654043,-250.137,46.0049,-4.34414,0,0,3.51449,3
1774536277311,0.0199899,1.60523,-0.617922,-250.137,65.2261,-1.90113,0,0,3.32871,3
1774536277324,0.0705531,1.55274,-0.625976,-250.137,86.1419,-9.76218,0,0,3.4093,3
1774536277338,0.156244,1.63427,-0.652098,-250.137,105.364,-18.1743,0,0,3.31052,3
1774536277351,0.382064,1.73803,-0.681883,-250.137,118.899,-20.6485,0,0,3.3536,3
1774536277364,0.719215,1.86669,-0.779534,-250.137,120.969,-10.5511,0,0,3.28093,3
1774536277378,1.00999,2.0017,-0.983384,-250.137,110.337,21.2013,0,0,3.29347,3
1774536277391,1.08911,2.01343,-1.21629,-250.137,91.5143,57.1625,0,0,3.31401,3
1774536277405,0.905042,1.96656,-1.51097,-250.137,67.6066,82.2634,0,0,3.30228,3
1774536277418,0.556665,1.9375,-1.7556,-250.137,48.0487,98.1198,0,0,3.29553,3
1774536277432,0.222191,1.87818,-2.02147,-240.673,31.7963,100.946,0,0,3.28926,3
1774536277445,0.215333,1.66872,-2.17455,-192.16,6.86633,77.3776,0,0,3.26458,3
1774536277458,0.261716,1.20291,-2.39598,-151.136,-27.0102,49.798,0,0,3.27704,3
1774536277472,0.193364,1.09962,-2.61156,-101.672,-50.4087,42.0928,0,0,3.26015,3
1774536277485,-0.0925093,1.07813,-2.70043,-40.8946,-56.9761,62.0123,0,0,3.39882,3
1774536277499,-0.609095,0.938242,-2.61988,18.7163,-48.528,52.1084,0,0,3.30132,3
1774536277512,-0.938698,0.885746,-2.40358,71.4654,-28.5755,2.24412,0,0,3.34864,5
1774536277526,-2.51551,3.99966,-0.886581,250.103,-23.8404,-62.746,0,0,3.27165,5
1774536277539,0.356977,1.86587,-0.51443,201.481,-61.6813,-117.671,0,0,3.3138,5
1774536277552,0.168958,-0.36459,0.185986,250.122,-7.2906,-97.9877,0,0,3.26719,5
1774536277566,-0.200414,0.528502,-0.173071,250.13,4.84551,-61.7154,0,0,3.25669,5
1774536277579,0.00584494,1.20308,-0.255365,250.13,8.64065,-39.0263,0,0,3.26001,3
1774536277593,-0.180651,0.900168,-0.496321,242.421,-6.79158,-7.29484,0,0,3.28451,5
1774536277606,-0.171143,0.911132,-0.564204,196.816,-1.45882,12.5619,0,0,3.3053,2
1774536277619,-0.0383394,0.699234,-0.617916,147.298,7.11322,12.458,0,0,3.2548,2
1774536277633,-0.0507804,0.36599,-0.616455,91.0237,5.87805,-1.08194,0,0,3.25703,2
1774536277646,-0.0695788,0.740208,-0.589357,69.1407,8.55685,-5.6787,0,0,3.24845,2
1774536277659,0.0143984,0.830804,-0.545901,52.5674,12.4574,1.57143,0,0,3.2731,2
1774536277673,0.0969181,0.728035,-0.618647,38.4601,8.32886,1.50383,0,0,3.27923,2
1774536277686,0.0888678,0.791988,-0.579837,25.5668,5.44318,-4.99139,0,0,3.25414,2
1774536277700,0.103515,0.799072,-0.516362,12.9561,0.306114,-10.5106,0,0,3.2853,2
1774536277713,0.0434612,0.885004,-0.495363,8.71819,-2.02255,-8.32094,0,0,3.25377,2
1774536277726,0.0146505,0.922117,-0.500976,4.87844,-4.76295,-5.0005,0,0,3.27264,5
1774536277740,0.00781298,0.943358,-0.481203,2.80947,-6.48829,-1.70278,0,0,3.25806,5
1774536277753,-0.0144027,0.907717,-0.493163,3.37396,-5.06128,2.73979,0,0,3.24784,5
1774536277766,-0.0163573,0.968257,-0.502441,3.54196,-1.3517,7.18254,0,0,3.26371,5
1774536277780,-0.0068366,0.963867,-0.485841,4.97688,2.48797,10.1217,0,0,3.25078,5
1774536277793,0.0263649,0.988768,-0.484863,7.64082,5.96894,11.6868,0,0,3.37725,5
1774536277806,0.0720183,0.922368,-0.496337,8.51895,6.29003,8.51193,0,0,3.26639,5
1774536277821,0.0844718,0.943358,-0.483155,9.08388,5.75581,3.80987,0,0,4.70793,5
1774536277835,0.0908199,0.916506,-0.483398,10.1296,2.42798,-1.61751,0,0,3.32521,5
1774536277849,0.0808112,0.923828,-0.482666,9.66419,-0.396523,-4.22862,0,0,3.85826,5
1774536277864,0.028324,0.903322,-0.506346,8.52689,-2.82406,-4.48851,0,0,3.50588,5
1774536277878,0.033691,0.912841,-0.502442,6.91627,-4.76307,-4.28247,0,0,3.48654,5
1774536277892,0.0410151,0.932372,-0.50293,7.12211,-5.77084,-4.87777,0,0,3.47412,5
1774536277905,0.0263682,0.943359,-0.501953,7.84722,-5.56492,-4.91602,0,0,3.43819,5
1774536277919,0.0402822,0.926759,-0.51538,7.99234,-4.21394,-4.9313,0,0,4.07326,5
1774536277933,0.0190445,0.91089,-0.52246,7.78629,-3.20626,-4.85497,0,0,3.45449,5
1774536277947,0.0351551,0.914306,-0.497316,7.29778,-2.53445,-4.93892,0,0,3.44423,5
1774536277962,0.0117204,0.914307,-0.509277,6.46577,-1.70241,-3.85512,0,0,3.4641,5
1774536277976,0.0119629,0.897218,-0.518066,5.42,-1.18328,-2.24452,0,0,3.44504,5
1774536277993,0.0229484,0.912597,-0.516846,4.07654,-2.86998,0.121783,0,0,6.76544,5
1774536278007,0.0229492,0.907471,-0.520752,2.54221,-2.90839,1.96919,0,0,3.61454,5
1774536278021,0.0227051,0.925536,-0.510743,2.50382,-3.01525,3.07617,0,0,3.983,5
1774536278039,0.014649,0.909425,-0.512207,1.25973,-2.70997,3.80905,0,0,3.7731,5
1774536278052,0.0170897,0.907227,-0.512695,1.61827,-2.3054,4.32817,0,0,3.30169,5
1774536278067,0.0175781,0.905274,-0.519287,1.2367,-1.53447,4.93884,0,0,3.30404,5
1774536278080,0.0166016,0.930662,-0.517334,2.10674,-0.984815,5.24423,0,0,3.28197,5
1774536278093,0.054929,0.939697,-0.517334,3.5265,-1.93116,3.63383,0,0,3.27993,5
1774536278108,0.0490727,0.98071,-0.521484,4.26706,-2.83193,2.42003,0,0,4.05774,5
1774536278121,0.0749494,0.904058,-0.514161,7.50333,-4.37381,2.46564,0,0,3.44641,3
1774536278135,0.0910633,1.00195,-0.512207,7.80148,-6.74774,0.931528,0,0,3.29577,3
1774536278148,0.105956,0.925298,-0.537108,8.42739,-9.82397,2.43489,0,0,3.76773,3
1774536278162,0.0170961,1.03124,-0.53418,15.7623,-10.9998,1.48106,0,0,3.28869,3
1774536278175,0.0234371,1.28196,-0.570554,25.0215,-10.3741,3.9004,0,0,3.3656,5
1774536278189,0.0790977,1.63328,-0.652338,54.0643,-4.57339,31.4005,0,0,3.34738,5
1774536278203,-0.0380777,1.32693,-0.615237,58.7856,-3.26737,32.6334,0,0,3.47376,5
1774536278217,-0.113764,2.02314,-0.627929,91.5905,-3.35113,15.8422,0,0,3.40441,5
1774536278231,0.0744497,1.69729,-0.561528,122.041,-2.87793,21.3656,0,0,3.39775,5
1774536278244,0.0459004,1.75439,-0.559326,148.584,-4.69438,17.7944,0,0,3.34988,5
1774536278258,0.141839,1.88012,-0.562012,184.025,-9.2207,15.0538,0,0,3.36228,5
1774536278282,0.227289,1.80958,-0.479986,235.809,-19.2122,1.10133,0,0,13.9179,5
1774536278296,0.357657,1.78589,-0.544185,250.128,-32.8453,-7.19723,0,0,3.3633,5
1774536278310,0.122575,2.42867,-0.720447,250.13,-34.4272,0.655311,0,0,3.74782,5
1774536278323,0.181392,2.57519,-0.686526,250.13,-33.9237,11.7083,0,0,3.34273,5
1774536278337,0.285393,1.79888,-0.481216,250.13,-43.2581,-14.8281,0,0,3.4176,5
1774536278352,-0.0344014,1.84839,-0.663073,250.13,-38.9777,-32.4859,0,0,4.78617,5
1774536278365,0.245586,1.94677,-0.353781,250.13,-33.2146,-11.7588,0,0,3.34299,5
1774536278379,0.272947,1.58279,0.0871273,250.13,-35.7706,2.71539,0,0,3.28002,5
1774536278392,0.315427,0.935104,0.416725,250.13,-46.2656,-16.3636,0,0,3.35177,5
1774536278407,0.24976,0.401649,0.592273,250.13,-66.5542,-31.6542,0,0,3.78961,3
1774536278420,-0.333455,-0.600028,-0.334896,250.13,-46.8579,-30.4277,0,0,3.33862,3
1774536278434,-0.373776,-0.172149,-0.112809,250.13,-26.171,-51.2488,0,0,3.29032,3
1774536278447,-0.377197,-0.793414,0.253392,167.898,-10.4298,-68.028,0,0,3.32873,3
1774536278461,-0.240244,-1.07737,0.247803,55.826,-0.848765,-86.211,0,0,3.29482,3
1774536278475,-0.0608036,-0.761497,0.267821,-43.2981,-0.366485,-98.128,0,0,3.81712,3
1774536278489,0.0527264,-0.472921,0.293211,-127.682,0.190756,-73.1946,0,0,4.64532,2
1774536278504,0.156975,-0.210712,0.23975,-195.99,0.809068,-30.3423,0,0,4.94561,2
1774536278518,0.138429,-0.17261,0.273923,-250.129,1.5724,0.873181,0,0,3.31315,2
1774536278531,0.113039,-0.0366306,0.295653,-250.137,0.534507,15.3719,0,0,3.34752,2
1774536278545,0.103028,0.332494,0.184822,-250.137,-3.42689,14.1071,0,0,3.32613,2
1774536278560,0.160885,0.604717,0.0307725,-250.137,-13.197,0.292148,0,0,4.85093,2
1774536278573,0.145997,0.90452,-0.124257,-250.137,-22.3498,-2.23626,0,0,3.29923,2
1774536278588,0.158446,1.04613,-0.246329,-250.137,-28.0678,5.22026,0,0,5.01755,2
1774536278602,0.154785,1.02637,-0.338861,-250.137,-33.0069,10.3046,0,0,3.58782,2
1774536278616,0.13672,0.989993,-0.402583,-250.137,-37.5031,6.48912,0,0,3.31658,2
1774536278632,0.117189,0.969484,-0.447751,-250.137,-38.8548,11.3046,0,0,5.88948,2
1774536278646,0.139647,1.22215,-0.525629,-250.137,-35.5043,24.5018,0,0,3.68226,2
1774536278660,0.101321,1.49046,-0.722154,-250.137,-28.3141,34.8458,0,0,3.45256,2
1774536278676,-0.101548,1.67674,-0.933091,-250.137,-11.5063,37.2668,0,0,3.43864,2
1774536278694,-0.324203,1.56446,-1.04662,-250.137,22.2621,20.1247,0,0,3.99282,3
1774536278710,-0.363034,1.55029,-1.10717,-250.137,59.7806,2.63621,0,0,5.65859,3
1774536278724,-0.141129,1.58276,-1.0957,-250.137,87.0646,-0.663627,0,0,3.78404,3
1774536278742,0.121808,1.57031,-1.07495,-250.137,102.975,23.8971,0,0,5.73057,3
1774536278756,0.20849,1.57568,-1.0647,-239.078,100.344,39.5625,0,0,3.56225,3
1774536278772,0.157718,1.5564,-1.09302,-217.156,85.4602,32.8636,0,0,3.29758,3
1774536278787,0.156982,1.42872,-1.0669,-199.27,63.6445,11.1101,0,0,4.63217,5
1774536278801,0.240961,1.31397,-1.01148,-189.231,40.7363,-1.04398,0,0,4.28998,5
1774536278818,0.385488,1.36108,-1.02319,-167.377,16.4693,15.1655,0,0,3.30236,5
1774536278832,0.377686,1.29444,-1.07055,-146.881,0.773346,38.9048,0,0,3.27745,5
1774536278845,0.190931,1.21705,-1.13916,-121.889,-9.93732,55.5624,0,0,3.28888,5
1774536278859,-0.0451495,1.20898,-1.20849,-93.2486,-15.1061,56.3434,0,0,3.26484,5
1774536278872,-0.296613,1.11793,-1.22363,-63.8746,-14.4123,37.4456,0,0,3.27241,5
1774536278885,-0.357662,1.07837,-1.17847,-35.6912,-11.344,12.3854,0,0,3.26543,5
1774536278899,-0.235604,1.11279,-1.07301,-5.98919,-9.36671,-4.86764,0,0,3.2721,5
1774536278913,-0.0808214,0.935315,-0.870131,14.2794,-10.5571,-10.5182,0,0,3.7545,5
1774536278926,0.032951,0.835456,-0.627214,18.3047,-15.9992,-17.6554,0,0,3.46154,5
1774536278939,0.0915486,1.01293,-0.515389,28.2046,-22.4418,-22.2283,0,0,3.26921,5
1774536278953,0.0866703,0.940191,-0.40284,37.9146,-25.8392,-17.4511,0,0,3.27784,5
1774536278966,-0.0148855,0.898196,-0.385499,41.3583,-22.4585,-8.94021,0,0,3.24886,5
1774536278980,-0.32908,3.99966,1.10536,106.349,-1.7512,6.53203,0,0,3.28645,5
1774536278993,0.300493,-0.935201,-0.308495,96.6808,-18.5853,24.0584,0,0,3.25838,5
1774536279007,0.206305,0.19328,0.0414794,189.887,-13.4893,-0.27116,0,0,3.29064,3
1774536279020,-0.0702931,1.34635,-0.0441835,186.039,-10.3364,9.60157,0,0,3.26302,3
1774536279034,0.126451,1.40478,-0.116694,173.284,-20.8152,12.6408,0,0,3.59617,3
1774536279047,0.0566455,1.15529,-0.191157,159.231,-33.5706,17.4268,0,0,3.27328,3
1774536279061,-0.0122022,0.953627,-0.230954,147.513,-32.1147,24.8538,0,0,3.27164,3
1774536279075,0.0646919,0.931642,-0.243651,139.536,-28.1533,19.5504,0,0,3.31412,3
1774536279088,0.0791006,0.968503,-0.294186,135.649,-21.9246,6.49051,0,0,3.27223,3
1774536279101,0.0249061,0.998045,-0.335446,124.277,-11.2535,0.550509,0,0,3.36082,3
1774536279115,0.0209964,0.931157,-0.383542,113.544,-5.27571,-5.23577,0,0,3.26951,3
1774536279129,0.104242,0.896487,-0.425534,102.109,-3.98493,-8.35831,0,0,3.78315,3
1774536279142,0.0129458,0.854983,-0.478268,86.7199,-2.5422,-5.48135,0,0,3.26714,3
1774536279156,0.0434549,0.902096,-0.473145,73.9332,-2.9923,-4.19103,0,0,3.24601,3
1774536279169,0.0351568,0.656267,-0.418705,51.1637,0.907812,-0.47384,0,0,3.27352,3
1774536279183,-0.0368602,0.809804,-0.485103,42.3677,2.48831,-0.832007,0,0,3.25871,3
1774536279196,0.0336865,0.9475,-0.439945,38.6341,2.3817,-0.587823,0,0,3.28838,3
1774536279209,0.0185557,0.955322,-0.436524,36.237,3.0915,0.381534,0,0,3.27149,3
1774536279223,0.0502907,0.863288,-0.488278,35.1452,4.37385,-2.58734,0,0,3.30265,3
1774536279236,0.107418,0.709728,-0.535153,25.9403,3.85504,-10.8003,0,0,3.43693,3
1774536279250,-0.0295314,1.01585,-0.481937,20.6802,3.73284,-11.061,0,0,3.61317,3
1774536279264,0.0605406,0.932135,-0.45508,15.7794,2.22923,-14.0301,0,0,3.27493,3
1774536279277,0.0393081,0.909914,-0.478514,16.374,1.7329,-13.252,0,0,3.27391,5
1774536279291,0.0456539,0.907715,-0.47046,12.9471,-0.6256,-13.0306,0,0,3.28214,5
1774536279304,0.0256362,0.966793,-0.474365,13.3816,-2.61802,-11.4201,0,0,3.25956,5
1774536279321,0.014161,0.94092,-0.493895,10.6187,-3.94637,-7.8097,0,0,7.30918,5
1774536279335,-0.00292849,0.926759,-0.497558,9.12999,-4.00762,-3.80976,0,0,3.27054,5
1774536279350,-0.000976699,0.933349,-0.499512,7.4888,-2.58037,0.0146936,0,0,4.80204,5
1774536279363,0.00244117,0.983639,-0.486817,9.18295,-1.09946,2.23631,0,0,3.2591,5
1774536279378,0.0388158,0.938724,-0.493408,8.90081,-0.351257,3.61048,0,0,4.49593,5
1774536279391,-0.0319775,0.933838,-0.502441,8.54967,0.938738,5.8012,0,0,3.28697,5
1774536279405,0.0185512,0.913576,-0.495606,8.09167,1.45794,6.9235,0,0,3.27119,5
1774536279418,0.02124,0.903809,-0.495117,6.7254,2.19836,7.12211,0,0,3.51425,5
1774536279432,0.0378406,0.913574,-0.492432,5.99248,0.923855,6.49628,0,0,3.28199,5
1774536279446,0.06201,0.926025,-0.492432,5.9542,-1.10657,3.50427,0,0,3.29117,5
1774536279459,0.0561528,0.918213,-0.495849,5.38177,-2.65626,0.725608,0,0,3.27112,5
1774536279473,0.0583495,0.916016,-0.504394,5.40458,-3.89294,-1.6027,0,0,3.49969,5
1774536279486,0.0444346,0.908204,-0.495606,5.90832,-4.64874,-4.0378,0,0,3.27875,5
1774536279500,0.0268567,0.910888,-0.500244,5.90076,-4.35119,-5.26699,0,0,3.26558,5
1774536279513,0.0136728,0.919433,-0.516112,5.37412,-3.43525,-4.58026,0,0,3.24927,5
1774536279526,0.0227044,0.913575,-0.495119,5.34352,-3.05349,-4.20616,0,0,3.26464,5
1774536279540,0.0178226,0.911865,-0.504638,5.13744,-2.27493,-3.22152,0,0,3.27921,5
1774536279553,0.00830145,0.934325,-0.501709,4.65656,-1.25969,-1.41249,0,0,3.25656,5
1774536279566,0.0231923,0.92212,-0.504883,4.49621,-1.73275,-0.0689038,0,0,3.29949,5
1774536279580,0.0139167,0.929199,-0.510254,4.57251,-1.87784,0.610585,0,0,3.29915,5
1774536279594,0.00317458,0.916749,-0.518066,4.168,-1.41992,2.06848,0,0,3.71963,5
1774536279607,-0.00341751,0.926025,-0.508546,3.88554,-0.618441,3.67152,0,0,3.30384,5
1774536279621,-0.00732395,0.90796,-0.514404,3.06882,0.442589,6.41944,0,0,3.27451,5
1774536279634,-0.0126949,0.9187,-0.517578,2.29783,1.66394,9.14463,0,0,3.38249,5
1774536279648,-0.00927758,0.909669,-0.524414,0.870443,3.26694,12.2972,0,0,3.30749,5
1774536279661,0.0197734,0.928221,-0.513917,0.129882,3.94646,14.5111,0,0,3.28869,5
1774536279674,0.0456525,0.927979,-0.51001,-0.251851,3.79392,14.9007,0,0,3.26714,5
1774536279688,0.0590811,0.936279,-0.51538,0.228936,2.67192,13.7941,0,0,3.27762,5
1774536279701,0.0419934,1.08593,-0.503175,2.94616,2.07643,14.4884,0,0,3.2876,5
1774536279715,0.0749489,0.975594,-0.500977,6.14456,0.175858,12.4888,0,0,3.26899,5
1774536279728,0.0761718,0.927005,-0.515136,6.75563,-1.21353,12.3359,0,0,3.30841,5
1774536279741,0.098143,1.01708,-0.513428,10.4727,-3.93852,11.0689,0,0,3.27241,5
1774536279755,0.0617701,1.25047,-0.539793,18.8537,-5.33567,9.66433,0,0,3.29219,5
1774536279769,0.0466319,1.40844,-0.57324,26.0905,-5.23666,16.3883,0,0,3.58002,5
1774536279782,0.185293,1.15016,-0.589598,49.2103,-0.878516,37.1343,0,0,3.30088,5
1774536279795,0.0678793,1.18701,-0.561281,50.3128,-1.4274,37.4427,0,0,3.27971,5
1774536279809,-0.0434492,1.59055,-0.629146,71.3022,-1.90069,21.9871,0,0,3.713,5
1774536279823,0.15526,1.43702,-0.55274,96.0116,-4.56449,25.9307,0,0,3.30606,5
1774536279836,0.0669007,1.47387,-0.55957,118.157,-6.10664,20.9168,0,0,3.3268,5
1774536279849,0.0581061,1.50537,-0.587889,139.905,-5.77868,18.6187,0,0,3.28402,5
1774536279863,0.148675,1.29689,-0.521733,159.86,-8.25917,12.749,0,0,3.27595,5
1774536279876,0.218501,1.40844,-0.562497,170.899,-13.0146,15.1218,0,0,3.31956,5
1774536279890,0.168216,1.73948,-0.632808,193.264,-15.6027,9.91681,0,0,3.27515,5
1774536279904,0.147218,1.95311,-0.627442,228.369,-19.2208,4.79466,0,0,3.78617,5
1774536279917,0.114748,1.98584,-0.6001,250.127,-22.137,1.39746,0,0,3.28916,5
1774536279930,0.153318,1.98853,-0.558597,250.13,-25.6178,-0.144807,0,0,3.26965,5
1774536279944,0.117434,1.81202,-0.636225,250.13,-25.7557,-2.7706,0,0,3.28077,5
1774536279957,0.300768,1.76636,-0.589115,250.13,-24.5193,8.74636,0,0,3.31045,5
1774536279971,0.271731,1.45241,-0.715567,250.13,-34.7542,4.47392,0,0,3.28889,5
1774536279984,0.191412,1.53222,-0.656498,250.13,-29.8404,-10.8527,0,0,3.26762,5
1774536279997,0.361804,1.30519,-0.499034,250.13,-31.8394,14.3245,0,0,3.31043,5
1774536280011,0.361084,1.36572,-0.229755,250.13,-33.5036,45.5678,0,0,3.29047,3
1774536280025,0.362793,1.14064,-0.0258932,250.13,-45.2196,50.2436,0,0,3.59623,3
1774536280038,0.419674,0.750271,0.220198,250.13,-65.9664,33.8803,0,0,3.28239,3
1774536280051,0.0691163,-1.87897,-0.175021,250.13,-66.0229,11.2171,0,0,3.26719,3
1774536280065,-0.0947151,-0.48667,-0.155031,231.224,-61.8861,27.3335,0,0,3.29614,3
1774536280078,-0.213859,-0.5249,-0.305165,157.171,-40.4765,35.5942,0,0,3.29693,3
1774536280092,-0.216308,-0.552,-0.130139,92.4296,-21.9112,41.0984,0,0,3.28125,3
1774536280105,-0.28271,-0.792708,-0.0424866,19.4384,-4.08664,49.8536,0,0,3.30386,3
1774536280119,-0.27002,-0.683113,-0.0373539,-54.2561,8.06688,42.2683,0,0,3.78623,3
1774536280133,-0.287352,-0.491224,-0.0385741,-109.625,21.2118,34.9095,0,0,3.30971,3
1774536280146,-0.293212,-0.488526,-0.0803193,-160.458,29.785,24.3298,0,0,3.28038,1
1774536280159,-0.218267,-0.500487,-0.0288122,-210.901,33.0377,11.75,0,0,3.28258,1
1774536280173,-0.184084,-0.489991,-0.0175789,-250.132,31.4888,3.74166,0,0,3.27712,1
1774536280186,-0.0134397,-0.233661,0.0402792,-250.137,20.5742,9.54111,0,0,3.30678,1
1774536280200,0.0358852,0.0878681,-0.0461365,-250.137,9.67339,26.3944,0,0,3.27223,1
1774536280213,0.123773,0.49045,-0.133783,-250.137,-6.02818,43.7684,0,0,3.31199,1
1774536280226,-0.0361216,0.687486,-0.405254,-250.137,-16.4107,68.4619,0,0,3.27482,1
1774536280240,-0.260482,0.866931,-0.526603,-250.137,-20.1521,76.3423,0,0,3.25993,5
1774536280253,-0.47728,0.741708,-0.55078,-250.137,-18.9849,60.9031,0,0,3.28036,5
1774536280267,-0.583489,0.649421,-0.54126,-250.137,-15.0693,22.9981,0,0,3.27204,5
1774536280280,-0.517094,0.760002,-0.591793,-250.137,-14.7252,-27.5115,0,0,3.4876,5
1774536280294,-0.338147,0.847894,-0.731924,-250.137,-15.8395,-55.4691,0,0,3.30891,5
1774536280307,-0.194346,0.937982,-0.841301,-250.137,-14.3895,-55.4199,0,0,3.30677,5
1774536280320,-0.0944894,1.04906,-0.883786,-250.137,-10.1991,-38.7277,0,0,3.28001,5
1774536280334,0.0063406,1.23241,-1.03685,-250.137,-6.24487,-25.6966,0,0,3.61237,5
1774536280348,0.0112301,1.25,-1.12817,-245.169,-1.68771,-17.4898,0,0,3.44939,5
1774536280361,0.0961855,1.21778,-1.10913,-225.743,2.7169,-14.115,0,0,3.26834,5
1774536280375,0.179926,1.22339,-1.10645,-210.498,6.58721,-2.52082,0,0,3.28536,3
1774536280388,0.30297,1.31542,-1.10278,-194.025,6.25959,11.3262,0,0,3.25873,3
1774536280401,0.366207,1.24976,-1.06324,-181.719,-0.945484,30.2643,0,0,3.31747,3
1774536280415,0.311039,1.13526,-1.00684,-184.091,-8.44926,60.8962,0,0,3.26825,3
1774536280429,0.211433,1.22485,-1.05932,-186.305,-19.5022,84.5003,0,0,3.7665,3
1774536280442,0.083505,1.3103,-1.21312,-176.047,-38.0354,84.3283,0,0,3.27551,3
1774536280455,0.00879429,1.26392,-1.26879,-159.56,-63.8511,53.4932,0,0,3.27951,3
1774536280469,0.00512721,1.13307,-1.26489,-147.819,-88.4238,22.8977,0,0,3.30027,3
1774536280482,0.146474,1.20971,-1.33862,-126.164,-107.142,19.8402,0,0,3.28395,3
1774536280496,0.192135,1.21387,-1.40698,-96.2946,-117.617,38.5544,0,0,3.28806,3
1774536280509,-0.0429523,1.00368,-1.44409,-71.4923,-119.404,59.3175,0,0,3.30164,3
1774536280522,-0.446017,0.982179,-1.50708,-46.7976,-110.032,53.2833,0,0,3.28854,3
1774536280536,-0.679915,0.993896,-1.52515,-12.5319,-97.2691,13.464,0,0,3.29352,3
1774536280550,-0.78344,0.779312,-1.46534,13.2862,-77.0107,-24.5897,0,0,3.61462,3
1774536280563,-0.596937,0.621593,-1.31935,24.8685,-54.4156,-50.332,0,0,3.32351,3
1774536280576,2.1668,3.99964,0.501337,13.0934,-84.049,173.936,0,0,3.26451,3
1774536280590,1.72879,0.452153,1.59807,1.92534,-82.153,81.22,0,0,3.31038,3
1774536280603,0.425872,1.30145,0.568187,80.4615,-64.6591,18.4293,0,0,3.27153,3
1774536280617,-0.21309,1.10475,-0.278749,96.677,-39.1718,15.8019,0,0,3.27795,3
1774536280630,0.0510069,1.25414,-0.291747,85.2231,-17.1407,21.6709,0,0,3.31188,3
1774536280643,0.257066,1.22901,-0.232182,87.389,-25.9987,9.50564,0,0,3.32562,3
1774536280657,-0.135226,1.05226,-0.309077,92.3733,-24.9467,15.1442,0,0,3.29765,3
1774536280670,-0.0271072,0.927255,-0.40844,83.8715,-14.6199,14.7405,0,0,3.31164,3
1774536280684,0.0737234,0.914552,-0.435057,73.8488,-9.84041,5.43651,0,0,3.28206,3
1774536280697,0.00464351,0.847417,-0.518549,61.0477,-4.48935,2.05394,0,0,3.29189,3
1774536280710,0.0236803,0.801273,-0.590815,43.5599,0.380949,-0.228665,0,0,3.33914,3
1774536280724,0.0666474,0.950673,-0.49903,30.2157,-2.51865,-4.66346,0,0,3.27365,3
1774536280738,0.0271024,0.927492,-0.470705,22.1844,-0.091967,-3.11474,0,0,3.77447,3
1774536280751,0.0229495,0.939208,-0.448,18.7181,2.67897,1.04518,0,0,3.27636,3
1774536280765,0.0144049,0.959227,-0.44043,18.168,4.16772,5.0452,0,0,3.27189,3
1774536280778,0.0412579,0.947511,-0.455077,17.6871,3.64893,8.03009,0,0,3.28897,3
1774536280791,0.0312507,0.938477,-0.46289,16.939,4.18313,10.1371,0,0,3.25432,5
1774536280805,0.0610331,0.94458,-0.448976,15.9925,4.40455,9.48101,0,0,3.35136,5
1774536280818,0.108395,0.886723,-0.457519,14.2598,4.01533,6.21423,0,0,3.30177,5
1774536280832,0.0725123,0.995354,-0.444825,16.1066,3.51916,4.57277,0,0,3.28082,5
1774536280845,0.0978986,0.924566,-0.449463,13.4737,2.54213,1.52717,0,0,3.31445,5
1774536280859,0.119383,0.896242,-0.451904,11.8857,1.56503,-2.51084,0,0,3.64486,5
1774536280872,0.06641,0.932371,-0.444336,10.4048,0.5803,-4.22875,0,0,3.27601,5
1774536280886,0.0588384,0.932129,-0.465575,9.9848,-1.37375,-5.4731,0,0,3.25588,5
1774536280899,0.0634762,0.931641,-0.458252,8.78644,-2.90053,-5.38169,0,0,3.31558,5
1774536280912,0.0627442,0.957029,-0.455078,8.74046,-2.9084,-4.95426,0,0,3.28156,5
1774536280926,0.0610353,0.939698,-0.454346,9.34342,-2.71759,-5.41215,0,0,3.27436,5
1774536280939,0.0778797,0.947021,-0.469481,9.977,-2.76335,-5.94648,0,0,3.2708,5
1774536280953,0.0615246,0.931153,-0.462891,9.28255,-2.06881,-6.79377,0,0,3.70139,5
1774536280966,0.0603028,0.948973,-0.469726,9.45799,-1.41994,-6.40464,0,0,3.27878,5
1774536280980,0.0522467,0.921633,-0.476074,8.09181,-0.961901,-6.38932,0,0,3.25558,5
1774536280993,0.0524902,0.936767,-0.47998,7.63366,-0.854978,-4.83229,0,0,3.28017,5
1774536281006,0.034181,0.914796,-0.497801,5.70258,-2.08379,-3.35137,0,0,3.30058,5
1774536281020,0.0502918,0.928466,-0.475832,4.65665,-1.40468,-1.67964,0,0,3.35045,5
1774536281033,0.044434,0.94287,-0.481445,2.97735,-1.45801,-0.626112,0,0,3.28036,5
1774536281047,0.0600575,0.933594,-0.48584,2.77102,-2.33575,-0.83203,0,0,3.59347,5
1774536281060,0.0463877,0.925049,-0.485352,1.8322,-2.93884,-1.14499,0,0,3.2771,5
1774536281074,0.0534663,0.932617,-0.47876,1.61072,-2.43519,-0.58787,0,0,3.24693,5
1774536281087,0.0522462,0.937744,-0.477051,1.95415,-2.27483,-0.915981,0,0,3.27358,5
1774536281100,0.0410164,0.914064,-0.474854,0.885656,-2.11453,-0.839706,0,0,3.25665,5
1774536281114,0.0544424,0.917236,-0.480957,0.412285,-2.43507,-1.74032,0,0,3.2893,5
1774536281127,0.0424813,0.916748,-0.474122,0.167976,-2.61066,-2.10682,0,0,3.25769,5
1774536281141,0.039551,0.923095,-0.478027,-0.518981,-2.67175,-1.98475,0,0,4.14598,5
1774536281156,0.0390625,0.907228,-0.476563,-1.93109,-2.78624,-2.15265,0,0,4.68295,5
1774536281170,0.0375978,0.934568,-0.47168,-2.33582,-2.86258,-2.49613,0,0,3.35504,5
1774536281183,0.0485832,0.922364,-0.473633,-3.08386,-3.25948,-2.64883,0,0,3.28836,5
1774536281197,0.0375984,0.931152,-0.470459,-3.64877,-2.92371,-2.44278,0,0,3.26008,3
1774536281210,0.0502921,0.945312,-0.477294,-2.83218,-3.09921,-3.27468,0,0,3.28182,3
1774536281223,0.0244159,0.942139,-0.476563,-2.30542,-2.88553,-2.64895,0,0,3.25102,3
1774536281237,0.0288083,0.943603,-0.474854,-1.91609,-2.93129,-1.96957,0,0,3.32502,3
1774536281250,0.0214849,0.938477,-0.478759,-2.22896,-2.28254,-0.694848,0,0,3.26469,3
1774536281264,0.0234374,0.946533,-0.477051,-1.89318,-1.45051,0.205972,0,0,3.31065,3
1774536281277,0.0170903,0.946289,-0.474854,-1.81681,-1.09929,1.45783,0,0,3.2603,3
1774536281290,0.0285637,0.946533,-0.476318,-1.43517,-0.778674,2.19073,0,0,3.24667,3
1774536281304,0.033691,0.95288,-0.465089,-1.05349,-0.816788,2.36639,0,0,3.26884,3
1774536281317,0.0434563,0.94336,-0.473388,-0.656548,-0.717572,1.96953,0,0,3.25402,3
1774536281330,0.0441894,0.947021,-0.476806,-0.0764229,-1.57239,1.17569,0,0,3.39286,3
1774536281344,0.00879154,0.965819,-0.485595,0.0228859,-1.01535,2.26701,0,0,3.28049,3
1774536281357,0.0436987,0.958497,-0.471925,0.885367,-1.12212,3.11438,0,0,3.28143,3
1774536281371,0.0402834,0.955322,-0.473877,1.22896,-0.855002,3.51139,0,0,3.27717,3
1774536281384,0.0390626,0.941407,-0.480224,1.26717,-0.618356,3.67173,0,0,3.26788,3
1774536281397,0.0480951,0.938721,-0.483154,0.984775,-0.900721,3.51911,0,0,3.27314,3
1774536281411,0.0515134,0.942138,-0.471192,1.3053,-1.22896,2.68715,0,0,3.25652,3
1774536281424,0.054199,0.93335,-0.46753,1.37404,-1.61826,1.93141,0,0,3.30393,3
1774536281438,0.0405283,0.924073,-0.46582,0.748185,-1.93888,1.48098,0,0,3.25849,5
1774536281451,0.0610337,0.941405,-0.464111,1.06102,-2.27476,0.801629,0,0,3.6913,5
1774536281465,0.0415053,0.928956,-0.478759,1.05344,-2.43509,0.526759,0,0,3.2773,5
1774536281478,0.0488276,0.921387,-0.469971,0.419942,-2.77094,0.328274,0,0,3.25089,5
1774536281492,0.0310071,0.927002,-0.469727,0.221404,-2.64887,0.122168,0,0,3.37489,5
1774536281505,0.0437003,0.928955,-0.474121,0.167947,-3.09917,-0.694534,0,0,3.27712,5
1774536281519,0.0566397,0.92627,-0.474365,0.160306,-3.95407,-2.03033,0,0,3.28597,5
1774536281532,0.0412608,0.928955,-0.475342,-0.129727,-4.06869,-2.45032,0,0,3.27162,5
1774536281545,0.0263682,0.928223,-0.474854,-0.236625,-3.82446,-2.48091,0,0,3.28223,5
1774536281559,0.0214847,0.920411,-0.478759,-0.984621,-3.41991,-2.0306,0,0,3.27375,5
1774536281573,0.0378407,0.938475,-0.474854,-1.03816,-3.00006,-1.7634,0,0,3.89702,5
1774536281586,0.0271004,0.938721,-0.482177,-1.22898,-2.80919,-0.557433,0,0,3.27712,3
1774536281600,0.0222171,0.934326,-0.472901,-1.54194,-2.34358,0.610512,0,0,3.25182,3
1774536281613,0.0314935,0.932129,-0.471924,-2.16021,-2.22139,1.52658,0,0,3.27439,3
1774536281626,0.027344,0.937011,-0.480224,-2.24426,-2.0153,2.24417,0,0,3.25547,3
1774536281641,0.0344233,0.932617,-0.485107,-2.89303,-2.2824,2.67932,0,0,4.85752,3
1774536281655,0.0271001,0.93457,-0.474366,-3.31291,-2.6488,2.53437,0,0,3.24993,3
1774536281672,0.0356439,0.925294,-0.475586,-3.87778,-3.53422,2.10693,0,0,7.04799,3
1774536281685,0.0517567,0.927978,-0.482421,-4.36634,-4.35102,1.65656,0,0,3.39762,3
1774536281699,0.0473636,0.927246,-0.471925,-5.99976,-5.19835,1.86256,0,0,3.31921,3
1774536281712,0.0356454,0.930664,-0.500975,-6.33583,-6.3586,1.99235,0,0,3.30358,3
1774536281726,0.0585921,0.935791,-0.467532,-7.77841,-8.51113,3.64097,0,0,3.27923,3
1774536281740,0.09863,0.933594,-0.476074,-7.4657,-12.3658,6.51865,0,0,3.30702,3
1774536281753,0.165523,0.949462,-0.48828,-8.04571,-20.8842,10.5566,0,0,3.26723,3
1774536281767,0.318349,0.937989,-0.45508,-9.10671,-38.028,17.3578,0,0,3.71787,3
1774536281780,0.547835,0.934571,-0.479246,-9.3969,-71.6743,29.2501,0,0,3.2406,3
1774536281794,0.767074,0.920655,-0.509519,-8.93137,-121.649,46.4096,0,0,3.25319,3
1774536281807,0.495624,0.792245,-0.489259,-17.9147,-165.238,58.6699,0,0,3.24867,3
1774536281821,0.317639,0.967761,-0.459475,-21.5796,-200.987,58.8168,0,0,3.90391,3
1774536281834,0.25684,0.954591,-0.380133,-20.6872,-226.073,57.6643,0,0,3.27017,3
1774536281848,0.125253,0.991941,-0.356447,-19.1071,-242.601,55.2523,0,0,3.25112,3
1774536281861,-0.0244036,0.96924,-0.358642,-21.2211,-248.503,55.6717,0,0,3.28721,3
1774536281875,-0.0681122,0.919437,-0.351807,-26.3351,-246.748,57.7478,0,0,3.2743,3
1774536281890,-0.0686035,0.966061,-0.329836,-28.6332,-240.589,60.9232,0,0,4.75715,3
1774536281903,-0.0310085,1.02099,-0.32129,-25.7485,-238.542,64.0224,0,0,3.25628,3
1774536281917,0.0212366,1.02563,-0.315674,-21.7105,-239.466,67.2362,0,0,3.68243,3
1774536281930,0.0197755,1.01685,-0.333739,-18.1074,-241.068,75.0523,0,0,3.26912,3
1774536281944,0.137199,1.06494,-0.432854,-11.6575,-243.572,95.0504,0,0,3.24089,3
1774536281957,0.31322,1.13256,-0.408449,-9.06146,-249.236,142.001,0,0,3.27458,3
1774536281971,-0.0146255,1.11792,-0.461666,10.9512,-248.809,144.656,0,0,3.27241,3
1774536281984,-0.231674,0.796897,-0.33619,5.1917,-250.137,118.409,0,0,3.28084,3
1774536281998,-0.321527,0.919913,-0.398433,-1.63256,-244.55,87.0276,0,0,3.26032,3
1774536282013,-0.250493,0.990229,-0.422606,-0.412397,-235.124,71.5825,0,0,4.89354,3
1774536282026,-0.13868,1.01758,-0.444579,5.60215,-225.772,74.1981,0,0,3.2691,3
1774536282040,-0.0844765,0.95435,-0.420656,9.36585,-220.52,78.4803,0,0,3.40508,1
1774536282053,-0.0734871,0.90845,-0.421143,9.06875,-216.268,78.6565,0,0,3.27501,1
1774536282067,-0.0778806,0.915527,-0.424072,8.29783,-212.833,74.5808,0,0,3.26065,1
1774536282080,-0.0908194,0.925292,-0.428711,7.78634,-209.252,69.4893,0,0,3.29151,1
1774536282093,-0.115721,0.936034,-0.436523,8.22131,-203.703,63.9092,0,0,3.26082,1
1774536282107,-0.144529,0.927247,-0.437988,9.06858,-195.726,55.4669,0,0,3.83528,1
1774536282121,-0.181394,0.958738,-0.463133,10.7631,-185.253,45.7495,0,0,3.26593,1
1774536282134,-0.197753,0.943116,-0.469238,12.9386,-171.903,34.6963,0,0,3.26851,1
1774536282147,-0.231443,0.931641,-0.468994,13.5114,-154.751,27.253,0,0,3.3088,1
1774536282162,-0.236572,0.916505,-0.475341,12.6185,-132.377,24.405,0,0,3.26043,1
1774536282175,-0.22876,0.958981,-0.485839,12.2367,-111.56,18.7413,0,0,3.31414,1
1774536282189,-0.201662,0.908695,-0.468751,9.05391,-91.4916,10.3219,0,0,3.28545,1
1774536282204,-0.119146,0.963863,-0.490477,6.86292,-74.1705,-1.12042,0,0,4.60011,1
1774536282217,0.0405162,0.994627,-0.507323,10.1445,-64.2534,-8.78511,0,0,3.29167,1
1774536282232,0.182607,0.991211,-0.49585,14.755,-61.2066,-9.25947,0,0,4.89035,1
1774536282245,0.363269,1.03637,-0.500488,21.0525,-65.5871,-1.03177,0,0,3.2656,1
1774536282259,0.51537,0.965825,-0.45557,23.1447,-76.5098,7.5636,0,0,3.30414,1
1774536282272,0.565426,0.983885,-0.391362,23.0153,-90.5628,21.1659,0,0,3.4723,1
1774536282286,0.582274,0.994384,-0.320806,23.3053,-105.28,34.8453,0,0,3.24788,1
1774536282299,0.560304,0.980958,-0.278567,21.6491,-119.09,50.6618,0,0,3.28126,1
1774536282312,0.551514,0.97876,-0.229007,20.0155,-131.777,66.4633,0,0,3.25173,1
1774536282327,0.489018,0.920414,-0.188235,14.1078,-144.044,79.624,0,0,3.29601,1
1774536282341,0.436527,0.927001,-0.180176,9.02366,-152.716,85.2282,0,0,3.26443,3
1774536282354,0.365239,0.944823,-0.194091,7.08426,-158.427,89.1902,0,0,3.27858,3
1774536282367,0.291997,0.953857,-0.22534,7.07634,-160.893,91.5111,0,0,3.38364,3
1774536282381,0.220708,0.935548,-0.25781,7.68693,-159.229,93.9386,0,0,3.29843,3
1774536282396,0.138922,0.907717,-0.296628,7.98469,-152.505,93.5726,0,0,3.27867,3
1774536282409,-0.141826,1.05614,-0.529281,-3.06704,-116.456,133.872,0,0,3.26984,3
1774536282423,-0.593962,0.373583,0.0146104,-54.5648,-91.4007,61.2857,0,0,3.27823,3
1774536282436,-0.687982,1.36907,-0.676465,-37.8575,-39.5574,8.91625,0,0,3.25334,3
1774536282454,-0.0225075,2.02901,-0.311061,-1.46347,-10.5845,0.970657,0,0,6.15151,3
1774536282467,0.190415,1.26519,-0.4475,-3.11426,-13.9232,-2.93835,0,0,3.2578,3
1774536282482,0.0769122,0.826447,-0.456786,0.823837,-2.58185,-1.7559,0,0,4.5415,3
1774536282495,0.113279,0.97167,-0.453614,4.96884,-1.29027,-7.62507,0,0,3.26393,3
1774536282509,-0.00731578,0.976562,-0.472167,6.3891,2.26664,-2.55801,0,0,3.27121,3
1774536282522,0.00414959,0.944094,-0.468994,4.08432,4.78588,0.930774,0,0,3.27026,3
1774536282535,0.0031739,0.952636,-0.467529,3.29783,6.76306,5.57946,0,0,3.3013,3
1774536282549,0.0314922,0.949219,-0.463135,3.70986,7.45028,7.98437,0,0,3.28508,3
1774536282562,0.0393061,0.932862,-0.456299,2.95431,6.22156,9.70203,0,0,3.26688,3
1774536282576,0.067625,0.930176,-0.457519,1.57273,4.85517,9.05353,0,0,3.31215,5
1774536282589,0.0983865,0.947753,-0.453125,1.63358,2.31336,6.23706,0,0,3.30302,5
1774536282602,0.0944827,0.922609,-0.455078,1.53437,0.130098,3.18366,0,0,3.30045,5
1774536282616,0.0808115,0.927002,-0.46289,1.71753,-0.633473,1.02322,0,0,3.2751,5
1774536282629,0.0671396,0.921143,-0.467773,1.70992,-1.0839,-1.22104,0,0,3.29838,5
1774536282643,0.0693358,0.947996,-0.457276,2.16787,-0.389417,-2.01515,0,0,3.30471,5
1774536282656,0.0610357,0.927003,-0.459473,2.02292,0.259445,-3.09907,0,0,3.24367,5
1774536282669,0.074462,0.945555,-0.459961,2.34346,0.702224,-4.37385,0,0,3.25604,5
1774536282683,0.0498064,0.93213,-0.471923,1.94662,1.84716,-3.29024,0,0,3.27354,5
1774536282696,0.0644521,0.961912,-0.485351,1.77865,-1.46515,-2.89319,0,0,3.27665,5
1774536282710,0.0537117,0.964599,-0.474854,2.44265,-0.824524,-1.20636,0,0,3.29151,5
1774536282724,0.0351575,0.980956,-0.473633,1.48106,-0.633616,1.09889,0,0,3.95023,5
1774536282738,0.0534655,0.947268,-0.470947,0.93138,-0.488571,3.33554,0,0,3.29297,5
1774536282751,0.0544433,0.937012,-0.474853,1.06105,-0.648831,4.13728,0,0,3.64765,5
1774536282765,0.0507815,0.957274,-0.4646,1.35873,-1.06101,4.70984,0,0,3.28262,5
1774536282778,0.0544431,0.948487,-0.4729,1.97701,-1.05344,4.51911,0,0,3.27636,5
1774536282792,0.0720203,0.947754,-0.474853,2.85483,-0.931316,3.47344,0,0,3.27806,5
1774536282805,0.0573741,0.945557,-0.462403,3.16026,-0.771016,2.88558,0,0,3.26856,5
1774536282818,0.0678704,0.946533,-0.45874,4.01514,-0.664138,1.69484,0,0,3.34388,5
1774536282832,0.0549325,0.935059,-0.475341,3.87788,-0.465679,1.74808,0,0,3.31428,5
1774536282846,0.0683584,0.924317,-0.476074,3.25963,-1.19073,1.24435,0,0,3.76876,5
1774536282859,0.0612798,0.924805,-0.468506,3.21375,-1.45034,1.2748,0,0,3.26469,5
1774536282873,0.0783679,0.937499,-0.473632,2.9695,-1.84727,0.587889,0,0,3.25723,5
1774536282886,0.0600599,0.935791,-0.471192,2.6947,-2.25185,0.114575,0,0,3.32232,5
1774536282900,0.0815415,0.930664,-0.474853,2.59543,-2.96936,-1.28223,0,0,3.34801,5
1774536282913,0.0629896,0.921387,-0.487304,2.26722,-3.32056,-2.28993,0,0,3.32532,5
1774536282926,0.0661619,0.921143,-0.476807,2.09926,-3.61064,-3.19834,0,0,3.26745,5
1774536282940,0.056153,0.920898,-0.474365,1.5955,-3.38935,-3.8625,0,0,3.30038,5
1774536282953,0.0656732,0.926757,-0.469727,1.26722,-3.73277,-4.38923,0,0,3.26304,5
1774536282967,0.0476087,0.932129,-0.479003,0.801597,-3.38936,-3.88557,0,0,3.24267,5
1774536282980,0.0390631,0.931152,-0.474366,0.0917095,-3.18324,-2.88565,0,0,3.24997,5
1774536282994,0.0422361,0.934082,-0.476318,-0.0381485,-2.78632,-2.44281,0,0,3.26917,5
1774536283007,0.0358891,0.941406,-0.486327,-0.244244,-3.10682,-1.82452,0,0,3.26914,5
1774536283020,0.0422359,0.944824,-0.476075,-0.282437,-3.02291,-1.1833,0,0,3.24062,5
1774536283034,0.0522454,0.940186,-0.465089,0.175504,-2.70997,-1.13741,0,0,3.24132,5
1774536283047,0.0515137,0.925294,-0.482177,-0.00760613,-3.12208,-1.60298,0,0,3.24178,3
1774536283060,0.0449223,0.928955,-0.478272,-0.160282,-3.22136,-1.67938,0,0,3.28669,3
1774536283074,0.0317392,0.940185,-0.474121,-0.198468,-2.35128,-0.290285,0,0,3.26473,3
1774536283087,0.039062,0.939209,-0.474121,-0.297695,-2.59538,0.152605,0,0,3.26795,3
1774536283100,0.0444332,0.937012,-0.475098,-0.717494,-2.26722,0.450337,0,0,3.25595,3
1774536283114,0.0500484,0.939697,-0.478271,-0.801514,-2.61064,-0.267068,0,0,3.25728,3
1774536283127,0.0510253,0.941894,-0.482177,-0.297785,-3.12969,-0.480884,0,0,3.27212,3
1774536283140,0.0461429,0.937744,-0.478272,-0.290077,-3.25952,-0.709889,0,0,3.23977,3
1774536283154,0.0363776,0.9292,-0.472901,-0.236649,-3.41982,-1.14497,0,0,3.25473,3
1774536283167,0.0388182,0.941405,-0.474121,-0.412187,-3.5038,-1.19847,0,0,3.24632,3
1774536283180,0.0300299,0.932618,-0.481201,-1.05334,-3.03824,-0.977132,0,0,3.25812,3
1774536283194,0.0268557,0.932861,-0.467286,-1.56481,-2.35125,-0.343606,0,0,3.27647,3
1774536283207,0.0288085,0.953368,-0.475829,-1.32065,-1.31313,0.923474,0,0,3.25145,3
1774536283221,0.0786098,0.938966,-0.468995,-1.25955,-2.05332,-1.19052,0,0,3.27384,3
1774536283235,0.0427271,0.933106,-0.482177,-1.40456,-1.92368,-1.07635,0,0,3.28239,3
1774536283249,0.0520013,0.941162,-0.48291,-0.923736,-1.98472,-1.51902,0,0,4.17817,3
1774536283263,0.0388193,0.947998,-0.490722,-0.709956,-2.01526,-1.27485,0,0,3.26762,3
1774536283277,0.0446773,0.949707,-0.481202,-0.961794,-2.42742,-0.755803,0,0,3.80508,3
1774536283290,0.0498043,0.953857,-0.469727,-1.13738,-2.93122,-0.511487,0,0,3.29267,3
1774536283303,0.0598138,0.96704,-0.475097,0.419614,-3.92352,-1.59526,0,0,3.24797,3
1774536283317,0.103024,0.981688,-0.468995,2.36612,-5.99206,-5.20557,0,0,3.27343,3
1774536283330,0.160396,0.979492,-0.457032,5.90023,-10.984,-9.91532,0,0,3.25441,3
1774536283343,0.225825,1.03979,-0.480711,10.6329,-18.9301,-15.9686,0,0,3.30671,3
1774536283357,0.879349,0.793474,-0.53735,10.4351,-41.3096,-13.4584,0,0,3.2531,3
1774536283371,1.53633,0.602308,-0.451422,-3.7078,-73.7051,47.1436,0,0,3.58484,3
1774536283384,1.66186,1.15401,-0.351325,7.06709,-137.807,101.641,0,0,3.2714,3
1774536283397,0.971484,1.14722,-0.258063,27.1649,-177.177,109.861,0,0,3.27986,3
1774536283411,0.836923,0.9568,-0.236574,14.2233,-206.583,113.061,0,0,3.28951,3
1774536283424,0.821046,1.08593,-0.175297,16.3356,-232.424,118.312,0,0,3.28839,3
1774536283438,0.567645,1.08203,-0.113774,14.2828,-250.135,115.817,0,0,4.24215,3
1774536283452,0.397961,0.929942,-0.109864,9.24503,-250.137,110.863,0,0,3.27295,3
1774536283465,0.129902,0.942138,-0.151608,4.26029,-250.137,113.404,0,0,3.28143,3
1774536283479,-0.089096,0.93628,-0.163818,-1.67087,-250.137,109.39,0,0,3.30399,3
1774536283492,-0.608118,0.8274,-0.227046,-11.0368,-230.896,85.5303,0,0,3.28851,3
1774536283508,-0.66235,0.780521,-0.364492,-22.6547,-161.01,88.7705,0,0,3.27815,3
1774536283521,-0.587163,0.742923,-0.266364,-37.1123,-111.862,80.963,0,0,3.25615,3
1774536283535,-0.462167,1.05296,-0.335933,-37.6869,-78.1272,72.528,0,0,3.28045,3
1774536283549,-0.526607,0.942146,-0.373044,-35.2828,-52.6756,64.4669,0,0,3.25393,3
1774536283563,-0.613763,0.958739,-0.380126,-33.7941,-26.5612,36.2561,0,0,3.28917,3
1774536283576,-0.557377,0.936037,-0.349123,-34.1068,-1.17938,15.8046,0,0,3.28523,3
1774536283590,-0.413584,0.94995,-0.349365,-34.0687,19.1725,9.34448,0,0,3.72337,1
1774536283603,-0.311775,0.954101,-0.334474,-34.4427,34.5092,9.55722,0,0,3.25647,1
1774536283617,-0.264896,0.991208,-0.345458,-31.2295,45.1205,7.01565,0,0,3.81752,1
1774536283631,-0.18067,1.00342,-0.367674,-25.7947,49.9,2.26026,0,0,3.30986,1
1774536283644,-0.0844794,1.02612,-0.411618,-17.9859,49.3665,0.671994,0,0,3.25719,1
1774536283660,0.0012147,0.939459,-0.452146,-11.0239,44.0084,6.12895,0,0,3.3048,1
1774536283673,0.0439423,0.946044,-0.499997,-8.34391,36.0852,11.213,0,0,3.25449,1
1774536283688,0.106685,1.04052,-0.579096,1.73895,21.88,1.30683,0,0,3.99093,1
1774536283701,0.429665,0.397262,-0.221705,49.3593,-2.86652,-80.8274,0,0,3.27345,1
1774536283714,0.28126,1.60172,-0.260251,35.2922,-19.9745,-82.6333,0,0,3.27599,1
1774536283728,0.134044,1.14383,-0.405996,10.2328,-30.7846,-51.6993,0,0,3.26875,5
1774536283741,-0.22019,0.78982,-0.436277,23.8911,-16.0785,-22.1724,0,0,3.26458,5
1774536283754,-0.164555,0.106737,-0.52099,-12.9029,-6.17706,-8.80353,0,0,3.36697,5
1774536283768,-0.101323,1.1303,-0.4585,10.3782,-2.87836,-8.61835,0,0,3.75863,5
1774536283782,0.0566296,1.15405,-0.432375,-4.16576,-3.88535,-6.7789,0,0,3.27984,5
1774536283796,0.0661614,0.847922,-0.453124,-3.73289,-3.44281,-5.5727,0,0,3.55599,5
1774536283809,0.0336937,0.927485,-0.443604,-2.04605,-3.5725,-5.33591,0,0,3.47126,5
1774536283823,0.0590803,0.947752,-0.447998,-2.27477,-3.41224,-4.97715,0,0,3.30102,5
1774536283836,0.0466317,0.989255,-0.449219,-0.588039,-2.46579,-5.26713,0,0,3.3013,5
1774536283850,0.0407719,0.980225,-0.446289,0.564713,-2.35879,-4.82449,0,0,3.26604,5
1774536283863,0.0332037,0.962648,-0.465575,0.427501,-1.90083,-4.25963,0,0,3.24999,3
1774536283876,0.0222176,0.951417,-0.453614,-0.0762603,-1.64889,-2.9315,0,0,3.27717,3
1774536283890,0.0283199,0.948487,-0.449707,-0.702196,-1.3054,-1.44297,0,0,3.25826,3
1774536283903,0.0244143,0.945313,-0.452637,-1.56476,-1.09927,0.289816,0,0,3.28839,3
1774536283917,0.0217287,0.95581,-0.453125,-1.72517,-0.786306,1.32809,0,0,3.26382,3
1774536283930,0.0456526,0.946534,-0.449219,-1.67176,-0.832054,1.58011,0,0,3.38654,3
1774536283944,0.0383306,0.935548,-0.447998,-1.95416,-0.534396,1.92361,0,0,3.35606,3
1774536283958,0.0463862,0.958006,-0.442627,-1.83971,-0.519086,1.45045,0,0,3.7616,3
1774536283971,0.0380865,0.956299,-0.443848,-0.984861,-0.534349,1.2672,0,0,3.28736,3
1774536283985,0.0471185,0.975096,-0.441406,-0.145164,-0.526719,1.25954,0,0,3.27864,3
1774536283998,0.0400396,0.954103,-0.439209,0.496087,-0.870177,0.771066,0,0,3.59806,3
1774536284012,0.0334477,0.943116,-0.447753,0.519081,-1.13736,0.778625,0,0,3.26301,3
1774536284025,0.0495594,0.940674,-0.442383,0.160359,-1.05345,0.85495,0,0,3.34339,3
1774536284039,0.0336925,0.951659,-0.443115,-0.0610355,-0.763402,1.16789,0,0,3.27791,5
1774536284053,0.0383298,0.947022,-0.438965,-0.083966,-1.02286,1.13741,0,0,3.78686,5
1774536284066,0.0419919,0.949707,-0.437744,-0.00764503,-1.05343,0.893166,0,0,3.27232,5
1774536284080,0.037598,0.958251,-0.447753,0.206075,-0.885521,0.771011,0,0,3.29654,5
1774536284093,0.036377,0.945313,-0.437501,0.221372,-1.17553,1.27473,0,0,3.29464,5
1774536284107,0.0312504,0.955566,-0.447021,0.374023,-0.48102,2.06095,0,0,3.33808,5
1774536284120,0.0412591,0.960205,-0.449707,0.954111,-0.229045,1.87789,0,0,3.2833,5
1774536284133,0.039795,0.950196,-0.450928,0.885506,-0.106889,2.41977,0,0,3.26864,5
1774536284147,0.0378419,0.94751,-0.444336,1.05341,-0.0992378,2.18324,0,0,3.29715,5
1774536284160,0.0378418,0.947266,-0.443848,0.923684,-0.0839718,2.16031,0,0,3.26732,5
1774536284174,0.0490715,0.949463,-0.452148,1.03815,-0.137397,1.87027,0,0,3.6286,5
1774536284187,0.050537,0.948975,-0.440675,1.3511,-0.427437,1.19094,0,0,3.27491,5
1774536284201,0.0500489,0.951416,-0.443115,1.1985,-0.770941,0.282579,0,0,3.48273,5
1774536284214,0.0432134,0.949463,-0.43628,1.38165,-0.633608,0.328237,0,0,3.28254,5
1774536284228,0.0410158,0.950439,-0.458739,1.458,-0.305393,0.90831,0,0,3.33576,5
1774536284241,0.0395509,0.947998,-0.445313,1.67172,-0.320608,1.36634,0,0,3.34893,5
1774536284255,0.0463862,0.956298,-0.446045,1.93889,-0.206124,1.80146,0,0,3.27669,5
1774536284269,0.0424807,0.966796,-0.452148,2.40451,-0.145047,1.91601,0,0,3.84371,5
1774536284282,0.0502924,0.958008,-0.444336,2.67935,-0.496131,1.98472,0,0,3.29893,5
1774536284296,0.0507812,0.952149,-0.450683,2.94652,-0.824378,1.87025,0,0,3.31138,5
1774536284309,0.0473635,0.945801,-0.449951,2.9542,-1.21368,1.61073,0,0,3.28289,5
1774536284322,0.0444338,0.943604,-0.446778,3.02289,-1.25954,1.76334,0,0,3.25578,5
1774536284336,0.0444336,0.944092,-0.450195,2.7405,-1.603,1.81679,0,0,3.28539,5
1774536284350,0.0397952,0.941651,-0.453125,2.61834,-1.35118,2.0076,0,0,3.26734,5
1774536284363,0.0402832,0.947021,-0.457031,2.63359,-1.1985,2.31293,0,0,3.29854,5
1774536284376,0.0471187,0.945557,-0.449952,2.30539,-1.06109,2.39693,0,0,3.30756,5
1774536284390,0.0517575,0.944336,-0.455078,2.32824,-0.671814,1.94663,0,0,3.61336,5
1774536284404,0.0493166,0.946289,-0.454102,2.41983,-0.511474,1.35887,0,0,3.5066,5
1774536284417,0.0419927,0.942383,-0.464843,2.80147,-0.22905,0.336031,0,0,3.25599,5
1774536284431,0.0532219,0.94458,-0.447999,2.7023,-0.442716,-0.824253,0,0,3.28036,5
1774536284444,0.0375987,0.937745,-0.453857,2.41989,0.0457283,-0.656514,0,0,3.26688,5
1774536284458,0.0227061,0.942382,-0.451904,1.99243,0.19845,0.15255,0,0,3.81437,5
1774536284472,0.028564,0.947265,-0.454101,2.44268,1.49599,1.72496,0,0,3.28232,5
1774536284486,0.0263673,0.980222,-0.463134,3.28232,2.87002,3.28984,0,0,3.84545,5
1774536284499,0.0402822,0.987792,-0.460938,4.38915,3.23659,4.93105,0,0,3.31025,5
1774536284512,0.0444333,1.00513,-0.458252,6.75537,4.07621,6.09143,0,0,3.31358,5
1774536284526,0.0737284,1.05468,-0.445558,12.0374,3.51917,5.39705,0,0,3.28069,5
1774536284539,0.141109,1.18944,-0.453124,21.6474,-1.00695,3.27513,0,0,3.26412,5
1774536284553,0.234613,1.19629,-0.407474,35.4559,-8.23556,1.51935,0,0,3.2911,5
1774536284566,0.266355,1.56321,-0.45654,38.0378,-23.5702,0.206304,0,0,3.27043,5
1774536284579,-0.357134,2.30781,-0.728741,103.311,-0.156183,33.0485,0,0,3.29643,5
1774536284593,0.307082,2.02175,-0.656255,96.1232,-25.7824,39.3807,0,0,3.27102,5
1774536284606,0.00514809,2.30638,-0.571051,152.076,-18.9247,11.7217,0,0,3.63539,5
1774536284620,0.394504,2.11281,-0.485602,185.079,-31.8072,17.5487,0,0,3.27654,5
1774536284633,0.287849,2.11743,-0.431889,219.392,-39.3653,14.5882,0,0,3.28443,5
1774536284647,0.321043,2.02491,-0.355474,250.125,-42.9308,17.1904,0,0,3.29102,5
1774536284660,0.30298,1.61258,-0.430659,250.13,-48.877,28.9906,0,0,3.26125,5
1774536284673,0.245121,1.57691,-0.502436,250.13,-52.7017,26.0539,0,0,3.27349,5
1774536284687,0.00367901,1.16995,-0.475832,250.13,-61.6933,-16.5203,0,0,3.27586,5
1774536284701,0.0104976,1.26244,-0.433353,250.13,-58.9928,-27.5556,0,0,3.69004,5
1774536284714,0.0927677,0.785434,-0.117454,250.13,-62.2819,-43.4175,0,0,3.28915,5
1774536284727,-0.0695687,-0.379557,0.571241,230.339,-59.2142,-94.8015,0,0,3.25995,5
1774536284741,-0.204336,-0.891566,0.802718,112.453,-37.446,-74.5374,0,0,3.26502,5
1774536284754,-0.142094,-0.112359,0.263954,18.9987,-2.45563,-13.8412,0,0,3.3261,3
1774536284768,0.049303,-0.380352,0.704315,-60.8735,16.2415,39.2516,0,0,3.35119,3
1774536284781,0.0595696,0.656422,0.37307,-85.2254,22.335,55.28,0,0,3.26378,3
1774536284795,-0.0146432,0.560554,0.382324,-93.4415,22.0229,51.6418,0,0,3.83871,3
1774536284809,-0.0773882,0.363051,0.354494,-114.256,21.2673,42.2762,0,0,3.52797,3
1774536284822,-0.0778808,0.247323,0.353027,-146.835,22.7021,33.7646,0,0,3.29988,3
1774536284836,-0.012944,0.238526,0.354492,-187.505,23.4655,28.413,0,0,3.27536,3
1774536284849,0.0783627,0.372549,0.323977,-229.2,20.7409,27.5879,0,0,3.3053,3
1774536284862,0.15893,0.576402,0.284671,-250.134,16.7945,30.0912,0,0,3.28915,3
1774536284876,0.173827,0.843975,0.188483,-250.137,12.5045,31.5036,0,0,3.26467,3
1774536284889,0.140383,1.02001,0.0671472,-250.137,10.2599,31.603,0,0,3.31132,3
1774536284903,0.0959504,1.19481,-0.0898328,-250.137,11.0915,29.2828,0,0,3.27015,3
1774536284916,0.0205131,1.31078,-0.204338,-250.137,19.6247,23.3062,0,0,3.6183,3
1774536284930,-0.044429,1.40478,-0.277339,-250.137,35.8983,17.3062,0,0,3.2779,5
1774536284943,-0.0434571,1.64378,-0.410147,-250.137,56.3633,11.6192,0,0,3.26571,5
1774536284956,-0.0266125,1.89158,-0.538565,-250.137,77.6838,9.25226,0,0,3.28215,5
1774536284970,-0.00512846,1.93676,-0.631341,-250.137,95.5393,8.92371,0,0,3.29334,5
1774536284983,0.0436978,1.90406,-0.700435,-250.137,106.922,3.84809,0,0,3.34495,5
1774536284997,0.262192,1.93872,-0.783197,-250.137,108.603,-14.0813,0,0,3.28493,5
1774536285011,0.578591,1.91382,-0.910636,-250.137,93.8877,-28.868,0,0,3.65602,5
1774536285024,0.878397,1.7754,-1.07763,-221.623,70.4081,-17.7345,0,0,3.27765,5
1774536285037,1.03685,1.60133,-1.09741,-190.791,42.1569,14.7432,0,0,3.25402,5
1774536285051,0.905527,1.20071,-1.21996,-172.453,14.6072,64.6337,0,0,3.27115,5
1774536285064,0.549097,1.27026,-1.416,-142.287,-11.3701,80.074,0,0,3.29088,5
1774536285077,-0.158398,1.24463,-1.61156,-98.8462,-20.5406,69.0932,0,0,3.33919,5
1774536285091,-0.556125,1.08253,-1.72289,-48.5953,-14.4131,29.3647,0,0,3.26593,5
1774536285105,-0.450447,0.932139,-1.62867,-1.15215,-5.97836,-17.2983,0,0,3.73334,5
1774536285118,-0.137961,0.991451,-1.41969,35.5594,0.281504,-33.1656,0,0,3.2721,5
1774536285131,0.0253792,1.07348,-1.05862,69.2927,5.29696,-28.7564,0,0,3.25419,5
1774536285145,-1.2211,1.57028,1.36629,250.103,3.77885,-86.9073,0,0,3.33067,5
1774536285158,-0.478568,3.68491,0.523985,181.064,-27.6747,-120.774,0,0,3.26141,5
1774536285172,-0.3296,-0.227021,0.0195666,187.335,9.08609,-86.2189,0,0,3.28863,5
1774536285185,-0.117935,0.206757,-0.0117166,208.249,28.5009,-44.4643,0,0,3.27786,5
1774536285198,0.123762,0.932078,-0.0351546,211.534,12.5902,-41.5501,0,0,3.28306,5
1774536285212,0.0747105,1.08837,-0.194569,198.895,-3.15794,-32.3907,0,0,3.30971,5
1774536285225,-0.0256277,1.07935,-0.230222,180.903,-9.64025,-13.8883,0,0,3.64141,2
1774536285239,-0.041991,0.984382,-0.277829,171.353,-7.8476,-4.04728,0,0,3.27754,5
1774536285252,-0.163077,0.883308,-0.363031,155.628,-3.45867,9.21175,0,0,3.25651,5
1774536285266,-0.00538213,0.882324,-0.420406,134.186,1.44965,20.296,0,0,3.29484,2
1774536285279,-0.00561522,0.842532,-0.496577,111.454,2.57235,27.8004,0,0,3.26817,2
1774536285292,0.022459,0.851562,-0.470217,93.9416,1.8398,28.0305,0,0,3.27597,2
1774536285306,0.0510234,0.821535,-0.451661,78.3306,5.05295,25.0005,0,0,3.27417,5
1774536285320,0.034425,0.542744,-0.453857,55.7362,5.0916,16.5127,0,0,3.73912,5
1774536285333,0.0561508,0.829326,-0.403568,51.306,2.97742,7.44411,0,0,3.42639,5
1774536285347,0.128169,0.950431,-0.420165,51.0458,0.85528,2.16873,0,0,3.30841,5
1774536285360,0.162839,0.682392,-0.554922,42.0853,-0.747851,-8.98306,0,0,3.28306,5
1774536285373,0.126956,0.719968,-0.486821,14.7751,-5.42678,-25.8906,0,0,3.30156,5
1774536285387,0.112794,0.851065,-0.499999,16.8241,-5.34352,-26.6335,0,0,3.31052,5
1774536285400,0.029791,0.985098,-0.488282,15.1529,-2.71032,-21.8404,0,0,3.3018,5
1774536285414,-0.00878636,0.927983,-0.475587,12.3974,-1.79403,-13.2914,0,0,3.89454,5
1774536285428,-0.0544402,0.957762,-0.495848,8.61889,-0.954324,-3.36027,0,0,3.29054,5
1774536285441,-0.0527345,1.00268,-0.481446,8.67938,2.49567,7.73879,0,0,3.26404,5
1774536285454,-0.0148952,0.935552,-0.480713,6.47361,4.36613,15.3882,0,0,3.27293,5
1774536285468,0.031735,0.946532,-0.479248,6.01534,5.15255,18.5568,0,0,3.26893,5
1774536285481,0.0661597,0.939454,-0.474854,5.84735,4.70999,16.4125,0,0,3.30004,5
1774536285495,0.111325,0.927491,-0.46338,6.44266,3.02315,11.0848,0,0,3.64519,5
1774536285508,0.141111,0.93579,-0.468261,7.12204,-0.136931,4.17661,0,0,3.28365,5
1774536285522,0.0979034,0.941162,-0.479003,7.38164,-1.14489,0.366984,0,0,3.35756,5
1774536285535,0.0817882,0.921144,-0.466798,7.4809,-2.18305,-3.50324,0,0,3.72199,5
1774536285549,0.0625013,0.897707,-0.484374,7.06876,-3.14489,-4.32049,0,0,3.26664,5
1774536285562,0.0476085,0.941403,-0.480469,7.47322,-3.09924,-3.70238,0,0,3.26656,5
1774536285576,0.0339365,0.942383,-0.484619,7.41222,-2.43521,-1.77128,0,0,3.27689,5
1774536285589,0.0461417,0.932862,-0.479737,6.76346,-1.7253,-0.0460603,0,0,3.3138,5
1774536285602,0.0622547,0.929932,-0.489745,6.06117,-1.59544,-0.129758,0,0,3.34315,5
1774536285616,0.058594,0.924561,-0.49707,6.47322,-2.6029,-1.45782,0,0,3.27373,5
1774536285630,0.0700676,0.921875,-0.482667,6.10693,-4.03795,-3.71722,0,0,3.80245,5
1774536285643,0.0874011,0.915284,-0.49121,5.86263,-5.01512,-5.57987,0,0,3.27021,5
1774536285657,0.0734873,0.916504,-0.486328,5.73284,-5.6106,-7.50353,0,0,3.27123,5
1774536285670,0.0542006,0.915283,-0.494384,5.42753,-6.16022,-8.98451,0,0,3.26893,5
1774536285683,0.0488285,0.91211,-0.494629,5.67172,-6.61825,-9.91589,0,0,3.26815,5
1774536285697,0.0146508,0.933592,-0.492676,5.55727,-6.2138,-9.00014,0,0,3.28182,5
1774536285710,0.0112307,0.939209,-0.492676,5.36644,-5.44286,-7.35902,0,0,3.26527,5
1774536285724,0.0358869,0.953856,-0.498291,5.67171,-5.09166,-5.4812,0,0,3.3158,5
1774536285737,0.0278326,0.94629,-0.501953,6.32051,-4.84736,-3.64913,0,0,3.26226,5
1774536285751,0.0192877,0.924074,-0.506347,5.69475,-5.00761,-1.24464,0,0,3.59117,5
1774536285764,0.0124517,0.893313,-0.498047,4.14527,-4.28255,1.5721,0,0,3.27586,5
1774536285777,0.0231926,0.918455,-0.502197,3.27494,-4.18322,2.80897,0,0,3.26076,3
1774536285791,0.0361319,0.90088,-0.494629,4.36625,-3.6871,2.70231,0,0,3.28801,3
1774536285804,0.0524891,0.944089,-0.505126,4.79383,-4.1297,2.40462,0,0,3.31475,3
1774536285818,0.0527344,0.945801,-0.508545,5.11446,-4.76326,2.4809,0,0,3.2933,3
1774536285831,0.0297868,0.948974,-0.510986,5.37401,-5.01523,3.98451,0,0,3.31067,3
1774536285845,0.0812952,0.949951,-0.509033,6.69446,-6.31278,3.51152,0,0,3.58867,3
1774536285858,0.102293,0.966552,-0.503662,8.61803,-8.98433,4.68685,0,0,3.32002,3
1774536285872,0.0671411,1.13134,-0.509277,12.5261,-11.8774,-1.58685,0,0,3.27358,3
1774536285885,0.256334,0.9983,-0.505127,13.1755,-15.1445,10.5173,0,0,3.28001,3
1774536285899,-0.109105,1.26048,-0.596429,22.2124,-10.9396,15.2588,0,0,3.30695,3
1774536285912,-0.0852068,1.35424,-0.571047,47.1947,-0.871739,26.5479,0,0,3.29249,3
1774536285925,0.0456451,1.14308,-0.553224,46.4429,-2.69438,31.7091,0,0,3.31395,3
1774536285939,-0.126453,1.55588,-0.620357,62.6159,0.923122,22.0396,0,0,3.32688,3
1774536285952,-0.0590867,1.3008,-0.560795,85.9049,3.03022,23.6028,0,0,3.26669,3
1774536285966,-0.0686028,1.29395,-0.568847,98.7156,6.33538,26.4729,0,0,3.2516,3
1774536285979,-0.0483413,1.26709,-0.560303,113.654,10.2437,24.4583,0,0,3.29539,5
1774536285993,0.0871487,1.23657,-0.567871,127.601,8.46592,25.4502,0,0,3.26117,5
1774536286006,0.17016,0.978778,-0.51514,138.433,4.48151,15.9938,0,0,3.28538,5
1774536286019,0.192625,1.1162,-0.585688,141.305,-0.258831,14.6796,0,0,3.27678,5
1774536286033,0.161623,1.54001,-0.657466,160.325,-3.97654,10.8555,0,0,3.33806,5
1774536286046,0.263176,1.73436,-0.665039,193.728,-10.022,1.48995,0,0,3.31713,5
1774536286060,0.395499,1.40578,-0.599614,215.241,-20.9678,-7.06742,0,0,3.6076,5
1774536286074,0.548329,1.64647,-0.597168,239.966,-35.4558,-15.6247,0,0,3.28169,5
1774536286087,0.541749,1.82299,-0.691156,250.128,-51.509,-19.1445,0,0,3.26554,5
1774536286100,0.569334,2.01561,-0.742672,250.13,-63.8607,-19.8091,0,0,3.28943,5
1774536286114,0.529544,2.01685,-0.648688,250.13,-70.1288,10.2321,0,0,3.29502,5
1774536286128,0.580563,1.48197,-0.667723,250.13,-81.983,48.4065,0,0,3.91811,5
1774536286141,0.121858,1.95456,-0.970926,250.13,-70.7345,58.1512,0,0,3.27039,5
1774536286155,0.427225,1.85596,-0.627465,250.13,-68.527,96.063,0,0,3.73128,5
1774536286168,0.543205,1.86694,-0.367694,250.13,-81.914,141.291,0,0,3.2861,5
1774536286182,0.424081,1.99755,-0.11452,250.13,-103.737,147.717,0,0,3.31736,5
1774536286195,0.330085,1.55936,0.584668,250.13,-132.965,131.01,0,0,3.29663,5
1774536286209,-0.356153,1.72142,0.0310446,250.13,-133.405,62.0638,0,0,3.27888,5
1774536286222,-0.572495,-0.813543,0.0661597,250.13,-116.422,-29.6122,0,0,3.30341,3
1774536286236,-0.81761,-1.08201,0.296615,156.495,-80.0742,-104.851,0,0,3.3141,3
1774536286250,-0.678721,-1.04004,0.323729,35.1403,-31.5798,-142.292,0,0,3.67369,3
1774536286263,-0.246368,-0.75002,0.335693,-72.1747,4.48314,-111.272,0,0,3.28402,3
1774536286277,0.134251,-0.534439,0.390621,-162.032,25.4167,-45.3458,0,0,3.2563,3
1774536286290,0.192135,-0.508791,0.55077,-247.552,37.128,26.4167,0,0,3.2821,3
1774536286303,0.219725,-0.388924,0.602535,-250.137,42.2969,68.7494,0,0,3.26327,2
1774536286317,0.2146,-0.172623,0.6748,-250.137,40.8704,86.3332,0,0,3.31193,2
1774536286330,0.148198,0.623724,0.592535,-250.137,40.5726,108.485,0,0,3.27201,2
1774536286344,0.11426,1.32905,0.210964,-250.137,44.2437,125.723,0,0,3.31234,2
1774536286357,0.111328,1.37304,-0.00242647,-250.137,46.4043,128.481,0,0,3.32558,2
1774536286371,-0.0185456,1.20655,-0.107415,-250.137,44.7254,122.23,0,0,3.64187,2
1774536286384,-0.096186,1.00587,-0.0769064,-250.137,44.5649,99.8659,0,0,3.27943,2
1774536286398,-0.0356488,1.03393,-0.11279,-250.137,42.0843,73.4162,0,0,3.29341,2
1774536286411,0.0546812,1.28197,-0.273915,-250.137,36.4054,59.9791,0,0,3.31834,2
1774536286425,0.0742174,1.64182,-0.466783,-250.137,33.1684,59.397,0,0,3.2634,2
1774536286438,-0.0185482,1.90721,-0.664049,-250.137,37.9687,62.0988,0,0,3.38986,5
1774536286452,-0.278058,1.80445,-0.767571,-250.137,55.2417,61.0612,0,0,3.2806,5
1774536286466,-0.452624,1.64845,-0.749757,-250.137,85.3161,44.1552,0,0,3.80787,5
1774536286479,-0.556145,1.71899,-0.788327,-250.137,119.323,21.0493,0,0,3.27427,5
1774536286493,-0.468024,1.85399,-0.770021,-250.137,151.835,2.5295,0,0,3.25728,5
1774536286506,-0.20827,1.95678,-0.827877,-250.137,170.562,-6.02162,0,0,3.27877,5
1774536286519,0.141577,2.07983,-0.985829,-250.137,166.81,-16.8915,0,0,3.26573,5
1774536286533,0.531223,2.07105,-1.19408,-250.137,141.286,-40.6911,0,0,3.31214,5
1774536286546,0.898168,1.93775,-1.39745,-250.137,102.777,-55.5779,0,0,3.34869,5
1774536286560,1.1494,1.79615,-1.54857,-222.035,62.1817,-42.4371,0,0,3.31589,5
1774536286573,1.10376,1.68629,-1.64477,-185.128,29.7606,8.83964,0,0,3.32697,5
1774536286587,0.745142,1.49196,-1.67285,-145.281,7.81245,60.0381,0,0,3.68437,5
1774536286601,0.183877,1.39283,-1.73486,-101.64,-2.09775,83.6224,0,0,3.28367,5
1774536286614,-0.358605,1.1841,-1.78076,-56.9456,3.99909,72.8795,0,0,3.29549,5
1774536286628,-0.614484,0.878195,-1.72071,-23.2417,13.5482,18.8631,0,0,3.27673,5
1774536286641,-0.374529,0.883056,-1.63575,7.88083,13.9541,-42.7923,0,0,3.30849,5
1774536286655,0.0490426,0.994133,-1.55933,42.5749,5.29138,-60.2646,0,0,3.34675,5
1774536286668,0.2307,1.0271,-1.41773,74.8425,-5.49457,-44.7123,0,0,3.29664,5
1774536286682,0.052991,1.0415,-1.24513,100.363,-10.2436,-36.1387,0,0,3.79784,5
1774536286696,-2.61187,2.04876,-0.0557473,250.107,-7.23709,-44.846,0,0,3.41486,5
1774536286709,-0.310464,3.92858,0.558795,205.411,-74.1655,-104.731,0,0,3.25882,3
1774536286722,-0.277346,-0.111289,-0.0797893,211.846,-53.049,-83.652,0,0,3.27826,3
1774536286736,-0.49437,0.0060953,-0.134518,232.035,1.67881,-29.2601,0,0,3.29008,3
1774536286749,0.204785,0.721874,-0.125733,225.978,0.801658,-34.6709,0,0,3.32356,3
1774536286763,-0.00413577,1.02122,-0.26,209.941,-3.67872,-29.8481,0,0,3.26854,5
1774536286777,0.063716,0.98218,-0.327876,186.187,-13.0826,-18.4063,0,0,3.64486,5
1774536286790,-0.0419848,0.903814,-0.36987,152.631,-10.6492,-2.23143,0,0,3.30202,5
1774536286803,-0.0661604,0.841069,-0.509023,124.226,-7.77142,9.16623,0,0,3.2471,5
1774536286817,-0.00268999,0.78809,-0.524657,100.851,-2.74884,16.953,0,0,3.27554,2
1774536286830,-0.0166006,0.834958,-0.5686,78.469,2.03745,17.0382,0,0,3.26201,2
1774536286844,0.125722,0.866453,-0.549806,45.9514,5.32775,12.3518,0,0,3.29154,2
1774536286857,0.105958,0.801274,-0.442634,37.5203,8.76284,10.5423,0,0,3.26221,2
1774536286870,0.113525,0.88476,-0.433106,32.4511,8.27488,5.95489,0,0,3.30919,2
1774536286884,0.125732,0.915281,-0.457518,30.0233,6.13773,0.33672,0,0,3.29739,5
1774536286898,0.115967,0.866947,-0.480223,22.4363,3.37446,-5.49531,0,0,3.7021,5
1774536286911,0.11499,0.870849,-0.464601,17.5275,-0.304792,-8.92315,0,0,3.30015,5
1774536286925,0.0490769,0.922604,-0.467041,11.1765,-2.51875,-10.7936,0,0,3.2808,5
1774536286938,0.0700669,0.932616,-0.455567,8.98506,-3.67158,-8.97737,0,0,3.29326,5
1774536286952,0.0339381,0.971433,-0.465087,8.96947,-3.47331,-4.94717,0,0,3.32867,5
1774536286965,0.0366209,1.01831,-0.458741,11.1447,-2.16813,1.23571,0,0,3.36132,5
1774536286979,-0.014889,0.987551,-0.471923,10.9237,0.602638,8.29665,0,0,3.27634,5
1774536286993,0.0151346,0.955325,-0.464112,10.4047,2.45774,11.7247,0,0,3.80341,5
1774536287006,0.049314,0.960693,-0.464355,10.168,3.4197,13.7173,0,0,3.28102,5
1774536287019,0.0693345,0.968017,-0.461914,11.2365,4.3739,13.107,0,0,3.24754,5
1774536287033,0.0722654,0.930178,-0.467285,10.8016,3.9161,11.878,0,0,3.29708,5
1774536287046,0.0793452,0.947997,-0.462647,10.0688,3.64126,10.7635,0,0,3.28904,5
1774536287060,0.079834,0.938477,-0.462646,9.35889,2.78639,9.91616,0,0,3.36754,5
1774536287073,0.0844723,0.933106,-0.468017,8.57264,1.53454,9.61073,0,0,3.33367,5
1774536287087,0.111814,0.904055,-0.463135,7.82454,0.740577,7.67968,0,0,3.33128,5
1774536287100,0.110108,0.92993,-0.468994,6.91617,-0.679176,4.80196,0,0,3.27962,5
1774536287114,0.0996101,0.915528,-0.458253,5.39717,-2.22878,1.00057,0,0,3.57423,5
1774536287127,0.114745,0.911377,-0.461426,4.25208,-3.32808,-1.98429,0,0,3.29347,5
1774536287141,0.0986339,0.926757,-0.462891,4.0611,-3.6717,-4.59503,0,0,3.26521,5
1774536287154,0.102051,0.913575,-0.461914,3.66418,-4.53422,-7.09123,0,0,3.28336,5
1774536287168,0.0805679,0.923339,-0.475585,3.87783,-4.48856,-7.58771,0,0,3.26439,5
1774536287181,0.0761722,0.936767,-0.471436,3.8397,-4.35117,-8.00757,0,0,3.34812,5
1774536287195,0.0827632,0.955809,-0.462647,3.64888,-4.39694,-8.23661,0,0,3.30376,5
1774536287209,0.0708016,0.946534,-0.484129,4.48842,-4.46564,-7.81686,0,0,3.79163,5
1774536287222,0.0510268,0.920412,-0.464845,3.73294,-4.83201,-7.2062,0,0,3.30036,5
1774536287235,0.0434576,0.910889,-0.4729,4.36632,-5.26711,-6.71763,0,0,3.25808,5
1774536287249,0.0441894,0.930419,-0.492919,3.45815,-5.22901,-4.87814,0,0,3.27638,5
1774536287262,0.0410158,0.933594,-0.482911,3.45802,-4.93134,-2.73315,0,0,3.28715,5
1774536287276,0.047607,0.920655,-0.471436,5.46535,-4.20622,-0.794184,0,0,3.28695,5
1774536287289,0.0322276,0.981685,-0.484618,6.41207,-3.58025,1.57216,0,0,3.27045,5
1774536287303,0.0380855,0.909673,-0.48169,5.26735,-2.85507,4.38126,0,0,3.29486,3
1774536287316,0.0427243,0.936277,-0.484131,6.35861,-2.32832,5.41969,0,0,3.27995,3
1774536287330,0.0585926,0.958006,-0.489502,8.03792,-2.12217,6.16783,0,0,3.57776,3
1774536287343,0.0595702,0.95459,-0.503173,8.90063,-2.26715,8.72481,0,0,3.27882,3
1774536287357,0.0683588,1.00537,-0.493165,12.6636,-2.63353,8.14513,0,0,3.27732,3
1774536287370,0.0190464,1.16991,-0.515135,17.8694,-2.01536,5.43552,0,0,3.28936,3
1774536287383,0.0759238,1.06373,-0.532714,22.1444,-2.54191,9.72455,0,0,3.28901,3
1774536287397,0.489961,1.1267,-0.459722,28.6097,-6.74746,24.8298,0,0,3.28623,3
1774536287410,-0.00533643,1.08374,-0.518306,36.5866,-0.61924,15.5968,0,0,3.31128,3
1774536287424,0.077875,1.15698,-0.553953,44.8614,-1.83951,18.0225,0,0,3.76134,3
1774536287438,0.0734866,1.19629,-0.557861,50.564,-2.9693,24.7547,0,0,3.28441,3
1774536287451,0.0581065,1.42479,-0.589597,65.2497,-3.17554,18.5811,0,0,3.28436,3
1774536287465,0.0419933,1.47705,-0.62158,89.2101,-3.45797,14.535,0,0,3.33123,5
1774536287478,0.0827608,1.3672,-0.547124,106.898,-3.80911,15.6105,0,0,3.26191,5
1774536287491,0.0895991,1.27906,-0.558105,120.41,-4.16025,13.8476,0,0,3.29189,5
1774536287505,0.0629901,1.21851,-0.588133,131.655,-3.35127,12.7635,0,0,3.27375,5
1774536287519,0.159905,1.38402,-0.576661,147.646,-5.59508,11.6109,0,0,3.60502,5
1774536287532,0.0896045,1.5327,-0.62817,169.958,-6.38156,13.7172,0,0,3.32854,5
1774536287545,0.172602,1.67748,-0.561528,197.935,-9.30491,9.77922,0,0,3.25495,5
1774536287559,0.196287,1.72216,-0.578368,222.714,-13.3582,5.87845,0,0,3.27912,5
1774536287572,0.281732,1.68189,-0.53638,249.027,-21.1439,1.10759,0,0,3.37017,5
1774536287586,0.200445,1.80541,-0.617914,250.13,-26.6633,2.04566,0,0,3.33241,5
1774536287599,0.305413,1.92992,-0.610352,250.13,-32.8082,-3.3427,0,0,3.26841,5
1774536287613,0.282716,1.72926,-0.664547,250.13,-38.8464,-9.18233,0,0,3.2853,5
1774536287626,0.323972,1.69458,-0.673095,250.13,-39.2976,-7.66435,0,0,3.27827,5
1774536287640,0.298342,1.60718,-0.821035,250.13,-47.2278,3.11289,0,0,3.70839,3
1774536287653,-0.0778545,1.67504,-0.833983,250.13,-34.2004,-3.4494,0,0,3.30867,3
1774536287667,0.238259,1.73193,-0.650648,250.13,-26.3142,41.0544,0,0,3.3011,3
1774536287680,0.327875,1.72876,-0.490246,250.13,-27.0991,94.1523,0,0,3.30693,3
1774536287694,0.203866,1.78759,-0.0823039,250.13,-38.2884,116.157,0,0,3.31126,3
1774536287707,0.111823,1.59498,0.806823,250.13,-60.0654,99.0255,0,0,3.3508,3
1774536287721,-0.171611,-3.4806,0.376251,250.13,-91.4838,5.38809,0,0,3.37828,3
1774536287735,-0.180419,-0.510706,0.708717,91.001,-111.371,-38.7796,0,0,3.81076,3
1774536287748,-0.304679,-0.673328,0.0781691,-42.0335,-88.4004,-49.029,0,0,3.29693,3
1774536287762,-0.26929,-0.136024,0.12817,-121.988,-65.6446,-22.3322,0,0,3.30323,3
1774536287775,-0.110607,0.0388061,0.177731,-181.342,-43.0492,-5.55213,0,0,3.29719,3
1774536287788,-0.11084,-0.0454043,0.234127,-237.709,-33.4366,0.0754919,0,0,3.2933,2
1774536287802,-0.195307,-0.0363776,0.334222,-250.136,-17.5978,6.86158,0,0,3.29802,2
1774536287815,-0.161623,0.200179,0.311769,-250.137,-0.949062,11.3352,0,0,3.28852,2
1774536287829,-0.0471272,0.694057,0.18287,-250.137,11.7615,15.1903,0,0,3.28521,2
1774536287842,0.0673748,1.00047,-0.0243996,-250.137,14.9308,20.4343,0,0,3.30345,2
1774536287856,0.13769,0.840587,-0.0715299,-250.137,13.2293,22.8317,0,0,3.72019,2
1774536287869,0.128907,0.78516,-0.10449,-250.137,9.39752,26.1751,0,0,3.26762,2
1774536287883,0.163572,0.93163,-0.153073,-250.137,6.19132,24.8857,0,0,3.26127,2
1774536287896,0.19531,1.19066,-0.318104,-250.137,2.11512,26.9463,0,0,3.27625,2
1774536287910,0.204589,1.32445,-0.439445,-250.137,-4.53335,32.1595,0,0,3.26734,3
1774536287923,0.211914,1.37841,-0.557365,-250.137,-11.3578,39.0906,0,0,3.32223,3
1774536287936,0.0712989,1.39429,-0.666985,-250.137,-11.9007,47.0064,0,0,3.29502,3
1774536287950,-0.134507,1.37769,-0.752191,-250.137,-2.50523,42.4358,0,0,3.67952,3
1774536287964,-0.304431,1.39844,-0.820796,-250.137,16.7528,26.7352,0,0,3.33986,5
1774536287977,-0.285402,1.51586,-0.850096,-250.137,40.4163,6.0489,0,0,3.26828,5
1774536287991,-0.119396,1.62621,-0.889157,-250.137,64.4086,1.20683,0,0,3.27849,5
1774536288004,0.0632196,1.70996,-0.954829,-250.137,83.188,18.7455,0,0,3.26652,5
1774536288018,0.180168,1.71753,-1.02319,-250.137,95.418,37.3407,0,0,3.29316,5
1774536288031,0.175782,1.56764,-1.07251,-242.81,102.266,51.8681,0,0,3.27036,5
1774536288045,0.102544,1.34621,-1.08887,-245.076,105.618,65.3797,0,0,3.27869,5
1774536288058,0.00488965,1.40869,-1.18505,-247.274,104.435,70.3657,0,0,3.30702,5
1774536288072,-0.121085,1.67869,-1.40038,-231.476,98.2986,58.8796,0,0,3.7101,5
1774536288085,-0.187007,1.70654,-1.67747,-201.699,83.4831,29.9814,0,0,3.29088,5
1774536288099,-0.190918,1.40017,-1.73877,-175.363,69.3456,-3.24692,0,0,3.26343,5
1774536288112,0.0178077,1.34693,-1.84423,-142.539,52.8574,-25.1494,0,0,3.28286,5
1774536288126,0.337868,1.22096,-1.97899,-100.586,30.9727,-24.4886,0,0,3.28521,5
1774536288139,0.41601,1.01759,-2.08593,-60.4869,6.59908,-0.476884,0,0,3.30765,5
1774536288153,0.106711,0.936285,-2.10791,-21.0288,-8.97476,24.813,0,0,3.27708,5
1774536288166,-0.686224,3.99966,-3.18474,140.96,-29.0046,-37.9372,0,0,3.62936,5
1774536288180,1.39194,-0.372741,-0.442575,161.31,-82.6484,23.7159,0,0,3.27956,5
1774536288193,0.407295,0.823403,-0.0295699,220.953,-76.3826,14.5434,0,0,3.25841,5
1774536288207,0.0901101,1.87346,0.156481,235.402,-55.3467,-20.1933,0,0,3.28854,5
1774536288220,-0.114732,1.25761,-0.213841,228.902,-32.8431,-19.8245,0,0,3.26728,5
1774536288233,-0.0361383,0.812287,-0.342032,206.69,-10.5835,-21.038,0,0,3.29095,5
1774536288247,0.109609,0.839598,-0.313723,184.835,-6.38231,-22.5723,0,0,3.26663,5
1774536288260,-0.00414243,0.837891,-0.450674,160.133,-10.404,-17.1687,0,0,3.30567,5
1774536288274,-0.0688431,0.880124,-0.478025,135.187,-7.72559,-0.781084,0,0,3.29164,3
1774536288287,0.00829538,0.900145,-0.486083,114.446,-3.57314,5.73185,0,0,3.62365,3
1774536288301,-0.0983812,0.834965,-0.488037,94.2626,9.50186,12.9607,0,0,3.29064,3
1774536288314,0.0475972,0.677013,-0.618887,69.0038,9.55724,10.6645,0,0,3.2896,3
1774536288328,-0.155992,0.928205,-0.509773,54.9792,18.0598,21.5175,0,0,3.30467,3
1774536288341,0.0241573,0.933105,-0.432378,49.8557,19.6868,29.5942,0,0,3.26869,3
1774536288356,0.0141609,0.953612,-0.494136,52.9156,20.7785,39.0978,0,0,4.77919,3
1774536288371,0.223862,0.566922,-0.586419,31.9039,15.1459,27.7193,0,0,3.27678,3
1774536288384,0.158452,0.863749,-0.504644,15.6208,10.9854,21.5047,0,0,3.30851,5
1774536288398,0.213863,0.795171,-0.486818,11.6113,6.45869,12.467,0,0,3.29258,5
1774536288412,0.177005,0.882074,-0.492919,6.54274,3.489,8.3136,0,0,3.638,5
1774536288425,0.153566,0.920896,-0.482911,1.39009,-1.91522,5.15315,0,0,3.28051,5
1774536288438,0.137696,0.939208,-0.470704,0.47342,-3.96153,2.51948,0,0,3.28312,5
1774536288452,0.121339,0.959227,-0.476806,3.04542,-4.48847,0.786519,0,0,3.37612,5
1774536288466,0.0922872,0.978758,-0.498045,3.20608,-4.41223,2.4425,0,0,3.39963,5
1774536288479,0.0966794,0.957521,-0.481691,5.42715,-1.93167,3.89291,0,0,3.31684,5
1774536288493,0.0927737,0.963378,-0.483887,7.17531,0.289743,5.21354,0,0,3.28834,5
1774536288507,0.117674,0.95459,-0.486084,8.11436,1.93105,5.09162,0,0,3.78102,5
1774536288520,0.155515,0.894291,-0.482666,7.93133,1.03067,1.21432,0,0,3.27471,5
1774536288534,0.151123,0.900878,-0.48706,5.19888,-0.396732,-1.63316,0,0,3.29897,5
1774536288547,0.143799,0.922362,-0.479493,3.58803,-2.49587,-3.73251,0,0,3.27089,5
1774536288561,0.11548,0.911622,-0.489013,2.44292,-4.16006,-4.38158,0,0,3.27551,5
1774536288574,0.0961928,0.908447,-0.481202,1.03838,-5.10673,-3.44289,0,0,3.30901,5
1774536288588,0.121824,0.924804,-0.47461,0.427573,-5.90064,-3.45038,0,0,3.2708,5
1774536288601,0.0988786,0.94287,-0.481201,0.900692,-6.07631,-2.94664,0,0,3.30708,5
1774536288615,0.103515,0.934327,-0.483398,1.6869,-5.14518,-2.91604,0,0,3.27562,5
1774536288628,0.126951,0.912599,-0.483887,2.1297,-4.72525,-4.53411,0,0,3.61686,5
1774536288642,0.10962,0.938475,-0.483887,2.87012,-3.77877,-6.11427,0,0,3.28288,5
1774536288655,0.125975,0.935059,-0.486084,3.52662,-3.52676,-8.50346,0,0,3.27049,5
1774536288669,0.114015,0.914796,-0.484863,3.18326,-3.28248,-10.3051,0,0,3.27878,5
1774536288682,0.116943,0.914063,-0.488037,3.2519,-2.95425,-11.7173,0,0,3.26065,5
1774536288695,0.0981458,0.927733,-0.500243,2.70237,-3.2366,-12.9845,0,0,3.33295,5
1774536288709,0.107665,0.906496,-0.489747,2.03064,-3.8396,-14.122,0,0,3.26908,5
1774536288723,0.0788594,0.938963,-0.490967,1.44284,-4.08393,-14.0992,0,0,3.7605,5
1774536288736,0.0761721,0.950195,-0.497314,1.55723,-4.22899,-14.3511,0,0,3.27895,3
1774536288750,0.116452,0.935548,-0.484864,2.43498,-4.79381,-16.1066,0,0,3.25428,3
1774536288763,0.0720246,0.923829,-0.480225,3.84712,-4.55729,-16.0382,0,0,3.2556,3
1774536288776,0.0659184,0.949949,-0.49829,5.19064,-4.13747,-14.6796,0,0,3.29754,3
1774536288790,0.0246611,0.94458,-0.498047,5.83196,-4.15267,-10.4205,0,0,3.31084,3
1774536288803,0.00122234,0.949463,-0.506591,6.60294,-2.62618,-4.98555,0,0,3.27647,3
1774536288817,0.0356421,0.963378,-0.491944,7.37393,-0.908655,-0.771624,0,0,3.36675,3
1774536288830,0.0522449,0.946046,-0.496826,7.64118,-0.221477,2.12934,0,0,3.28108,3
1774536288844,0.0891087,0.936524,-0.49292,7.55726,0.206043,2.54192,0,0,3.66919,3
1774536288858,0.0993645,0.928956,-0.506103,7.74806,-1.03798,0.084338,0,0,3.2798,3
1774536288871,0.094971,0.924317,-0.506836,7.93127,-2.03802,-2.1905,0,0,3.2726,3
1774536288885,0.0773938,0.913087,-0.507324,7.97709,-2.6106,-3.30518,0,0,3.27745,3
1774536288898,0.0422388,0.938963,-0.500245,7.77866,-2.15274,-2.11468,0,0,3.26875,3
1774536288912,0.0424805,0.910891,-0.495606,11.0377,-1.45812,-0.397204,0,0,3.35162,3
1774536288925,0.0253918,0.970699,-0.528806,13.7858,-0.84742,1.90805,0,0,3.29849,3
1774536288940,0.09521,1.02221,-0.49927,15.6028,-0.778636,4.41947,0,0,4.44109,3
1774536288953,0.0456578,0.929694,-0.516356,15.3817,0.557052,9.7015,0,0,3.27449,3
1774536288966,0.0466308,1.0996,-0.536376,21.4418,0.77096,13.3582,0,0,3.27149,3
1774536288980,0.0207538,1.3286,-0.556395,31.052,1.0076,13.8625,0,0,3.28602,3
1774536288993,0.0642059,1.34985,-0.524416,39.3575,0.740498,38.1567,0,0,3.30969,5
1774536289008,-0.0288021,1.14064,-0.590327,49.0901,9.77727,37.6337,0,0,3.30276,5
1774536289021,0.112051,1.28759,-0.586914,57.0064,8.83984,44.3196,0,0,3.27015,5
1774536289036,0.103028,1.27368,-0.568849,64.0142,6.33625,37.0698,0,0,4.86039,5
1774536289050,0.0749531,1.57786,-0.608152,91.3394,6.35878,27.9937,0,0,3.25138,5
1774536289064,0.146723,1.25783,-0.548588,105.433,4.47357,28.3282,0,0,3.81891,5
1774536289080,0.170897,1.14918,-0.548828,122.486,1.32872,19.3525,0,0,3.30954,5
1774536289093,0.20117,1.30858,-0.582029,136.647,-1.51866,14.7183,0,0,3.27326,5
1774536289107,0.221678,1.40478,-0.584961,158.638,-5.32767,15.4579,0,0,3.31227,5
1774536289120,0.259031,1.45898,-0.580567,180.928,-10.9763,11.1533,0,0,3.26136,5
1774536289136,0.296872,1.50464,-0.607908,206.737,-19.2278,3.00886,0,0,3.30917,5
1774536289149,0.303466,1.50195,-0.578615,227.134,-26.8767,-3.31966,0,0,3.2938,5
1774536289166,0.270022,1.72362,-0.553957,250.126,-34.7011,-8.98388,0,0,6.01609,5
1774536289179,0.338862,1.79882,-0.640863,250.13,-42.205,-18.7619,0,0,3.2833,5
1774536289192,0.347167,1.67677,-0.630616,250.13,-48.9837,-25.3578,0,0,3.34221,5
1774536289210,0.207041,1.9824,-0.729241,250.13,-53.0528,-26.7326,0,0,3.27273,5
1774536289224,0.355458,1.3582,-0.77612,250.13,-51.3285,-4.98036,0,0,3.30115,5
1774536289237,-0.0531941,1.41088,-0.783203,250.13,-49.1606,-10.9838,0,0,3.26864,5
1774536289250,0.0761628,1.55687,-0.895988,250.13,-32.9795,-5.75651,0,0,3.29506,5
1774536289264,0.281968,1.66308,-0.566673,250.13,-23.9021,55.258,0,0,3.27201,5
1774536289277,0.304686,1.64087,-0.367201,250.13,-21.7255,114.358,0,0,3.27732,5
1774536289290,0.261966,1.40651,-0.0207762,250.13,-38.1884,125.571,0,0,3.27234,3
1774536289304,0.219974,0.332839,0.621293,250.13,-65.8203,76.6791,0,0,3.25519,3
1774536289317,0.246336,-3.23388,-0.0983383,247.252,-75.6092,-24.9237,0,0,3.3246,3
1774536289331,-0.0136537,-0.0119443,0.226052,68.0879,-71.8861,-65.3985,0,0,3.25364,3
1774536289344,-0.0046393,-0.440156,-0.117896,-48.9061,-56.2161,-62.5958,0,0,3.26634,3
1774536289357,0.194322,0.00631641,-0.0698276,-107.388,-52.7181,-40.9651,0,0,3.2703,3
1774536289371,0.239499,0.165272,-0.061524,-152.146,-57.0375,-23.7812,0,0,3.24764,3
1774536289384,0.0930278,0.190916,-0.00268966,-189.75,-62.0908,-6.78118,0,0,3.27704,3
1774536289397,-0.0331943,0.00513996,0.113273,-233.841,-57.8403,6.88345,0,0,3.25447,3
1774536289412,-0.0737276,-0.444793,0.341293,-250.135,-52.1383,17.693,0,0,3.29002,3
1774536289425,-0.0781247,-0.0166315,0.360838,-250.137,-45.4743,26.0827,0,0,3.25619,3
1774536289439,-0.0769044,0.74067,0.173353,-250.137,-36.1159,36.8381,0,0,3.25063,3
1774536289452,-0.0690923,1.04905,-0.0551598,-250.137,-24.2003,52.4099,0,0,3.25439,3
1774536289465,-0.0568856,0.886486,-0.123286,-250.137,-14.8564,61.3345,0,0,3.24678,3
1774536289479,-0.172355,0.90576,-0.229485,-250.137,-3.6658,58.7179,0,0,3.28173,3
1774536289492,-0.229976,0.885744,-0.296626,-250.137,10.2804,39.3922,0,0,3.27478,3
1774536289506,-0.092783,0.955562,-0.317381,-250.137,18.4644,16.5225,0,0,3.35965,3
1774536289519,0.0397856,1.24119,-0.503161,-250.137,22.7551,15.9314,0,0,3.27536,3
1774536289533,0.123285,1.57883,-0.74925,-250.137,27.4573,25.3192,0,0,3.33312,3
1774536289546,0.0210033,1.63501,-0.919422,-250.137,35.869,32.8767,0,0,3.26252,3
1774536289559,-0.134022,1.43898,-0.955076,-250.137,53.3791,23.0167,0,0,3.28634,3
1774536289573,-0.208735,1.31153,-0.995114,-250.137,76.0806,0.568252,0,0,3.26925,3
1774536289586,-0.137944,1.37475,-1.01269,-250.137,102.057,-17.5774,0,0,3.27369,5
1774536289599,0.050768,1.52465,-1.02466,-250.137,124.821,-17.1069,0,0,3.27408,5
1774536289613,0.186514,1.49707,-1.00269,-250.137,143.974,-0.781074,0,0,3.25812,5
1774536289626,0.27929,1.4397,-0.94019,-250.137,156.777,15.4479,0,0,3.29484,5
1774536289640,0.328366,1.3711,-0.917238,-248.367,160.831,31.0129,0,0,3.24427,5
1774536289653,0.304201,1.39575,-0.986079,-245.81,158.855,48.6386,0,0,3.26999,5
1774536289666,0.175302,1.39331,-1.0686,-241.237,150.085,52.7093,0,0,3.26527,5
1774536289681,0.197996,1.5078,-1.18676,-230.421,126.317,28.7364,0,0,4.516,5
1774536289694,0.312492,1.56933,-1.28491,-212.201,94.7223,1.14918,0,0,3.28256,5
1774536289708,0.54637,1.50562,-1.38207,-190.4,59.6083,-6.22027,0,0,3.26617,5
1774536289721,0.790999,1.33497,-1.47021,-167.599,20.7539,10.0052,0,0,3.29476,5
1774536289734,0.915519,1.2688,-1.58471,-138.485,-19.2001,33.9888,0,0,3.25471,5
1774536289748,0.587669,1.30932,-1.739,-97.3649,-47.5988,68.9947,0,0,3.26719,5
1774536289761,-0.0976083,1.23487,-1.76733,-51.2054,-49.4806,86.5088,0,0,3.26462,5
1774536289774,-0.634972,1.05079,-1.69214,-10.1512,-30.7051,64.1331,0,0,3.26938,5
1774536289788,-0.811999,0.941658,-1.60132,27.2234,-3.82083,6.85592,0,0,3.29336,5
1774536289801,-0.966786,3.99966,-2.17037,250.096,-23.0887,-28.7122,0,0,3.25482,5
1774536289815,1.17221,0.200217,-0.571401,117.417,-45.0501,-49.7068,0,0,3.28625,5
1774536289828,0.622353,-0.472365,0.334653,237.982,-7.9216,-57.5637,0,0,3.25073,5
1774536289841,-0.0553725,1.22205,0.00515002,250.128,8.22659,-46.5207,0,0,3.35769,5
1774536289855,-0.0588376,1.48509,-0.159901,237.2,7.74816,-29.8193,0,0,3.27184,5
1774536289868,0.0956923,1.15066,-0.276359,208.31,-0.105692,-12.2545,0,0,3.28776,5
1774536289882,0.055911,0.87331,-0.315915,187.652,-13.3339,-2.13129,0,0,3.58832,5
1774536289895,-0.147935,0.815434,-0.392085,162.988,-8.2603,19.6761,0,0,3.25601,3
1774536289909,-0.022958,0.873775,-0.434811,140.851,-0.695791,25.3274,0,0,3.27223,3
1774536289922,0.0139134,0.879882,-0.424805,124.659,4.47251,25.3588,0,0,3.24325,3
1774536289935,0.0905708,0.823002,-0.482906,103.789,8.83141,26.7021,0,0,3.30775,3
1774536289949,0.261463,0.72901,-0.486084,83.0413,1.14619,16.8488,0,0,3.26764,3
1774536289962,0.072523,0.779049,-0.492919,54.1341,7.88449,12.6037,0,0,3.28802,3
1774536289976,0.117917,0.858881,-0.460207,48.4665,8.30528,9.63403,0,0,3.26919,3
1774536289989,0.125244,0.876219,-0.487059,39.9326,5.93929,7.5423,0,0,3.26969,5
1774536290002,0.140136,0.811528,-0.515623,29.4367,2.74857,1.9932,0,0,3.27845,5
1774536290016,0.0942415,0.843015,-0.513184,22.688,1.47347,-1.80859,0,0,3.29189,5
1774536290030,0.0864263,0.861083,-0.492921,13.4212,-0.549315,-3.35091,0,0,3.64817,5
1774536290044,0.0781256,0.912838,-0.495117,12.2292,-0.442764,-1.11484,0,0,3.28401,5
1774536290057,0.0332063,0.919433,-0.478029,8.59596,0.610529,1.15233,0,0,3.28839,5
1774536290070,0.0683569,0.97192,-0.471192,9.09153,0.954147,2.49598,0,0,3.28175,5
1774536290084,0.0717771,0.922611,-0.476806,8.69472,1.67928,1.99244,0,0,3.68976,5
1774536290098,0.0856924,0.934081,-0.479004,8.17565,2.58765,2.87773,0,0,3.27682,5
1774536290111,0.0913082,0.928467,-0.473877,8.64878,3.83187,1.51929,0,0,3.25573,5
1774536290124,0.0798348,0.883304,-0.490966,6.27517,2.14529,0.603191,0,0,3.28578,5
1774536290138,0.0930167,0.958735,-0.474611,6.63353,1.93133,-0.137294,0,0,3.25762,5
1774536290151,0.0952147,0.930666,-0.485839,5.71006,0.618518,-0.839589,0,0,3.37165,5
1774536290165,0.0629905,0.912355,-0.496825,4.07658,-0.183086,1.32029,0,0,3.27073,5
1774536290178,0.0795887,0.918212,-0.483155,3.57259,-0.854861,2.47311,0,0,3.75982,5
1774536290192,0.0766604,0.930907,-0.483154,2.68716,-1.06104,3.67921,0,0,3.31636,5
1774536290205,0.0793455,0.924561,-0.479981,2.20618,-0.992377,4.83952,0,0,3.28206,5
1774536290219,0.08789,0.937011,-0.483154,2.36639,-0.694701,4.72521,0,0,3.39095,5
1774536290232,0.10205,0.952147,-0.468263,3.25178,-0.282505,3.63375,0,0,3.26412,5
1774536290245,0.102051,0.932619,-0.471435,3.41982,-0.801449,2.05367,0,0,3.29397,5
1774536290259,0.107666,0.918214,-0.47583,3.33589,-1.01524,0.710125,0,0,3.25828,5
1774536290272,0.091798,0.933349,-0.485107,3.54959,-1.29004,-0.885257,0,0,3.30343,5
1774536290286,0.0954587,0.91089,-0.494384,2.66425,-1.98463,-1.85482,0,0,3.26677,5
1774536290299,0.085694,0.92578,-0.478028,2.38935,-2.77851,-2.78612,0,0,3.59658,5
1774536290313,0.0725107,0.925537,-0.490234,1.61844,-2.96944,-2.68704,0,0,3.27602,5
1774536290326,0.0878895,0.926269,-0.482422,1.8015,-3.46557,-2.78624,0,0,3.25491,5
1774536290339,0.0742197,0.937743,-0.48999,1.93891,-2.82452,-1.98485,0,0,3.29482,5
1774536290353,0.0610361,0.921632,-0.487549,1.74812,-2.29016,-1.12227,0,0,3.31184,5
1774536290366,0.0839828,0.920166,-0.491211,2.62582,-1.78634,-0.534439,0,0,3.33732,5
1774536290380,0.0700693,0.930663,-0.491211,2.62595,-0.923793,0.221261,0,0,3.27343,5
1774536290393,0.0749508,0.911378,-0.489746,2.06115,-0.335966,0.442715,0,0,3.68987,5
1774536290407,0.0842279,0.92456,-0.494873,1.58022,-0.893046,0.389321,0,0,3.27195,5
1774536290420,0.10327,0.928955,-0.468996,1.32828,-0.679421,-0.572375,0,0,3.26026,5
1774536290434,0.0991214,0.900637,-0.470947,1.4351,-2.328,-2.25166,0,0,3.28643,5
1774536290447,0.0834972,0.926268,-0.497068,2.83948,-2.68697,-3.7326,0,0,3.26302,5
1774536290460,0.0837402,0.956541,-0.488526,2.72521,-3.18313,-4.15261,0,0,3.36632,5
1774536290474,0.0856932,0.936037,-0.48877,3.13734,-3.38928,-4.87775,0,0,3.26869,5
1774536290488,0.102782,0.927735,-0.504149,3.82432,-4.01517,-6.64096,0,0,3.77186,5
1774536290501,0.101807,0.936523,-0.501953,4.71742,-4.85484,-8.55696,0,0,3.27754,5
1774536290514,0.110351,0.956297,-0.488282,6.02271,-6.17537,-11.0073,0,0,3.25271,5
1774536290528,0.0839862,0.934084,-0.497802,7.28225,-6.45034,-12.0227,0,0,3.28154,5
1774536290541,0.0627456,0.958983,-0.505615,9.09896,-6.60303,-10.9925,0,0,3.28002,5
1774536290555,0.0449231,0.954834,-0.508301,9.99986,-6.00009,-7.8478,0,0,3.36391,5
1774536290568,0.0105005,0.944581,-0.497803,10.9159,-4.33613,-3.08468,0,0,3.40302,5
1774536290582,-0.00341699,0.94751,-0.507812,12.6868,-3.06126,1.25889,0,0,3.6106,5
1774536290596,0.0556599,0.988278,-0.528075,12.1451,-2.13754,4.24383,0,0,3.71476,5
1774536290609,0.0424814,0.94263,-0.509523,12.4809,-1.28257,7.72467,0,0,3.25497,5
1774536290622,0.0688458,0.971434,-0.540037,13.4121,-1.93883,9.44249,0,0,3.28177,5
1774536290636,0.0830068,0.923587,-0.515871,15.847,-1.63363,12.9079,0,0,3.25762,3
1774536290649,-0.0207447,1.26218,-0.549314,27.1739,-0.374235,9.96227,0,0,3.2938,3
1774536290663,-0.00732516,1.22779,-0.555175,30.5415,1.95385,21.3113,0,0,3.26197,3
1774536290676,-0.101068,1.09181,-0.577391,42.9294,4.96901,18.1226,0,0,3.28038,3
1774536290689,0.087145,1.1311,-0.598631,47.6863,6.78599,39.0121,0,0,3.2673,3
1774536290703,0.0407747,1.22167,-0.601074,59.0059,5.55744,37.3361,0,0,3.67763,3
1774536290717,0.111079,1.38597,-0.581056,74.9213,5.22142,26.1849,0,0,3.31751,5
1774536290730,0.100587,1.31861,-0.576416,96.1953,4.79396,29.1217,0,0,3.29025,5
1774536290743,0.118163,1.26953,-0.585693,109.983,3.96196,28.5879,0,0,3.28217,5
1774536290757,0.15283,1.24585,-0.564943,126.181,2.52693,22.0315,0,0,3.27658,5
1774536290770,0.19531,1.26001,-0.567871,138.731,-0.114108,17.619,0,0,3.35477,5
1774536290784,0.196777,1.54685,-0.637446,159.775,-3.12169,20.137,0,0,3.27595,5
