timestamp,ax,ay,az,gx,gy,gz,roll_k,pitch_k,delay_ms,classe_prevista
1771446632478,0.013188,0.676495,-0.194075,0.881002,-0.01762,-0.311287,0,0,3.25689,-1
1771446632492,0.0197423,0.806547,-0.231755,1.44531,-0.192952,-0.594861,0,0,3.25702,-1
1771446632505,0.020593,0.866651,-0.246738,1.86853,-0.38101,-1.02136,0,0,3.25646,-1
1771446632518,0.0202453,0.899243,-0.257709,2.32788,-0.503557,-1.18011,0,0,3.25746,-1
1771446632532,0.0199784,0.918602,-0.265252,2.5769,-0.673008,-1.31328,0,0,3.27869,-1
1771446632545,0.0206374,0.931744,-0.271298,2.78912,-0.785537,-1.43098,0,0,3.63232,-1
1771446632559,0.0186077,0.939073,-0.274677,3.08977,-0.979413,-1.56951,0,0,3.58765,-1
1771446632573,0.0140329,0.94521,-0.277869,3.27463,-1.02991,-1.69005,0,0,3.29759,-1
1771446632586,0.0111589,0.953589,-0.280726,3.55551,-1.03619,-1.63122,0,0,3.26939,-1
1771446632599,0.00852324,0.957445,-0.283916,3.81542,-0.998945,-1.42874,0,0,3.34965,5
1771446632617,0.00795445,0.959689,-0.286818,3.95626,-0.989973,-1.26825,0,0,7.27043,5
1771446632630,0.00696286,0.960777,-0.289759,4.15253,-0.970336,-1.06176,0,0,3.26615,5
1771446632643,0.00543304,0.96087,-0.292021,4.26111,-0.928708,-0.89281,0,0,3.25932,5
1771446632657,0.00246165,0.962444,-0.293569,4.24632,-0.781016,-0.701576,0,0,3.30043,5
1771446632670,0.00287319,0.966769,-0.293938,4.32301,-0.654555,-0.494232,0,0,3.26933,5
1771446632684,0.002517,0.970938,-0.295156,4.51641,-0.501597,-0.294346,0,0,3.3167,5
1771446632697,0.00269286,0.974032,-0.295387,4.75743,-0.358971,-0.108741,0,0,3.29441,5
1771446632710,0.00186873,0.976397,-0.296244,5.08698,-0.222142,0.0749119,0,0,3.28628,5
1771446632724,0.00054254,0.976178,-0.29815,5.43001,-0.059024,0.289936,0,0,3.26578,5
1771446632737,0.000865572,0.974867,-0.300149,5.65108,0.0775473,0.534147,0,0,3.2667,5
1771446632751,0.00064146,0.973799,-0.302566,5.81791,0.198998,0.841564,0,0,3.31363,5
1771446632764,0.00105407,0.971626,-0.30405,5.92102,0.290629,1.15901,0,0,3.25478,5
1771446632777,-0.000747456,0.969475,-0.306062,5.90445,0.410738,1.4634,0,0,3.26713,5
1771446632791,-0.00101515,0.970617,-0.306765,5.90567,0.533524,1.78506,0,0,3.25513,5
1771446632804,0.00263333,0.971148,-0.308364,5.9422,0.620167,2.14729,0,0,3.30589,5
1771446632817,0.00642434,0.970982,-0.310316,5.93585,0.524577,2.40947,0,0,3.34185,5
1771446632831,0.00855705,0.970294,-0.311777,5.915,0.391445,2.51438,0,0,3.27465,5
1771446632844,0.00890724,0.971605,-0.312804,5.95535,0.126411,2.56978,0,0,3.28295,5
1771446632858,0.00563865,0.974328,-0.313741,6.03151,0.0816132,2.54882,0,0,3.26415,5
1771446632871,0.00895709,0.977002,-0.314557,6.17363,0.0694502,2.55297,0,0,3.28182,5
1771446632885,0.118099,0.978561,-0.314878,6.2362,0.0404387,2.31108,0,0,3.62693,3
1771446632899,0.0251508,0.98232,-0.314272,6.44857,-0.162592,1.69935,0,0,3.7218,5
1771446632913,0.0278706,0.988333,-0.313193,7.16328,-0.471656,0.784902,0,0,4.16895,5
1771446632927,0.0280798,0.994801,-0.313101,8.11832,-0.861408,-0.110115,0,0,3.72341,5
1771446632942,0.0242302,1.00332,-0.312526,9.17788,-1.16034,-0.728943,0,0,3.30996,5
1771446632955,0.0192746,1.01417,-0.310793,10.5361,-1.4351,-0.964612,0,0,3.28496,5
1771446632968,0.00967651,1.02702,-0.307949,12.3634,-1.4056,-1.01244,0,0,3.2898,2
1771446632983,0.00136012,1.04305,-0.302633,14.9413,-1.08119,-0.870833,0,0,4.98909,5
1771446632997,-0.0044156,1.06077,-0.298025,18.3458,-0.535071,-0.643619,0,0,3.29609,5
1771446633010,-0.0076623,1.08004,-0.293754,22.4596,0.188541,-0.749157,0,0,3.29113,5
1771446633024,-0.0120129,1.10247,-0.288286,27.5232,1.27716,-1.40707,0,0,3.496,2
1771446633037,-0.0202698,1.12755,-0.283057,33.6766,2.78486,-2.5677,0,0,3.27848,5
1771446633051,-0.0386383,1.15597,-0.277831,40.8041,5.26711,-4.56518,0,0,3.72756,5
1771446633065,-0.0641046,1.18762,-0.273605,49.2072,9.03481,-7.6635,0,0,3.29185,5
1771446633079,-0.0917399,1.22546,-0.265902,58.7486,14.2899,-11.8067,0,0,4.50472,2
1771446633093,-0.120503,1.26717,-0.257501,69.5896,21.4749,-17.1411,0,0,3.30389,5
1771446633106,-0.143187,1.30332,-0.245081,79.8055,30.3216,-24.7691,0,0,3.28732,5
1771446633119,-0.153698,1.35374,-0.232724,89.4342,39.9612,-33.9674,0,0,3.33572,5
1771446633133,-0.144994,1.41302,-0.226354,98.5108,49.334,-40.9249,0,0,3.81389,5
1771446633147,-0.122428,1.45093,-0.210073,107.068,57.9696,-45.3893,0,0,3.32532,5
1771446633160,-0.0942637,1.46966,-0.183555,115.137,65.2722,-49.0761,0,0,3.29439,5
1771446633174,-0.039153,1.47644,-0.134647,122.747,70.5667,-52.1962,0,0,3.71269,3
1771446633187,0.0300569,1.46297,-0.14547,129.923,71.8099,-54.6365,0,0,3.29806,3
1771446633201,0.0937488,1.41025,-0.143541,136.692,70.0006,-57.1931,0,0,3.30211,3
1771446633214,0.165956,1.35923,-0.150441,143.077,64.2253,-58.5989,0,0,3.29061,3
1771446633228,0.201905,1.29113,-0.158747,146.644,56.703,-57.0267,0,0,3.28222,3
1771446633242,0.226249,1.23028,-0.162072,145.111,48.2577,-54.2729,0,0,3.31408,5
1771446633255,0.239961,1.16019,-0.163801,139.854,40.9534,-52.4767,0,0,3.30522,5
1771446633269,0.247263,1.08226,-0.162745,130.742,35.325,-53.1365,0,0,3.75317,3
1771446633282,0.255314,1.0122,-0.156306,118.714,31.3872,-56.7802,0,0,3.376,3
1771446633296,0.265082,0.945995,-0.143803,105.157,28.4903,-62.2117,0,0,3.26298,3
1771446633309,0.272702,0.88309,-0.127461,89.6762,26.0226,-67.2036,0,0,3.27617,3
1771446633323,0.279013,0.827997,-0.109268,71.6227,23.6824,-69.6199,0,0,3.26022,3
1771446633336,0.286386,0.781712,-0.0902639,53.5522,21.5807,-68.9656,0,0,3.29867,3
1771446633349,0.29022,0.74188,-0.0691316,36.4989,20.1378,-65.606,0,0,3.26445,3
1771446633363,0.295901,0.708865,-0.0458584,20.4051,19.554,-60.517,0,0,3.33363,3
1771446633376,0.298873,0.684804,-0.0181681,5.21648,19.9879,-54.6905,0,0,3.27183,3
1771446633389,0.306818,0.679185,0.00994586,-9.11804,21.263,-49.6029,0,0,3.26367,3
1771446633403,0.31708,0.681598,0.0333946,-22.6467,22.885,-45.247,0,0,3.27769,3
1771446633416,0.329354,0.691427,0.0527195,-35.4151,24.4982,-41.2344,0,0,3.28185,3
1771446633430,0.341492,0.709585,0.0654477,-47.466,25.8733,-36.8856,0,0,3.38309,3
1771446633444,0.352783,0.735457,0.073651,-58.8399,26.8314,-31.747,0,0,3.69911,3
1771446633457,0.368394,0.772618,0.0782265,-69.5749,27.1729,-25.9079,0,0,3.68317,3
1771446633471,0.384859,0.826392,0.0769482,-79.707,26.7164,-20.1749,0,0,3.29646,3
1771446633484,0.39392,0.891389,0.0634719,-89.2701,25.6345,-15.5819,0,0,3.29678,5
1771446633498,0.384605,0.957451,0.0458274,-98.2963,24.5409,-11.3337,0,0,3.30545,5
1771446633511,0.35684,1.03551,0.015961,-106.816,23.7285,-6.42292,0,0,3.31226,5
1771446633525,0.309277,1.12127,-0.0286043,-114.857,24.1819,1.07149,0,0,3.40463,5
1771446633538,0.267997,1.19802,-0.077777,-122.447,26.3238,9.40265,0,0,3.28869,5
1771446633552,0.237471,1.25842,-0.125046,-129.611,29.4161,13.291,0,0,3.86943,5
1771446633565,0.218379,1.30741,-0.176813,-133.394,32.6373,11.4113,0,0,3.30596,5
1771446633579,0.221923,1.34031,-0.236111,-133.22,34.9389,6.78454,0,0,3.28769,5
1771446633592,0.233286,1.36478,-0.293822,-131.507,34.9659,4.16892,0,0,3.30985,5
1771446633606,0.239052,1.40475,-0.340407,-126.998,32.7881,6.91559,0,0,3.32717,5
1771446633620,0.232894,1.42414,-0.382555,-119.137,29.4949,11.7872,0,0,3.88835,5
1771446633633,0.222593,1.53688,-0.442645,-105.967,28.4933,8.74244,0,0,3.30509,5
1771446633647,0.272797,1.49747,-0.426199,-87.5392,25.0985,0.994054,0,0,3.31209,3
1771446633660,0.245867,1.45878,-0.388923,-71.9141,22.5592,-8.95914,0,0,3.3138,5
1771446633674,0.181494,1.46588,-0.360086,-56.8371,24.3598,-18.7179,0,0,3.29426,5
1771446633687,0.16274,1.50042,-0.339168,-39.6176,27.0879,-18.2045,0,0,3.31785,5
1771446633700,0.161313,1.43279,-0.353534,-28.9899,28.9949,-15.6002,0,0,3.33404,5
1771446633714,0.162609,1.39958,-0.342755,-25.4513,27.654,-14.5577,0,0,3.3075,5
1771446633727,0.145955,1.40163,-0.319255,-17.8909,25.9473,-12.483,0,0,3.29809,1
1771446633742,0.135873,1.37005,-0.311643,-8.78568,25.0357,-11.2758,0,0,3.33069,5
1771446633755,0.131072,1.34208,-0.304663,-2.91251,24.4457,-10.2463,0,0,3.29987,5
1771446633769,0.123725,1.33124,-0.296782,1.06013,23.2629,-7.36013,0,0,3.95528,5
1771446633783,0.121281,1.3204,-0.291595,4.53372,22.0462,-4.28688,0,0,3.29157,5
1771446633796,0.122085,1.30374,-0.287746,7.46605,21.6432,-2.81535,0,0,3.45359,2
1771446633810,0.129592,1.28756,-0.283852,10.0087,21.4577,-2.70538,0,0,3.30059,5
1771446633823,0.131901,1.27066,-0.278132,11.6105,20.4806,-3.29141,0,0,3.29384,5
1771446633837,0.129079,1.2565,-0.270803,12.4245,19.5724,-3.89637,0,0,3.31437,5
1771446633850,0.132083,1.2447,-0.264735,12.8875,18.4428,-4.49052,0,0,3.44148,5
1771446633864,0.12276,1.23122,-0.256562,13.0514,17.4349,-5.18665,0,0,3.69146,5
1771446633877,0.120434,1.22337,-0.248789,13.3281,16.3177,-5.57268,0,0,3.31267,5
1771446633891,0.113319,1.2143,-0.241559,13.5902,15.2825,-5.532,0,0,3.2665,5
1771446633904,0.110103,1.20587,-0.23581,13.7639,14.3893,-5.23026,0,0,3.28672,5
1771446633918,0.107807,1.19639,-0.229254,13.9934,13.604,-5.00196,0,0,3.28943,5
1771446633931,0.106701,1.18796,-0.223915,14.3894,12.8782,-4.9723,0,0,3.28991,5
1771446633946,0.102648,1.13067,-0.219642,14.7872,12.1935,-5.15969,0,0,4.86128,5
1771446633961,0.0448327,1.04975,-0.216058,14.8394,11.5288,-5.4813,0,0,4.67676,5
1771446633975,0.0339559,1.04557,-0.212588,14.6351,10.7849,-5.91931,0,0,4.54746,5
1771446633989,0.0339123,1.04225,-0.208383,14.2197,10.0545,-6.51517,0,0,3.32969,5
1771446634003,0.033988,1.041,-0.204961,13.8293,9.24859,-7.12042,0,0,3.60474,5
1771446634016,0.031626,1.03965,-0.201827,13.5439,8.45277,-7.57054,0,0,3.45135,5
1771446634030,0.0297623,1.03872,-0.198413,13.2372,7.72429,-7.77746,0,0,3.30719,5
1771446634043,0.0286101,1.03721,-0.196003,12.9151,7.03025,-7.80493,0,0,3.28615,5
1771446634057,0.0236538,1.03532,-0.192877,12.5311,6.48218,-7.74865,0,0,3.32183,5
1771446634070,0.0224698,1.03553,-0.190581,12.1909,5.95159,-7.4065,0,0,3.32163,5
1771446634083,0.0183479,1.0347,-0.187467,11.9177,5.48159,-6.85702,0,0,3.31139,2
1771446634097,0.017727,1.03516,-0.18545,11.7694,5.04865,-6.13841,0,0,3.30056,5
1771446634110,0.0156918,1.03452,-0.182711,11.7263,4.69695,-5.29697,0,0,3.30426,5
1771446634124,0.0176108,1.03446,-0.180304,11.7117,4.32644,-4.49459,0,0,3.50854,3
1771446634137,0.0176734,1.03346,-0.178195,11.8263,3.9249,-3.77447,0,0,3.32034,5
1771446634154,0.0597908,0.981735,-0.160771,10.984,4.09739,-3.17995,0,0,6.605,3
1771446634171,0.101059,0.932127,-0.145641,10.099,3.99516,-2.88896,0,0,6.33932,3
1771446634188,0.14016,0.884859,-0.131387,9.24987,3.61263,-2.9029,0,0,6.85682,3
1771446634205,0.179045,0.839872,-0.118791,8.4283,2.90259,-3.29243,0,0,7.24998,3
1771446634221,0.0522874,0.760743,-0.113564,20.1195,1.64362,-3.87377,0,0,5.9665,2
1771446634237,0.0438721,0.740072,-0.111876,18.37,1.29665,-4.26323,0,0,5.76408,3
1771446634253,0.0351842,0.72219,-0.110202,16.9838,0.933608,-4.38676,0,0,5.53582,5
1771446634268,0.0289796,0.706024,-0.111223,15.3696,0.36656,-4.84592,0,0,5.67909,1
1771446634284,0.0293244,0.691809,-0.117351,12.7395,-0.514657,-6.44999,0,0,5.53619,1
1771446634300,0.0307219,0.68846,-0.122741,9.51273,-1.34088,-8.57296,0,0,5.68598,3
1771446634315,-0.0115627,0.56402,-0.160877,-1.00018,-2.57591,-9.00069,0,0,5.50533,2
1771446634331,0.0889438,0.523098,-0.149164,7.50704,-3.88212,-7.96059,0,0,5.53317,3
1771446634346,0.112451,0.463289,-0.185878,17.4566,-5.98042,-6.3374,0,0,4.99613,2
1771446634361,0.0659412,0.45519,-0.161402,30.185,-9.34193,-5.00523,0,0,4.77348,2
1771446634376,-0.016091,0.567816,-0.126498,42.5222,-14.4327,-2.78137,0,0,4.68472,2
1771446634390,0.0858677,0.656555,-0.0900026,54.1674,-20.35,-1.40845,0,0,3.73548,3
1771446634405,0.180565,0.661976,-0.129121,65.0554,-28.0771,0.171779,0,0,5.47189,3
1771446634421,0.347594,0.528274,-0.0992538,75.4366,-34.4639,1.50408,0,0,5.22661,3
1771446634437,0.390112,0.533935,0.0800127,63.169,-36.5788,-2.78294,0,0,6.5133,3
1771446634453,0.384129,0.678656,0.0553251,46.7818,-23.0173,-7.37671,0,0,6.14221,3
1771446634474,0.40518,0.681883,0.227831,35.0879,-23.949,-8.91418,0,0,9.97139,3
1771446634490,0.404896,0.673288,0.392793,25.3028,-20.1487,-5.83733,0,0,6.70872,3
1771446634507,0.401229,0.657371,0.550541,17.363,-11.8892,1.85662,0,0,6.69947,3
1771446634524,0.369791,0.624181,0.70139,13.2,-0.669206,12.3728,0,0,6.46017,2
1771446634540,0.312492,0.585523,0.773134,13.688,9.16395,21.3686,0,0,6.18411,4
1771446634557,0.384866,0.68425,0.673788,21.2767,15.2633,26.5483,0,0,5.48354,3
1771446634572,0.369364,0.778658,0.601758,15.2734,24.106,28.3429,0,0,5.49485,5
1771446634588,0.392838,0.912676,0.532622,14.0921,33.3835,27.8265,0,0,5.90509,3
1771446634604,0.21623,0.995419,0.520881,-0.199036,41.0497,27.2715,0,0,5.41985,5
1771446634620,0.269656,0.863023,0.433186,-2.15453,45.4067,27.4609,0,0,5.76595,3
1771446634635,0.334443,0.70635,0.393059,-8.27492,45.5641,27.7219,0,0,5.42526,5
1771446634651,0.213277,0.534663,0.310954,-20.301,42.0732,27.75,0,0,5.72956,5
1771446634667,0.0290197,0.476538,0.318244,-33.193,36.6551,27.931,0,0,5.37574,5
1771446634683,0.183612,0.519898,0.217545,-41.6235,31.9682,29.6266,0,0,6.34654,5
1771446634699,0.186868,0.322231,0.165729,-34.35,26.8844,33.0217,0,0,5.87161,5
1771446634715,0.192394,0.257547,0.115432,-31.0894,23.2381,35.8495,0,0,5.8783,5
1771446634731,0.00904977,0.23164,0.152296,-43.3764,20.9104,36.9387,0,0,5.43684,5
1771446634746,-0.0213534,0.140846,0.102586,-54.9741,19.8967,35.6593,0,0,5.06178,5
1771446634761,-0.00490606,0.127538,0.107378,-65.9213,20.293,32.8703,0,0,4.48343,5
1771446634775,0.0243336,0.103041,0.112238,-76.2544,21.6305,29.5232,0,0,4.58852,5
1771446634790,-0.042276,0.0506705,0.122171,-86.0079,23.2732,26.8789,0,0,4.34785,2
1771446634805,-0.0579106,0.13782,0.130345,-95.2143,24.0282,23.8032,0,0,4.47052,2
1771446634818,-0.0143627,0.234462,0.12867,-103.904,23.0568,20.3485,0,0,3.82341,5
1771446634834,0.00389297,0.331575,0.109889,-112.107,20.3779,17.3004,0,0,4.98876,2
1771446634847,0.0256424,0.422797,0.0742908,-119.849,16.938,15.0064,0,0,3.29389,2
1771446634860,0.0536155,0.512283,0.03158,-125.756,12.4631,11.9955,0,0,3.30222,2
1771446634874,0.0445977,0.60094,-0.00944434,-126.455,7.44746,9.72978,0,0,3.3323,1
1771446634887,0.0149622,0.684706,-0.0634728,-121.887,4.10306,11.2945,0,0,3.28278,1
1771446634901,-0.00957639,0.726404,-0.123434,-115.838,2.41365,14.3742,0,0,3.30385,5
1771446634915,-0.0283333,0.757673,-0.18434,-108.452,1.63856,15.3993,0,0,3.28811,2
1771446634928,-0.0083349,0.871175,-0.248187,-96.9127,1.29359,11.6474,0,0,3.36963,3
1771446634943,0.0280001,0.934987,-0.270859,-77.6197,-3.28735,5.96845,0,0,3.30341,3
1771446634957,0.00331841,0.900803,-0.242283,-59.5073,-6.26125,5.08302,0,0,3.83815,2
1771446634971,0.0208756,0.903988,-0.214604,-47.3171,-7.05159,3.32451,0,0,3.33222,2
1771446634984,0.0141971,0.943634,-0.202154,-35.7503,-5.60185,1.37604,0,0,3.28702,2
1771446634998,-0.000709446,0.948192,-0.190751,-22.1818,-3.33767,1.45643,0,0,3.3012,2
1771446635011,0.0137888,0.935392,-0.195147,-11.5474,-2.09583,0.312406,0,0,3.31722,3
1771446635025,0.0034591,0.93289,-0.197183,-4.75136,-1.71536,-0.178263,0,0,3.35145,2
1771446635038,-0.0123231,0.942733,-0.192542,1.64807,-0.800025,2.03347,0,0,3.35465,3
1771446635052,-0.0232726,0.93676,-0.185253,7.26763,0.497723,5.13038,0,0,3.37604,3
1771446635065,-0.0128484,0.934326,-0.178038,11.8856,0.857742,8.22356,0,0,3.31332,2
1771446635080,-0.0110694,0.934988,-0.174437,16.5301,0.361746,10.8992,0,0,3.30489,5
1771446635094,-0.0126353,0.936656,-0.180827,20.9107,1.45517,12.7966,0,0,3.28513,5
1771446635107,0.00477613,0.926219,-0.187066,23.2339,2.73346,13.8909,0,0,3.30232,5
1771446635121,0.00798386,0.915993,-0.188665,22.1914,3.00704,14.3628,0,0,3.31782,5
1771446635134,0.0208527,0.927354,-0.186362,21.3826,3.75469,14.2937,0,0,3.31795,5
1771446635148,0.0367782,0.929816,-0.178478,21.2095,3.28802,13.0916,0,0,3.32698,5
1771446635163,0.0364831,0.928305,-0.175189,21.1323,3.43929,15.6226,0,0,4.08474,5
1771446635178,0.0336063,0.933875,-0.171297,20.3695,12.0156,14.7463,0,0,4.82778,5
1771446635197,0.0320406,0.941977,-0.166357,19.3807,11.1635,14.9099,0,0,6.45406,5
1771446635213,0.0323049,1.06065,-0.202799,21.1474,0.0142173,14.0736,0,0,6.17352,5
1771446635229,0.0365509,1.01962,-0.14867,19.7565,1.17295,13.178,0,0,5.78621,5
1771446635245,0.0427466,1.01885,-0.14211,22.7046,6.25909,12.4388,0,0,5.59967,5
1771446635260,0.0450839,1.01654,-0.131945,24.8145,5.50208,12.7614,0,0,5.24556,5
1771446635276,0.0501269,1.01461,-0.131556,18.1606,-6.97388,12.0456,0,0,5.12446,1
1771446635291,0.0511699,1.01313,-0.13034,17.3903,-3.11696,11.0497,0,0,4.68143,3
1771446635305,0.0539182,1.01249,-0.130256,17.2995,-2.94212,10.4299,0,0,4.48015,5
1771446635320,0.0571015,1.01025,-0.129994,16.7008,-2.2941,13.2224,0,0,4.38376,5
1771446635334,0.0605727,1.01057,-0.128964,15.913,-2.74732,12.4807,0,0,3.93828,3
1771446635347,0.0637426,1.01112,-0.128983,15.3458,-3.20381,12.1557,0,0,3.52291,3
1771446635361,0.0636028,1.01104,-0.128745,14.9693,-3.60472,10.4796,0,0,3.31071,3
1771446635374,0.0619744,1.01182,-0.128133,14.7021,-3.823,8.88427,0,0,3.32961,5
1771446635388,0.0619867,1.01208,-0.127718,14.527,-3.87061,7.43407,0,0,3.27624,3
1771446635401,0.0612938,1.01369,-0.126553,14.6156,-3.83719,6.13972,0,0,3.33006,3
1771446635415,0.059713,1.01624,-0.126496,15.2212,-3.73628,4.98649,0,0,3.29654,5
1771446635428,0.058575,1.01606,-0.126836,16.0447,-3.66715,4.02982,0,0,3.35513,5
1771446635442,0.0552019,1.01546,-0.127951,16.6429,-3.54238,3.31308,0,0,3.30054,5
1771446635457,0.054368,1.0152,-0.128858,16.9404,-3.47213,3.12724,0,0,4.8403,3
1771446635471,0.0556098,1.01491,-0.130483,16.9322,-3.51844,2.72489,0,0,3.31817,3
1771446635484,0.0563382,1.01422,-0.130126,16.6812,-3.61996,2.12587,0,0,3.29915,3
1771446635498,0.0542695,1.01693,-0.13004,16.6751,-3.82711,1.23246,0,0,3.30602,3
1771446635512,0.0505935,1.02601,-0.126948,17.0714,-3.94899,0.513773,0,0,3.30265,3
1771446635525,0.0488401,1.02925,-0.126703,17.9422,-3.93301,0.476819,0,0,3.35395,3
1771446635539,0.0504838,1.03983,-0.127119,19.1285,-3.94876,1.09321,0,0,3.29491,5
1771446635552,0.043749,1.06011,-0.11935,21.2738,-3.73411,1.38985,0,0,3.363,5
1771446635566,0.0450495,1.07348,-0.116565,24.6715,-3.624,1.36285,0,0,3.30567,5
1771446635580,0.0397482,1.08277,-0.113421,27.9001,-3.25929,0.925868,0,0,4.26763,5
1771446635594,0.0415973,1.10031,-0.11129,31.7474,-2.93389,0.534382,0,0,3.29343,5
1771446635607,0.0401198,1.11504,-0.105708,36.1286,-2.76418,0.263766,0,0,3.2875,5
1771446635621,0.0321513,1.13204,-0.0986185,40.8832,-2.22205,0.229274,0,0,3.30096,5
1771446635634,0.0380803,1.15295,-0.0892235,46.4061,-1.68892,0.710969,0,0,3.29048,5
1771446635648,0.0466007,1.17579,-0.0773672,52.9491,-1.79629,1.54245,0,0,3.34969,5
1771446635661,0.0445093,1.21489,-0.0613637,61.7568,-2.36821,1.73211,0,0,3.31019,5
1771446635675,0.0575639,1.25917,-0.0399422,72.3231,-3.41717,1.48637,0,0,3.40235,5
1771446635692,0.0798809,1.28927,-0.0154643,70.373,3.36259,3.30757,0,0,4.64534,5
1771446635706,0.0956486,1.332,-0.0130263,80.456,0.433579,3.12204,0,0,4.52891,5
1771446635725,0.217245,1.10289,-0.0555112,74.715,-11.1004,2.94692,0,0,6.69247,3
1771446635742,0.304797,1.06785,0.121841,68.0277,-13.7332,-0.231959,0,0,6.22678,3
1771446635758,0.292364,1.10483,0.102836,78.2422,-15.2768,-0.170134,0,0,6.31882,3
1771446635775,0.297868,0.882914,0.0990165,73.5255,-5.32181,-0.160591,0,0,6.18515,3
1771446635791,0.298946,0.866008,0.151904,70.9949,9.00708,-4.60344,0,0,5.76559,4
1771446635807,0.310141,0.852703,0.174868,70.2258,22.5322,-11.2223,0,0,5.80671,3
1771446635823,0.309528,0.828588,0.22021,64.5833,35.2987,-20.1966,0,0,5.76282,3
1771446635838,0.269236,0.765926,0.189391,54.7349,28.7149,-19.0637,0,0,5.50793,5
1771446635854,0.229274,0.686434,0.149355,47.5626,24.798,-11.2924,0,0,5.17619,3
1771446635869,0.16282,0.593165,0.117551,40.9588,37.109,-10.659,0,0,4.95093,3
1771446635884,0.131314,0.5312,0.104424,36.8296,32.6587,-10.4003,0,0,4.63139,2
1771446635898,0.113549,0.498777,0.104246,20.9825,44.748,-9.81688,0,0,4.42633,2
1771446635916,0.113783,0.368967,0.0566376,12.5341,39.388,-9.26623,0,0,6.05902,5
1771446635932,0.115629,0.359654,0.0344939,13.5669,23.1478,-4.91377,0,0,5.74391,5
1771446635947,0.139635,0.33659,0.0118024,0.176983,14.1763,-4.63814,0,0,5.48591,5
1771446635963,0.166296,0.348285,0.0430393,2.612,16.679,-18.4088,0,0,5.20221,2
1771446635978,0.176683,0.38742,0.0875909,2.35801,22.2107,-17.3762,0,0,4.93876,2
1771446635993,0.15309,0.426713,0.121012,-9.04198,8.90716,-16.4015,0,0,4.9791,2
1771446636008,0.132697,0.456364,0.139796,-9.27427,9.06523,-15.4815,0,0,4.96659,2
1771446636023,0.114113,0.470829,0.149805,-10.1589,4.72019,-14.6131,0,0,5.00259,2
1771446636038,0.102567,0.512484,0.158788,-10.2057,9.69985,-12.6776,0,0,4.64169,2
1771446636052,0.0880133,0.570149,0.163749,-23.664,12.9923,-11.9665,0,0,4.44669,3
1771446636066,0.0568314,0.625526,0.166058,-36.3675,9.1031,-11.2952,0,0,3.83282,2
1771446636080,0.0165926,0.686789,0.16123,-48.3583,7.98189,-13.6513,0,0,3.59313,2
1771446636095,-0.0210858,0.745607,0.149407,-59.6766,4.60709,-5.62777,0,0,4.07239,2
1771446636110,-0.0478915,0.815957,0.13526,-70.36,-2.33789,-5.3121,0,0,4.83828,2
1771446636127,-0.0600614,0.892551,0.0644293,-63.7582,-6.701,-5.01413,0,0,7.17782,2
1771446636143,-0.0563244,0.972543,0.0636403,-50.5648,-9.79172,-18.7637,0,0,5.29287,2
1771446636161,-0.0562101,1.06126,-0.011276,-61.7593,-3.50735,-13.3548,0,0,6.43837,2
1771446636177,-0.0658168,0.96972,-0.0536238,-61.5728,-0.241377,-12.6057,0,0,6.17356,5
1771446636193,-0.0368441,0.953438,0.049052,-66.5971,-1.80099,-8.19053,0,0,5.77487,2
1771446636209,-0.0173277,0.999612,0.00336113,-58.4666,4.21928,-7.73111,0,0,5.60195,2
1771446636224,-0.041746,1.01424,-0.0271616,-50.644,-4.91511,-1.66337,0,0,5.35167,2
1771446636240,-0.0642316,1.01741,-0.121425,-37.1654,-5.40672,-1.57007,0,0,5.05824,1
1771446636257,-0.0262102,1.14784,-0.240543,-34.9506,3.73775,7.89357,0,0,7.04663,2
1771446636271,-0.0051943,1.13036,-0.151431,-35.0373,7.36464,7.4508,0,0,4.47682,5
1771446636286,-0.0343072,1.20153,-0.127619,-19.0416,1.68999,7.03286,0,0,4.40161,2
1771446636301,-0.0433663,1.15373,-0.152584,-3.94309,3.67789,6.63837,0,0,4.58137,5
1771446636315,0.0136123,1.12915,-0.141363,10.3085,-8.69575,6.26601,0,0,4.40817,3
1771446636332,-0.0215762,1.09802,-0.164179,5.57641,-4.26182,5.91454,0,0,6.29224,3
1771446636349,-0.0230349,0.909203,-0.222566,-7.53102,-9.17471,5.58278,0,0,6.07204,1
1771446636366,-0.0121941,0.91105,-0.213538,-1.87958,-8.87031,9.65811,0,0,6.42991,1
1771446636383,-0.00735803,0.904263,-0.220577,6.7793,-7.78015,9.47475,0,0,6.39552,2
1771446636399,0.00711064,0.734854,-0.254423,5.73663,5.04284,8.94329,0,0,6.18463,5
1771446636415,0.00987461,0.705792,-0.197194,4.41803,4.09157,9.22608,0,0,5.85378,5
1771446636431,0.0373522,0.721808,-0.230973,4.72429,-3.15334,8.70856,0,0,5.64756,2
1771446636447,0.0436623,0.729532,-0.286386,13.7702,3.60048,8.22008,0,0,5.85211,5
1771446636463,0.0460342,0.734709,-0.339321,20.6559,7.67353,7.759,0,0,6.15169,5
1771446636479,0.0377324,0.749226,-0.390033,18.5026,-1.30692,7.32377,0,0,5.50148,5
1771446636496,0.0315979,0.76662,-0.415363,24.3748,-8.1394,6.91297,0,0,7.30408,2
1771446636512,0.0314759,0.777029,-0.395575,26.5726,-7.84298,6.78168,0,0,5.2088,5
1771446636529,0.0379896,0.791126,-0.379941,37.7954,3.55852,6.40128,0,0,6.81221,5
1771446636544,0.0422112,0.802129,-0.368845,36.0864,6.96852,5.5695,0,0,4.65648,5
1771446636560,0.0476469,0.810793,-0.35895,34.7294,10.0742,4.79894,0,0,6.33652,5
1771446636575,0.0553432,0.818245,-0.348644,34.4868,22.1149,4.52975,0,0,4.40282,3
1771446636593,0.055528,0.825073,-0.336952,34.6834,21.0766,7.78936,0,0,7.89872,5
1771446636607,0.0552244,0.829413,-0.331196,34.705,19.4186,7.35244,0,0,3.89024,5
1771446636623,0.0528413,0.831983,-0.327688,46.0171,7.25818,6.94002,0,0,6.75839,2
1771446636638,0.052196,0.838925,-0.322187,43.5387,10.4016,5.93587,0,0,4.66715,5
1771446636656,0.0514401,0.956635,-0.350473,37.2518,3.57003,5.60291,0,0,7.78817,5
1771446636673,0.0500874,0.915483,-0.288136,34.7974,4.49206,4.86258,0,0,6.48285,5
1771446636688,0.0468826,0.92408,-0.275439,35.2554,10.4882,4.58983,0,0,5.53032,5
1771446636704,0.0486226,0.929813,-0.259539,36.9277,9.30555,6.45918,0,0,5.31304,5
1771446636721,0.0478949,0.849485,-0.291841,25.8644,4.83741,6.09687,0,0,6.06589,5
1771446636737,0.0473485,0.813488,-0.23258,24.024,5.98037,5.26118,0,0,5.82993,5
1771446636752,0.044808,0.831051,-0.221331,26.8315,5.20474,7.11727,0,0,5.2078,3
1771446636768,0.0439802,0.854807,-0.21652,33.2184,-1.88338,6.71805,0,0,5.09033,3
1771446636782,0.0352877,0.876489,-0.211482,30.8755,2.86723,6.01323,0,0,4.64922,5
1771446636797,0.0368835,0.897244,-0.208116,33.4251,6.10449,5.67593,0,0,4.50676,3
1771446636811,0.0328468,0.92134,-0.202239,36.2637,5.49917,10.5241,0,0,4.13278,5
1771446636831,0.0271716,0.948408,-0.193993,33.9153,10.6047,9.97484,0,0,4.73695,5
1771446636846,0.0226949,0.973246,-0.186278,31.8031,15.2714,9.38107,0,0,4.65552,5
1771446636861,0.0182858,0.994905,-0.177096,29.6912,19.6387,9.06296,0,0,4.82852,5
1771446636876,0.014646,1.0261,-0.160489,27.9572,24.6465,9.29964,0,0,4.64589,5
1771446636891,0.0311846,1.08585,-0.138266,21.1317,33.4582,8.778,0,0,5.30983,5
1771446636910,0.0162238,1.1545,-0.219007,7.99873,26.6488,8.28562,0,0,7.01952,5
1771446636926,-0.0609536,1.11627,-0.252484,0.639559,17.2616,6.41085,0,0,5.95874,2
1771446636943,-0.0391015,1.03599,-0.328229,8.8133,2.59144,6.05125,0,0,6.43869,5
1771446636959,0.054419,1.00322,-0.13895,8.47951,0.380078,3.84235,0,0,6.36234,3
1771446636975,0.151777,1.03449,-0.197794,13.8114,8.36071,3.08089,0,0,6.34365,3
1771446636991,0.167454,1.16417,-0.199949,11.4545,6.64956,1.22916,0,0,5.75424,3
1771446637008,-0.0010311,1.08179,-0.234259,9.9325,8.14004,1.16021,0,0,6.50243,5
1771446637025,0.0409528,1.08245,-0.0490897,4.64733,13.6575,7.43957,0,0,6.72274,2
1771446637041,0.0251324,1.21004,-0.142533,10.8484,5.50649,13.4639,0,0,5.74856,5
1771446637056,0.0304181,1.33205,-0.202411,14.0473,0.23451,16.3731,0,0,5.54246,2
1771446637072,-0.00596441,1.35139,-0.20666,17.3083,-0.154592,19.5019,0,0,5.52526,2
1771446637088,-0.0241746,1.2299,-0.157781,18.5054,3.38405,20.1871,0,0,5.50717,2
1771446637103,-0.0328654,1.00118,-0.0800451,15.5653,8.81589,16.8273,0,0,5.52813,2
1771446637119,-0.0162455,0.782467,0.00489879,8.7944,14.787,9.6709,0,0,5.51121,5
1771446637134,0.00682232,0.573317,0.0807787,-0.0331155,19.9423,0.607101,0,0,5.51017,2
1771446637150,0.0418218,0.373315,0.119804,-10.6511,21.7521,-10.213,0,0,5.53113,2
1771446637166,0.0755255,0.182058,0.114335,-21.732,20.0961,-21.2688,0,0,5.48139,3
1771446637181,0.100399,-0.000833661,0.0777262,-30.289,16.2986,-29.513,0,0,5.50404,3
1771446637197,0.116924,-0.175727,0.0439566,-33.2833,13.0405,-32.0491,0,0,5.48371,3
1771446637212,0.127538,-0.342973,0.0209367,-31.1149,10.6824,-29.5885,0,0,5.47415,5
1771446637228,0.131986,-0.502904,0.00107497,-26.1193,8.51644,-24.4639,0,0,5.46367,5
1771446637243,0.146852,-0.655841,-0.0183666,-19.1653,6.52552,-17.3339,0,0,5.51667,5
1771446637259,0.158058,-0.802089,-0.0222879,-9.59459,6.0914,-7.64541,0,0,5.51393,5
1771446637275,0.14585,-0.941942,0.00706062,-0.499527,8.35438,0.832483,0,0,5.5498,5
1771446637290,0.138777,-1.07568,0.0543227,3.56886,11.888,4.68742,0,0,5.50358,5
1771446637306,0.134897,-1.20357,0.119921,4.36164,16.8009,5.27016,0,0,5.52091,5
1771446637322,0.061968,-1.21246,0.0497615,6.31401,22.1931,6.40126,0,0,5.49293,5
1771446637337,-0.115672,-1.07229,0.103292,-8.07097,27.9949,10.8948,0,0,5.18339,2
1771446637353,-0.162332,-1.20033,0.179577,-1.39628,32.6885,16.5434,0,0,5.70948,5
1771446637368,-0.226117,-1.31946,0.233757,3.91277,35.693,20.7905,0,0,5.5333,1
1771446637384,-0.308263,-1.34172,0.273107,9.61639,37.3656,25.5697,0,0,5.48947,1
1771446637400,-0.415089,-1.27431,0.28311,14.1257,36.7238,28.9842,0,0,5.522,5
1771446637415,-0.354917,-1.09972,0.183397,18.8095,35.1383,25.3121,0,0,5.48658,5
1771446637430,-0.21161,-1.05752,0.0702784,29.9431,31.8798,16.11,0,0,5.18735,5
1771446637445,-0.0274306,-1.05259,0.056448,41.3729,27.5293,14.5195,0,0,4.98515,5
1771446637461,0.0977651,-1.01025,0.050109,50.0896,25.7393,13.5291,0,0,4.96189,5
1771446637476,0.268414,-0.970437,0.0460225,61.3103,24.2189,12.5133,0,0,5.03478,2
1771446637491,0.412713,-0.916472,0.0248715,68.2308,23.572,10.4228,0,0,5.02076,2
1771446637506,0.476343,-0.860761,0.0551899,70.8983,23.5639,12.9181,0,0,5.02141,4
1771446637521,0.52893,-0.808064,0.10449,72.812,23.3799,16.2861,0,0,4.9953,4
1771446637536,0.577799,-0.757046,0.135138,74.4719,23.7563,17.8364,0,0,5.04334,2
1771446637551,0.617531,-0.696397,0.136905,74.8544,24.1948,17.2516,0,0,5.15024,3
1771446637567,0.609097,-0.664095,0.130031,71.6559,23.074,16.2951,0,0,5.21183,3
1771446637582,0.594188,-0.622795,0.136335,68.7005,22.5063,16.4806,0,0,5.04463,4
1771446637597,0.577177,-0.594619,0.139181,65.5834,21.452,16.1218,0,0,4.98532,5
1771446637613,0.563002,-0.571114,0.127403,62.8095,19.904,14.636,0,0,5.62147,5
1771446637628,0.553937,-0.549762,0.112527,60.4459,18.4985,13.1069,0,0,5.07258,5
1771446637643,0.591184,-0.521652,0.0638893,55.9583,17.1273,12.2269,0,0,5.44628,3
1771446637659,0.615874,-0.486565,-0.0263698,47.4483,15.9153,11.6623,0,0,5.29576,3
1771446637674,0.664085,-0.332754,-0.0689331,49.609,14.7143,10.8672,0,0,5.41871,3
1771446637690,0.524323,-0.409799,-0.109619,43.6466,13.7729,10.148,0,0,5.34376,5
1771446637705,0.445339,-0.546335,-0.126659,27.7165,13.0594,9.88497,0,0,5.36658,5
1771446637721,0.514674,-0.521108,-0.121078,19.3665,12.4057,9.58442,0,0,5.322,5
1771446637736,0.507498,-0.497683,-0.117368,19.5566,11.7428,8.82286,0,0,5.25274,5
1771446637752,0.49092,-0.433606,-0.118001,19.9437,11.013,7.72551,0,0,6.34693,3
1771446637769,0.473807,-0.437908,-0.112776,20.1379,-2.53939,7.29216,0,0,6.14632,3
1771446637785,0.455969,-0.415607,-0.0651473,18.4482,-1.4618,6.56285,0,0,5.76348,3
1771446637800,0.439327,-0.355322,-0.0841378,13.5743,4.64906,6.19472,0,0,5.59621,3
1771446637816,0.422164,-0.297033,-0.0779706,16.2795,3.82736,6.18465,0,0,5.256,2
1771446637831,0.403862,-0.2381,-0.0809562,9.88168,10.1896,5.83774,0,0,5.03469,2
1771446637846,0.387588,-0.180197,-0.0840888,9.43358,13.446,4.96221,0,0,4.65408,2
1771446637860,0.371161,-0.126181,-0.0864545,9.85586,0.743712,4.68387,0,0,4.48132,3
1771446637875,0.354727,-0.0743681,-0.0894748,10.6398,0.713985,8.09926,0,0,4.086,5
1771446637889,0.340569,-0.0261234,-0.0922349,11.5374,0.453848,7.64495,0,0,3.94822,5
1771446637902,0.325814,0.0193175,-0.0964438,12.3062,0.251978,7.16132,0,0,3.51969,3
1771446637916,0.306387,0.0672127,-0.0994116,12.8945,0.129512,6.68555,0,0,3.31922,5
1771446637930,0.294515,0.110718,-0.102047,13.428,0.0790009,6.45441,0,0,4.25154,5
1771446637943,0.283098,0.15657,-0.101908,13.8304,-0.0273388,6.83185,0,0,3.29791,3
1771446637957,0.273739,0.216538,-0.0955189,15.1245,-0.218489,6.33987,0,0,3.32935,3
1771446637970,0.263732,0.264585,-0.0926976,18.1718,-0.318847,6.71088,0,0,3.29076,5
1771446637984,0.251985,0.309431,-0.0925514,20.9355,-0.0436218,5.85617,0,0,3.35943,3
1771446637997,0.24641,0.355764,-0.0921768,24.4177,0.000359172,5.16244,0,0,3.28287,5
1771446638011,0.234363,0.401309,-0.0906441,28.8221,0.0851199,4.57399,0,0,3.37335,5
1771446638024,0.22736,0.441372,-0.0892317,33.7019,0.293154,4.4082,0,0,3.28056,5
1771446638038,0.223289,0.478005,-0.0882335,38.7673,0.38547,4.52233,0,0,3.28232,5
1771446638051,0.214891,0.516134,-0.0838837,43.8009,0.312893,4.24254,0,0,3.30869,5
1771446638064,0.210479,0.569058,-0.079233,49.4543,0.0863876,3.19443,0,0,3.29463,5
1771446638078,0.223899,0.623757,-0.0700878,56.3847,-1.24027,2.36612,0,0,3.31417,3
1771446638092,0.175884,0.677943,-0.0555664,65.1782,-3.1926,1.46052,0,0,3.82798,1
1771446638106,0.185969,0.734511,-0.0412957,75.5525,-5.40536,0.618568,0,0,3.63122,2
1771446638119,0.197311,0.784025,-0.0342474,85.345,-8.43046,-0.423223,0,0,3.27083,5
1771446638132,0.187465,0.851573,-0.0195743,94.5882,-10.3837,-3.56806,0,0,3.27533,2
1771446638146,0.172497,0.915239,-0.0207256,103.313,-10.8302,-8.99557,0,0,3.29326,5
1771446638159,0.193867,0.963832,-0.0163919,111.548,-11.7851,-11.8591,0,0,3.26709,3
1771446638173,0.192552,0.997252,-0.0193052,119.322,-12.7593,-11.4915,0,0,3.35656,5
1771446638186,0.201129,1.05088,-0.0131545,126.659,-13.2794,-11.0494,0,0,3.27528,3
1771446638203,0.259448,1.01416,0.162346,116.931,-14.2905,-12.2571,0,0,6.35624,3
1771446638219,0.314534,0.990737,0.330171,106.955,-12.8757,-10.4019,0,0,6.06154,3
1771446638235,0.337763,0.996288,0.490656,96.6074,-6.59264,-3.99943,0,0,6.23772,3
1771446638251,0.274914,0.926026,0.644123,87.7411,2.48604,4.88798,0,0,6.10863,2
1771446638268,0.208695,0.866395,0.699058,80.712,7.01168,9.05752,0,0,6.19263,2
1771446638284,0.142458,0.825164,0.603138,75.9645,7.29277,8.96052,0,0,6.13921,2
1771446638300,0.140146,0.795398,0.436729,73.2647,4.14631,5.62416,0,0,6.10635,2
1771446638316,0.16324,0.770457,0.307844,72.3189,0.821369,2.26215,0,0,6.08802,2
1771446638333,0.148798,0.737404,0.175356,72.713,-1.63197,-0.256165,0,0,6.09496,2
1771446638349,0.112982,0.708305,-0.00724322,72.9102,-3.65395,-2.34333,0,0,6.10695,2
1771446638365,0.111885,0.696804,-0.181857,71.7309,-6.20009,-5.04563,0,0,6.0878,5
1771446638381,0.141297,0.692479,-0.348834,68.3594,-10.5067,-9.49664,0,0,6.11695,5
1771446638397,0.169284,0.681456,-0.508508,63.3154,-15.2059,-14.2431,0,0,6.10843,2
1771446638414,0.189982,0.66468,-0.6612,57.4773,-18.6562,-17.6395,0,0,6.19282,2
1771446638430,0.217473,0.640427,-0.807214,52.0169,-18.8669,-17.6854,0,0,6.08365,2
1771446638446,0.257258,0.614961,-0.946843,47.7118,-14.8272,-13.5287,0,0,6.16528,3
1771446638464,0.315343,0.595647,-1.08037,43.9013,-8.72663,-7.44403,0,0,7.38682,3
1771446638481,0.331618,0.611932,-1.0543,30.8261,-3.19481,-2.04282,0,0,7.18141,3
1771446638497,0.299979,0.410241,-1.01443,31.6139,-3.46092,0.47518,0,0,5.55235,3
1771446638513,0.181565,0.349902,-0.969382,23.8229,-2.25498,3.33279,0,0,6.64695,3
1771446638529,-0.00130531,0.351373,-0.893122,8.45578,-0.861491,5.93762,0,0,5.21715,5
1771446638545,-0.176178,0.346716,-0.809936,-6.04933,-0.110086,9.28996,0,0,6.01932,2
1771446638560,-0.172355,0.384905,-0.82317,-19.7408,-0.728207,13.0576,0,0,4.68219,2
1771446638574,-0.0242826,0.265542,-0.846342,-32.6643,-3.00385,16.8245,0,0,4.49059,2
1771446638588,0.0469425,0.370873,-0.881088,-43.0328,-5.33853,21.654,0,0,3.92078,5
1771446638603,0.0322748,0.454366,-0.923209,-49.3348,-6.49748,25.6153,0,0,4.28091,5
1771446638616,0.0090398,0.508785,-0.978062,-51.2518,-7.80424,27.1343,0,0,3.29904,1
1771446638630,-0.0200337,0.552144,-1.03332,-49.4813,-9.32586,25.6161,0,0,3.27141,1
1771446638643,-0.0660718,0.594546,-1.08592,-45.4383,-9.89976,24.0606,0,0,3.33819,2
1771446638657,-0.10148,0.632895,-1.12588,-40.0396,-8.82764,22.4806,0,0,3.30476,2
1771446638670,-0.0259342,0.730521,-1.06327,-36.6641,-10.6404,21.1276,0,0,3.35717,2
1771446638683,-0.00148173,0.708108,-0.890508,-32.1266,-14.5408,19.3503,0,0,3.28478,3
1771446638697,-0.0281092,0.781144,-0.782346,-21.7116,-14.3996,14.3975,0,0,3.83519,2
1771446638711,-0.039863,0.811663,-0.752189,-6.46334,-12.5381,10.6384,0,0,3.29724,2
1771446638724,-0.0282542,0.776498,-0.721728,7.92959,-11.2657,3.38127,0,0,3.27356,2
1771446638738,-0.018413,0.764886,-0.718822,19.0989,-12.5127,-2.53239,0,0,3.30119,2
1771446638751,-0.0488911,0.774432,-0.704042,22.6174,-9.44125,2.73034,0,0,3.27265,2
1771446638764,-0.0471693,0.778339,-0.678313,23.1359,-6.26847,7.3489,0,0,3.37402,2
1771446638778,-0.0350275,0.783442,-0.649791,25.5596,-4.05039,10.2992,0,0,3.2912,5
1771446638791,-0.014651,0.792891,-0.624802,31.3035,-3.54659,10.2957,0,0,3.39395,3
1771446638806,-0.0509629,0.80055,-0.60825,36.8842,-1.53342,8.02473,0,0,4.31106,2
1771446638820,-0.0633776,0.796364,-0.597164,36.764,-1.05005,6.89207,0,0,4.09645,2
1771446638835,-0.04056,0.818679,-0.57991,34.6303,0.284413,8.44987,0,0,3.85504,5
1771446638849,-0.0220556,0.834168,-0.551196,33.7317,0.739036,8.86524,0,0,3.91571,5
1771446638863,0.122385,0.835367,-0.530849,35.4672,1.02129,7.50089,0,0,3.79937,3
1771446638877,0.122393,0.832797,-0.517553,36.5431,0.844969,5.20726,0,0,3.63472,5
1771446638890,0.112887,0.829934,-0.506706,34.9262,0.665263,3.99928,0,0,3.38385,5
1771446638904,0.104939,0.841536,-0.491305,32.1112,0.784663,4.53927,0,0,3.294,5
1771446638918,0.114427,0.852438,-0.473706,30.3785,0.691836,5.30502,0,0,4.16513,5
1771446638932,-0.0422902,0.856649,-0.456021,29.4936,0.456492,4.9779,0,0,3.82437,5
1771446638946,-0.0384548,0.86469,-0.441865,28.8643,0.275026,4.46318,0,0,3.68146,5
1771446638959,-0.0360043,0.873213,-0.429268,27.8584,0.318689,4.90221,0,0,3.28821,5
1771446638973,-0.0311306,0.880274,-0.415663,26.6812,0.494781,5.86383,0,0,3.28463,5
1771446638986,-0.022936,0.88568,-0.402193,26.0285,0.509418,6.32492,0,0,3.30148,5
1771446639000,-0.0157083,0.88785,-0.390455,25.5687,0.372513,6.07933,0,0,3.57985,2
1771446639014,-0.00960817,0.890321,-0.379946,24.7892,0.188478,5.66896,0,0,3.81361,5
1771446639027,-0.00235477,0.894274,-0.369266,23.3863,-0.11583,5.27818,0,0,3.28159,5
1771446639041,0.00473089,0.900403,-0.358146,22.0698,-0.511399,4.61687,0,0,3.70974,1
1771446639056,-0.00158852,0.851924,-0.346637,21.4395,-0.982407,3.53407,0,0,4.84785,2
1771446639071,0.16109,0.9144,-0.336517,21.1155,-1.37861,2.28464,0,0,4.60424,3
1771446639085,0.12258,0.919371,-0.328868,20.7977,-1.68108,1.31638,0,0,3.94632,1
1771446639099,0.118277,0.92372,-0.320657,20.4511,-1.78761,0.715876,0,0,3.47706,1
1771446639112,0.114343,0.928038,-0.313211,20.1783,-1.83634,0.3169,0,0,3.29711,5
1771446639126,0.111477,0.931964,-0.306859,20.0566,-1.84253,0.0126679,0,0,3.27889,3
1771446639139,0.109848,0.936274,-0.300625,19.9836,-1.85521,-0.241957,0,0,3.32052,3
1771446639153,0.108802,0.939072,-0.295123,19.8942,-1.94811,-0.432202,0,0,3.27807,3
1771446639166,0.106553,0.940284,-0.289818,19.6201,-2.13001,-0.66273,0,0,3.7315,3
1771446639180,0.104232,0.940931,-0.286059,19.1331,-2.38177,-0.942413,0,0,3.31669,3
1771446639194,0.102951,0.942415,-0.282058,18.3836,-2.72602,-1.35456,0,0,3.84333,3
1771446639207,0.100776,0.945382,-0.277282,17.5811,-3.12205,-1.82794,0,0,3.30474,2
1771446639221,0.0983123,0.948784,-0.272448,16.8929,-3.48644,-2.29961,0,0,3.2716,3
1771446639234,0.0940449,0.951676,-0.268221,16.2811,-3.81755,-2.83944,0,0,3.33078,5
1771446639248,0.0920995,0.955636,-0.265406,15.6068,-4.04701,-3.52927,0,0,3.27498,5
1771446639261,0.0913282,0.958324,-0.261625,14.6358,-4.24348,-4.3384,0,0,3.41369,3
1771446639275,0.0894162,0.963114,-0.25564,13.8474,-4.37584,-5.35991,0,0,3.27385,3
1771446639289,0.0889011,0.969361,-0.249788,13.7969,-4.52132,-6.28002,0,0,4.39782,3
1771446639303,0.0870098,0.975762,-0.244715,14.3405,-4.66678,-6.59187,0,0,3.26895,3
1771446639316,0.0842616,0.9883,-0.237184,15.1718,-4.86702,-6.00332,0,0,3.28395,3
1771446639329,0.0830323,1.00283,-0.231637,16.7867,-5.09328,-4.91896,0,0,3.28724,3
1771446639343,0.0732619,1.0179,-0.225746,18.609,-5.24091,-4.46749,0,0,3.27019,2
1771446639356,0.0650398,1.02862,-0.220731,20.8944,-5.12207,-4.88101,0,0,3.31908,3
1771446639370,0.0553836,1.04091,-0.21537,23.4737,-5.00732,-5.27734,0,0,3.2862,3
1771446639383,0.0494489,1.05714,-0.207788,26.5215,-4.6164,-4.61479,0,0,3.39154,3
1771446639396,0.0480337,1.07332,-0.200377,30.3768,-4.30008,-3.03156,0,0,3.2825,5
1771446639410,0.0391746,1.08445,-0.193258,34.8139,-3.9514,-1.6112,0,0,3.84206,5
1771446639424,0.0358492,1.09649,-0.184924,39.7292,-3.57775,-0.485474,0,0,3.29487,5
1771446639437,0.0368973,1.11084,-0.178001,45.3297,-3.52608,1.03484,0,0,3.27774,5
1771446639451,0.0384547,1.12553,-0.170996,51.6076,-3.93631,3.1978,0,0,3.3303,5
1771446639464,0.0448233,1.15084,-0.161329,58.8347,-4.61685,5.62608,0,0,3.28772,5
1771446639477,0.0511804,1.20407,-0.145241,68.2504,-5.80943,7.76358,0,0,3.36309,5
1771446639491,0.0406996,1.25991,-0.148573,78.4525,-6.34336,8.93295,0,0,3.27307,5
1771446639504,0.0247728,1.2834,-0.152475,88.0823,-5.10206,8.40661,0,0,3.55408,5
1771446639518,0.0441891,1.31896,-0.141152,97.1719,-4.42836,7.85713,0,0,3.28197,5
1771446639531,0.0473174,1.35301,-0.129352,105.752,-3.91064,8.15931,0,0,3.28263,5
1771446639545,0.0488996,1.36623,-0.133753,113.85,-3.5731,9.58651,0,0,3.30174,5
1771446639558,0.0645915,1.36617,-0.13874,121.494,-4.20935,13.3649,0,0,3.28728,5
1771446639572,0.074515,1.33657,-0.127997,127.602,-6.30686,19.0076,0,0,3.86576,5
1771446639585,0.0897379,1.28528,-0.0891511,128.902,-8.98294,24.6674,0,0,3.28041,4
1771446639599,0.107445,1.20355,-0.0813552,126.707,-12.1413,28.5534,0,0,3.4847,5
1771446639613,0.0275647,1.13162,-0.0779895,124.445,-13.5627,30.0891,0,0,3.71313,1
1771446639627,0.00313697,1.06271,-0.0565456,121.352,-13.2181,28.5632,0,0,4.03565,1
1771446639640,0.00646977,0.995735,-0.0434065,115.096,-12.2142,22.495,0,0,3.30404,5
1771446639654,0.00878132,0.941416,-0.0483628,105.973,-11.509,12.9641,0,0,3.27667,1
1771446639667,-0.00387046,0.891159,-0.0414218,94.6969,-9.91068,2.29571,0,0,3.34419,5
1771446639681,-0.0162786,0.858283,-0.0376351,82.1813,-7.32816,-7.96138,0,0,3.2838,2
1771446639694,-0.0311656,0.829717,-0.0358184,67.5606,-3.71685,-16.8737,0,0,3.57724,2
1771446639708,-0.0529395,0.807066,-0.0372735,50.695,1.87865,-23.5703,0,0,3.41126,5
1771446639722,-0.0757684,0.793552,-0.0371169,33.8206,10.0608,-28.1576,0,0,3.95417,2
1771446639735,-0.0920683,0.789149,-0.034426,17.8927,20.399,-32.4782,0,0,3.27217,2
1771446639749,-0.102552,0.791184,-0.0307744,2.85822,32.3448,-37.5506,0,0,3.27315,2
1771446639762,-0.110751,0.797593,-0.0289267,-10.08,44.5609,-43.4664,0,0,3.28069,5
1771446639776,-0.120279,0.80652,-0.0306085,-21.4353,56.0918,-49.9067,0,0,3.27657,5
1771446639789,-0.128632,0.818633,-0.0331563,-32.8623,66.9758,-56.9106,0,0,3.31687,5
1771446639802,-0.131377,0.837999,-0.0329341,-44.8751,77.2494,-64.1417,0,0,3.26687,5
1771446639816,-0.12829,0.865199,-0.0295293,-56.3888,86.9466,-71.12,0,0,3.35589,5
1771446639829,-0.120448,0.895417,-0.0212018,-66.8691,96.1,-76.6446,0,0,3.27585,5
1771446639843,-0.105155,0.936687,-0.0154914,-75.5279,104.74,-80.1102,0,0,3.26904,5
1771446639856,-0.0825765,0.992883,-0.0104364,-81.6415,112.895,-82.7258,0,0,3.29243,5
1771446639869,-0.049561,1.05767,-0.00766308,-84.7947,120.593,-85.9132,0,0,3.27167,5
1771446639883,0.000962023,1.11935,-0.00440249,-84.8383,127.859,-89.2253,0,0,3.35769,3
1771446639896,0.0702663,1.15428,0.000968335,-82.7326,134.717,-91.7257,0,0,3.29487,3
1771446639910,0.153751,1.17031,0.00485508,-79.4852,141.191,-92.1256,0,0,3.45761,3
1771446639923,0.244507,1.18102,0.00401282,-75.0117,147.302,-89.1774,0,0,3.30424,3
1771446639937,0.329095,1.19097,-0.00443726,-69.3085,153.07,-82.5485,0,0,3.8007,3
1771446639951,0.387626,1.19439,-0.0209419,-62.8136,155.381,-73.6243,0,0,3.30117,3
1771446639964,0.406292,1.19343,-0.0521101,-55.7504,155.666,-65.4062,0,0,3.28202,3
1771446639978,0.39745,1.17563,-0.0972045,-48.4497,157.172,-60.7346,0,0,3.30108,3
1771446639991,0.368067,1.12879,-0.115813,-45.4648,160.991,-58.8526,0,0,3.29191,5
1771446640005,0.428545,1.11291,-0.122599,-47.4572,165.237,-55.113,0,0,3.67591,3
1771446640018,0.436496,1.07791,-0.0971545,-51.0416,167.79,-50.4831,0,0,3.28235,3
1771446640032,0.470012,1.06201,-0.0719897,-53.5754,166.805,-45.5516,0,0,3.9485,3
1771446640046,0.541172,1.06137,-0.0478186,-51.934,160.767,-39.0537,0,0,3.298,3
1771446640061,0.68841,1.12599,-0.0584542,-38.2332,149.131,-35.0018,0,0,5.05228,3
1771446640074,0.664326,1.07349,-0.0569442,-26.9661,139.402,-32.0994,0,0,3.29963,5
1771446640088,0.665307,1.02951,-0.109408,-29.8561,131.628,-29.407,0,0,3.29791,5
1771446640101,0.661633,1.00716,-0.108531,-38.7122,123.401,-27.5048,0,0,3.65848,5
1771446640115,0.634919,1.01567,-0.0972183,-44.8489,115.781,-27.951,0,0,3.26041,5
1771446640128,0.581934,1.05195,-0.0904576,-46.2044,108.35,-32.3182,0,0,3.40545,5
1771446640142,0.526162,1.09463,-0.0867472,-44.1381,101.112,-39.7893,0,0,3.31726,5
1771446640156,0.506728,1.11073,-0.0880678,-41.3985,94.4688,-46.6496,0,0,4.10559,5
1771446640169,0.489394,1.09412,-0.0961424,-41.1997,88.426,-50.1007,0,0,3.29306,3
1771446640183,0.455638,1.08396,-0.09623,-42.0629,83.603,-50.638,0,0,3.30158,3
1771446640196,0.433032,1.09091,-0.0919575,-40.5903,79.2959,-47.8584,0,0,3.54678,3
1771446640210,0.40897,1.09065,-0.089655,-36.137,75.1606,-42.5478,0,0,3.29685,5
1771446640224,0.388533,1.08548,-0.0896312,-30.9375,71.5432,-36.3829,0,0,3.31689,3
1771446640237,0.376698,1.08391,-0.0953313,-27.0133,68.3429,-30.1437,0,0,3.57391,3
1771446640251,0.361655,1.07928,-0.100868,-25.2899,65.2964,-24.7058,0,0,3.31445,2
1771446640264,0.348828,1.07161,-0.102927,-25.0082,62.2576,-20.9564,0,0,3.31702,2
1771446640278,0.341826,1.06622,-0.103112,-24.7466,58.9423,-19.2688,0,0,3.316,5
1771446640291,0.331052,1.06491,-0.102201,-23.5537,55.4712,-19.6503,0,0,3.29958,5
1771446640304,0.320365,1.06433,-0.101735,-21.8711,52.0818,-20.9382,0,0,3.28885,5
1771446640320,0.308586,1.06401,-0.103821,-20.5484,48.96,-21.8181,0,0,5.38047,5
1771446640333,0.293809,1.063,-0.10496,-19.845,46.3041,-21.8716,0,0,3.28517,5
1771446640347,0.282412,1.06369,-0.104267,-18.9074,44.0057,-21.0532,0,0,3.34361,5
1771446640360,0.270585,1.06555,-0.103188,-16.8778,41.977,-19.6467,0,0,3.33902,5
1771446640374,0.260022,1.06481,-0.103544,-13.8707,40.066,-18.1023,0,0,3.96496,5
1771446640388,0.250818,1.06224,-0.106297,-11.0292,38.3209,-16.7289,0,0,3.31056,5
1771446640401,0.241835,1.05862,-0.109806,-8.98213,36.6942,-15.6531,0,0,3.28361,5
1771446640415,0.233693,1.05493,-0.113321,-7.59324,35.0693,-14.9048,0,0,3.33943,5
1771446640429,0.225844,1.05029,-0.116779,-6.42613,33.3715,-14.4349,0,0,3.30309,5
1771446640442,0.217312,1.0454,-0.120042,-5.38785,31.7154,-14.062,0,0,3.3515,5
1771446640456,0.208609,1.04108,-0.123078,-4.65316,30.0511,-13.659,0,0,3.28267,5
1771446640469,0.199315,1.03845,-0.126867,-4.41142,28.5149,-13.2354,0,0,3.39522,5
1771446640483,0.192649,1.0367,-0.129444,-4.47056,27.0418,-12.7888,0,0,3.28113,5
1771446640496,0.183829,1.0348,-0.131822,-4.47499,25.6671,-12.3991,0,0,3.29634,5
1771446640511,0.177807,1.03373,-0.132784,-4.22484,24.4085,-12.0256,0,0,5.12182,5
1771446640525,0.170277,1.03329,-0.134494,-3.78575,23.2261,-11.5356,0,0,3.43585,5
1771446640538,0.163738,1.03213,-0.136534,-3.40512,22.2011,-10.8761,0,0,3.33021,5
1771446640552,0.1563,1.0309,-0.13888,-3.16702,21.286,-10.0155,0,0,3.26783,5
1771446640565,0.149176,1.03017,-0.141167,-2.92044,20.5099,-9.06751,0,0,3.33169,5
1771446640579,0.145428,1.02984,-0.142787,-2.61875,19.7088,-8.14912,0,0,3.76891,5
1771446640593,0.139485,1.02813,-0.144561,-2.39863,18.9031,-7.52117,0,0,3.72382,5
1771446640606,0.134345,1.02657,-0.146226,-2.38227,18.1228,-6.96741,0,0,3.32511,5
1771446640620,0.129901,1.02631,-0.147337,-2.48243,17.3362,-6.35907,0,0,3.28296,5
1771446640633,0.124038,1.0259,-0.148292,-2.5059,16.6219,-5.66753,0,0,3.29858,5
1771446640648,0.120845,1.02505,-0.149377,-2.50706,15.9336,-5.01607,0,0,4.91878,5
1771446640662,0.116265,1.02368,-0.149603,-2.52829,15.266,-4.50563,0,0,3.32476,5
1771446640675,0.113433,1.02354,-0.150427,-2.48025,14.6473,-4.05165,0,0,3.31739,5
1771446640689,0.111334,1.02334,-0.151237,-2.3878,14.0175,-3.59873,0,0,3.8108,5
1771446640703,0.107266,1.02225,-0.151659,-2.28469,13.4119,-3.16779,0,0,3.26761,5
1771446640716,0.105244,1.02228,-0.152266,-2.16767,12.7761,-2.76487,0,0,3.29243,5
1771446640729,0.102414,1.02169,-0.152867,-2.02852,12.1537,-2.34602,0,0,3.28345,5
1771446640743,0.100284,1.0211,-0.153431,-1.93914,11.4544,-1.96565,0,0,4.0138,5
1771446640757,0.0960052,1.02053,-0.154153,-1.88518,10.8337,-1.5578,0,0,3.30745,5
1771446640770,0.0936857,1.02119,-0.155013,-1.83296,10.1922,-1.06835,0,0,3.2785,5
1771446640788,0.0905495,1.01999,-0.156039,-1.67105,13.1111,-1.6764,0,0,4.71796,5
1771446640803,0.0887143,1.01918,-0.156678,-1.3658,15.9082,-2.16555,0,0,4.62704,5
1771446640822,0.2529,0.885748,-0.23593,-6.43984,1.20426,-2.04408,0,0,6.84919,3
1771446640838,0.286053,0.84004,-0.224902,-6.16511,1.296,-1.77528,0,0,6.56315,3
1771446640855,0.378742,0.659774,-0.258799,-0.448122,-11.821,-1.62132,0,0,6.38358,3
1771446640871,0.354566,0.631336,-0.249173,-0.263272,-11.2898,-1.35439,0,0,6.0793,3
1771446640887,0.386861,0.744458,-0.280648,-13.0731,-10.8162,-1.07674,0,0,5.70902,3
1771446640902,0.36864,0.709777,-0.266394,-12.4721,-10.3718,-0.863056,0,0,5.58476,3
1771446640918,0.405785,0.846801,-0.253388,-11.9541,-10.0045,-0.784672,0,0,5.26467,3
1771446640932,0.385637,0.808082,-0.250399,-11.4621,-9.64804,-0.894805,0,0,4.60132,3
1771446640947,0.446638,0.670212,-0.248054,-11.011,-9.30853,-1.22313,0,0,4.69489,3
1771446640961,0.272649,0.685392,-0.243506,-10.6117,-8.98764,-1.82035,0,0,3.73887,3
1771446640975,0.266747,0.700657,-0.237917,-10.1372,-8.68989,-2.70222,0,0,3.59458,3
1771446640988,0.2639,0.717004,-0.23283,-9.47228,-8.5086,-4.08826,0,0,3.28963,3
1771446641007,0.261787,0.734398,-0.227196,-8.71873,-8.36789,-7.39747,0,0,8.62273,2
1771446641021,0.261037,0.755196,-0.215669,-8.2969,-8.37851,-11.6305,0,0,3.28791,3
1771446641034,0.255333,0.82503,-0.211405,-4.65179,-7.74669,-17.2335,0,0,3.54433,2
1771446641048,0.266673,0.886547,-0.185835,2.78254,-8.97652,-24.2641,0,0,3.32541,2
1771446641061,0.290394,0.92008,-0.185139,10.1591,-10.593,-29.477,0,0,3.37715,3
1771446641075,0.271395,0.938704,-0.179615,15.5209,-10.6954,-34.2318,0,0,3.26124,3
1771446641088,0.284799,0.983836,-0.163005,22.2189,-10.9506,-40.1042,0,0,3.27041,2
1771446641102,0.283288,1.01826,-0.147122,31.3069,-11.4107,-48.9083,0,0,3.28391,3
1771446641115,0.282483,1.0384,-0.13742,40.5428,-11.0566,-59.5526,0,0,3.28858,3
1771446641129,0.273204,1.06485,-0.135126,49.2105,-9.20669,-70.2429,0,0,3.31789,3
1771446641142,0.243084,1.08588,-0.135933,58.5948,-4.64048,-80.3336,0,0,3.26008,3
1771446641156,0.195939,1.09719,-0.137921,69.2833,3.53184,-89.8584,0,0,3.36165,5
1771446641169,0.143007,1.09092,-0.141157,79.424,14.9402,-98.8488,0,0,3.26793,2
1771446641182,0.0956792,1.06573,-0.14834,84.3937,28.1325,-101.858,0,0,3.2647,2
1771446641196,0.0531542,1.03075,-0.153181,81.1679,40.5849,-95.0133,0,0,3.28596,2
1771446641209,0.0450214,1.00035,-0.138016,73.2773,52.3387,-85.4391,0,0,3.27265,2
1771446641223,0.0538789,0.962713,-0.110893,62.6723,63.4333,-77.0186,0,0,3.31221,2
1771446641238,0.065819,0.954991,-0.0703825,54.2087,73.9056,-70.9172,0,0,3.29569,2
1771446641252,0.0963592,0.950585,-0.035167,50.3613,83.7904,-67.0635,0,0,3.35833,2
1771446641265,0.126898,0.931606,-0.00911494,48.3757,93.1208,-64.4964,0,0,3.28976,2
1771446641279,0.153657,0.917247,0.00962657,45.9276,99.0898,-62.2865,0,0,3.42717,2
1771446641292,0.175647,0.890511,0.0168289,40.4329,102.181,-59.6127,0,0,3.29332,2
1771446641306,0.188049,0.853532,0.0229261,30.369,103.413,-56.6401,0,0,3.284,2
1771446641319,0.199151,0.820667,0.0355899,17.4988,103.012,-54.3108,0,0,3.3113,5
1771446641333,0.20715,0.795604,0.0520561,4.21247,101.195,-53.2358,0,0,3.30189,5
1771446641346,0.208747,0.776495,0.0691794,-8.34702,98.4044,-53.4045,0,0,3.36143,3
1771446641359,0.209622,0.764766,0.0861198,-20.539,94.9652,-53.9325,0,0,3.28296,3
1771446641373,0.206733,0.76317,0.0992017,-33.3693,91.307,-54.0013,0,0,3.40332,3
1771446641386,0.198802,0.76601,0.105466,-45.5284,88.1602,-52.9475,0,0,3.28265,3
1771446641400,0.19124,0.769901,0.109598,-57.0054,85.9122,-50.3822,0,0,3.70315,3
1771446641414,0.185855,0.77959,0.115983,-67.8386,84.4823,-46.3782,0,0,3.30339,5
1771446641427,0.184347,0.7976,0.121748,-78.0642,83.7372,-41.2294,0,0,3.27767,5
1771446641440,0.187976,0.824367,0.123449,-87.7162,83.7095,-35.1547,0,0,3.34356,5
1771446641454,0.196081,0.861794,0.118584,-96.8268,84.3377,-28.5978,0,0,3.28978,5
1771446641467,0.20603,0.910354,0.10649,-105.426,85.0779,-22.0468,0,0,3.38295,5
1771446641481,0.21642,0.968545,0.0872593,-113.544,85.3938,-15.5247,0,0,3.29061,5
1771446641495,0.226686,1.03516,0.0566656,-121.205,85.3118,-8.38818,0,0,3.81056,5
1771446641512,0.223702,1.11389,0.00867187,-100.458,66.9341,-7.91767,0,0,6.85845,5
1771446641528,0.196398,1.19556,-0.0638298,-92.9431,58.795,-7.47355,0,0,5.69737,5
1771446641543,0.213369,1.22773,-0.143827,-92.2158,57.4701,-7.05434,0,0,4.94735,5
1771446641559,0.248027,1.25153,-0.228835,-86.3829,55.8907,-6.65865,0,0,6.03397,3
1771446641574,0.268773,1.27043,-0.320237,-79.6312,58.5704,-14.4147,0,0,4.68034,5
1771446641588,0.231576,1.27587,-0.402153,-71.6726,56.6005,-13.6061,0,0,4.47852,5
1771446641605,0.21611,1.31549,-0.310287,-81.5778,60.3314,-12.8429,0,0,6.08506,5
1771446641620,0.181269,1.31935,-0.248159,-78.1375,62.4426,-6.694,0,0,4.84256,5
1771446641634,0.18814,1.41632,-0.218226,-59.7242,71.1074,-6.31852,0,0,4.44882,5
1771446641649,0.152932,1.35994,-0.202779,-42.3437,65.8034,-5.27643,0,0,4.1145,2
1771446641664,0.186762,1.33699,-0.218531,-38.0075,65.9309,-7.1291,0,0,5.81904,3
1771446641679,0.140553,1.32147,-0.214409,-32.4089,51.9288,-6.72921,0,0,4.44263,5
1771446641695,0.134364,1.31246,-0.205342,-26.054,39.1506,-6.35175,0,0,6.21654,5
1771446641710,0.131808,1.29126,-0.193703,-18.1222,41.3392,-5.99547,0,0,4.40606,5
1771446641726,0.124282,1.27302,-0.187474,-17.3249,42.1247,-5.93406,0,0,5.80247,2
1771446641740,0.122744,1.25833,-0.190294,-9.89009,49.0792,-5.60121,0,0,4.38948,2
1771446641755,0.111771,1.24022,-0.200582,-6.27594,47.3496,-5.16542,0,0,4.96189,5
1771446641769,0.125097,1.21999,-0.200747,-4.60423,45.6211,-1.68612,0,0,3.2867,5
1771446641782,0.132289,1.20481,-0.195683,-2.73428,43.1798,-0.656379,0,0,3.31278,5
1771446641796,0.141804,1.19304,-0.191898,-0.24258,40.9222,-1.43868,0,0,3.32515,5
1771446641810,0.149216,1.17902,-0.191406,0.98622,38.628,-2.63826,0,0,3.43745,2
1771446641823,0.146021,1.16894,-0.188855,0.679555,36.5701,-3.4447,0,0,3.28571,3
1771446641837,0.149554,1.16529,-0.183179,0.62431,34.3543,-4.23674,0,0,3.79876,5
1771446641851,0.145939,1.15922,-0.177987,1.30351,32.2363,-5.48832,0,0,3.29761,5
1771446641864,0.144564,1.15514,-0.172787,2.14671,30.1301,-6.82599,0,0,3.2858,5
1771446641877,0.137965,1.15219,-0.168541,2.93619,28.3172,-7.49344,0,0,3.31013,5
1771446641891,0.133373,1.14988,-0.164074,3.7332,26.7703,-7.58608,0,0,3.51808,5
1771446641905,0.130487,1.14535,-0.160016,4.90127,25.3342,-7.56734,0,0,3.53774,5
1771446641918,0.125848,1.13862,-0.156563,6.28428,24.0596,-7.61644,0,0,3.28995,5
1771446641933,0.124497,1.13239,-0.154894,7.49595,22.7965,-7.54376,0,0,3.49361,5
1771446641946,0.120825,1.12627,-0.153203,8.36347,21.6441,-7.32828,0,0,3.29822,5
1771446641960,0.120922,1.1211,-0.151702,9.19859,20.3812,-7.0598,0,0,3.67313,3
1771446641973,0.118987,1.11351,-0.150802,9.83059,19.0128,-6.94512,0,0,3.31213,5
1771446641987,0.11784,1.10643,-0.150762,10.0225,17.6487,-7.03641,0,0,3.30282,3
1771446642000,0.115666,1.10005,-0.150639,9.96643,16.291,-7.275,0,0,3.31072,5
1771446642014,0.112903,1.09547,-0.149454,9.84971,15.0779,-7.57729,0,0,3.29059,5
1771446642028,0.110378,1.09239,-0.147605,9.91637,14.0009,-7.84593,0,0,3.6885,5
1771446642041,0.107708,1.09011,-0.146574,10.2182,13.0584,-8.02199,0,0,3.29059,5
1771446642054,0.104588,1.08704,-0.145673,10.692,12.2244,-8.19674,0,0,3.37456,5
1771446642068,0.102908,1.08461,-0.145089,11.2501,11.5023,-8.27477,0,0,3.50656,5
1771446642082,0.102283,1.08348,-0.144616,11.8774,10.7784,-8.33729,0,0,3.30237,5
1771446642095,0.0994971,1.08133,-0.144453,12.6491,10.0937,-8.36161,0,0,3.30006,3
1771446642108,0.0965018,1.07803,-0.144958,13.4181,9.36096,-8.33705,0,0,3.29145,3
1771446642124,0.09557,1.07386,-0.14684,13.7967,8.52973,-7.55768,0,0,5.67667,3
1771446642138,0.0935686,1.0698,-0.147881,13.8025,7.65991,-7.84497,0,0,3.29891,3
1771446642151,0.0921885,1.06771,-0.147905,13.7686,6.81577,-8.3054,0,0,3.44815,3
1771446642165,0.0903563,1.0652,-0.149167,13.9169,5.94489,-7.71108,0,0,3.90917,5
1771446642179,0.0868105,1.06312,-0.150139,14.104,5.11816,-8.22227,0,0,3.29187,5
1771446642193,0.081861,1.06427,-0.149445,14.3461,4.41359,-7.77562,0,0,3.54111,5
1771446642206,0.0813132,1.06963,-0.148761,14.8508,3.80334,-8.15901,0,0,3.29476,5
1771446642222,0.0797538,1.07643,-0.148714,15.9159,12.9073,-7.70136,0,0,5.99156,5
1771446642237,0.0800669,1.07865,-0.147816,17.1251,25.3372,-7.26937,0,0,4.39754,5
1771446642252,0.0644898,1.10818,-0.139996,19.5048,35.7545,-6.86161,0,0,4.46365,5
1771446642265,0.0687803,1.12911,-0.136521,23.7905,33.018,-9.84441,0,0,3.2855,5
1771446642278,0.0599108,1.14148,-0.137224,27.4208,30.8183,-10.5429,0,0,3.35169,5
1771446642292,0.0414676,1.16803,-0.129579,31.7103,29.1787,-9.84238,0,0,3.27719,2
1771446642306,0.0453556,1.19805,-0.117548,37.7529,27.6691,-8.43692,0,0,3.99315,5
1771446642320,0.0577111,1.2252,-0.104347,45.0695,25.4693,-7.62198,0,0,3.42572,5
1771446642333,0.0686722,1.25147,-0.0851132,53.0983,22.8922,-8.62416,0,0,3.28296,2
1771446642346,0.0989275,1.28509,-0.0610835,62.4114,19.6749,-11.6464,0,0,3.31858,3
1771446642360,0.128212,1.32302,-0.0363751,72.941,15.3821,-16.2906,0,0,3.28741,3
1771446642373,0.145582,1.36758,-0.0175945,82.88,10.8185,-22.1739,0,0,3.35852,2
1771446642387,0.170851,1.41326,0.00113346,92.2614,6.12207,-27.7087,0,0,3.28891,3
1771446642400,0.172027,1.43783,0.00377446,101.117,2.08941,-32.8432,0,0,3.40585,3
1771446642414,0.17564,1.45155,0.00244562,109.475,-0.189274,-41.2633,0,0,3.28539,3
1771446642428,0.189419,1.47211,2.17785e-05,117.365,-3.08476,-49.5759,0,0,3.70176,4
1771446642441,0.194033,1.47475,0.0104842,124.812,-5.68038,-55.0008,0,0,3.31443,3
1771446642454,0.214087,1.4384,0.0411168,131.841,-8.3719,-55.5544,0,0,3.27469,3
1771446642468,0.193834,1.41402,0.0773924,138.476,-8.71072,-56.9406,0,0,3.35493,3
1771446642481,0.149088,1.3213,0.0279905,144.739,-7.72585,-51.3364,0,0,3.2855,3
1771446642495,0.112203,1.20298,0.0197303,150.651,-3.41568,-44.2002,0,0,3.36726,2
1771446642508,0.0990425,1.08005,-0.0180853,143.858,3.44662,-37.7555,0,0,3.28004,2
1771446642522,0.0824434,0.984609,-0.0278218,124.604,11.6993,-32.3989,0,0,3.56406,5
1771446642535,0.0922481,0.955195,-0.0133016,103.584,19.5036,-28.9399,0,0,3.30883,2
1771446642549,0.101699,0.948666,0.00723517,85.1207,26.1854,-27.8698,0,0,3.29793,2
1771446642562,0.108708,0.908513,0.0154496,69.3515,31.2191,-28.6555,0,0,3.34432,2
1771446642576,0.122318,0.853364,0.0219168,53.2243,34.2272,-29.6533,0,0,3.28611,2
1771446642589,0.135877,0.807471,0.0357031,36.208,34.5938,-30.0936,0,0,3.34635,2
1771446642602,0.143826,0.793608,0.0531679,20.1462,32.5853,-29.0081,0,0,3.2942,5
1771446642616,0.141582,0.79137,0.0644878,4.98532,29.1368,-24.8058,0,0,3.88674,5
1771446642630,0.128472,0.770278,0.0700917,-9.32513,25.7353,-16.8683,0,0,3.29363,5
1771446642644,0.119768,0.753408,0.0803938,-22.8329,22.5332,-7.29672,0,0,3.28202,5
1771446642657,0.113217,0.758021,0.0964915,-35.5829,19.1322,2.69196,0,0,3.31602,5
1771446642671,0.106888,0.773066,0.11038,-47.6178,15.6329,12.4899,0,0,3.28765,5
1771446642684,0.103997,0.793539,0.118632,-58.9776,12.4417,21.4042,0,0,3.35515,5
1771446642698,0.0842342,0.821776,0.112333,-69.7002,9.9223,27.0289,0,0,3.31713,1
1771446642711,0.071774,0.834332,0.0955479,-79.8214,7.75276,28.0382,0,0,3.4443,5
1771446642725,0.0375975,0.868494,0.0886254,-89.3748,6.99418,28.7704,0,0,3.26793,1
1771446642738,0.0157846,0.918543,0.0811087,-98.3924,7.40043,29.6624,0,0,3.63352,1
1771446642752,-0.00733785,0.968198,0.0718709,-106.904,8.62399,31.2078,0,0,3.28882,1
1771446642765,-0.0194021,1.0162,0.0561931,-114.938,10.1844,33.3824,0,0,3.26756,1
1771446642778,-0.0231447,1.07292,0.0371224,-122.522,11.57,35.4,0,0,3.32663,1
1771446642792,-0.0254424,1.1394,0.0152129,-129.68,12.6491,36.687,0,0,3.28932,5
1771446642805,-0.04279,1.24058,-0.0448693,-136.437,12.9677,35.3052,0,0,3.37215,5
1771446642819,-0.0383669,1.2722,-0.0856787,-142.815,12.5935,35.2928,0,0,3.27841,5
1771446642832,-0.017161,1.33958,-0.127458,-147.134,10.7019,34.4791,0,0,3.54124,5
1771446642846,0.0216739,1.36573,-0.168211,-146.385,6.30961,34.4522,0,0,3.31941,5
1771446642859,0.0355349,1.39428,-0.216225,-141.069,-2.06681,33.4172,0,0,3.2813,5
1771446642873,0.00763032,1.39427,-0.27571,-133.78,-11.5183,33.345,0,0,3.33269,1
1771446642886,-0.0599144,1.38915,-0.33918,-127.127,-18.1107,32.8722,0,0,3.29628,5
1771446642900,-0.126961,1.38387,-0.390864,-119.995,-21.0846,28.9268,0,0,3.38209,1
1771446642913,-0.171216,1.38499,-0.431757,-109.453,-21.5984,21.0051,0,0,3.28437,2
1771446642927,-0.192428,1.38607,-0.463911,-95.8392,-21.4047,11.7256,0,0,3.91052,1
1771446642941,-0.0853368,1.4018,-0.427063,-86.9625,-26.5442,5.96521,0,0,4.04093,3
1771446642955,0.00157881,1.35233,-0.305045,-83.8166,-31.7706,2.81271,0,0,3.28069,3
1771446642968,0.0176425,1.35831,-0.238192,-76.7348,-34.5482,-0.0927317,0,0,3.30672,2
1771446642981,-0.0189179,1.40465,-0.219885,-58.4002,-36.181,-5.04678,0,0,3.28539,2
1771446642995,-0.0935549,1.38357,-0.200457,-41.094,-34.4238,-12.6372,0,0,3.35007,2
1771446643008,-0.0504501,1.35814,-0.204406,-24.7585,-31.9307,-16.7878,0,0,3.27796,2
1771446643022,-0.0921258,1.33419,-0.219554,-17.0489,-28.7193,-13.2107,0,0,3.3788,2
1771446643035,-0.0902643,1.32447,-0.218494,-12.4979,-25.8598,-7.01541,0,0,3.2793,2
1771446643049,-0.0769212,1.29527,-0.225968,-6.8672,-22.7072,-3.19941,0,0,3.70589,3
1771446643062,-0.0633928,1.25404,-0.236137,-2.61462,-19.4741,-3.14198,0,0,3.30476,3
1771446643076,-0.0562109,1.23458,-0.229334,-1.24977,-17.6063,-4.33636,0,0,3.28556,2
1771446643089,-0.0578419,1.23818,-0.225529,0.680374,-16.0077,-3.49195,0,0,3.33915,2
1771446643103,-0.0398095,1.2248,-0.220407,2.0351,-13.8916,-1.85994,0,0,3.28617,5
1771446643116,-0.032239,1.21269,-0.215765,2.27591,-12.4958,-1.36768,0,0,3.36213,2
1771446643130,-0.0211345,1.20611,-0.208357,3.73511,-11.4785,-1.90198,0,0,3.27859,5
1771446643144,-0.0162384,1.19341,-0.205171,5.38949,-10.8616,-2.61013,0,0,3.7975,5
1771446643157,-0.0137879,1.18266,-0.202711,5.69607,-10.1359,-2.43932,0,0,3.34576,5
1771446643170,-0.0102915,1.17522,-0.199099,5.43865,-9.59731,-1.57672,0,0,3.26215,5
1771446643184,-0.00385169,1.16681,-0.19477,5.39434,-9.14761,-1.08407,0,0,3.32685,5
1771446643197,0.00335282,1.15973,-0.189327,5.71777,-8.84045,-1.24549,0,0,3.28511,5
1771446643211,0.00837381,1.15485,-0.185713,6.18662,-8.49187,-1.39314,0,0,3.35122,5
1771446643224,0.0121289,1.14846,-0.183047,6.32987,-8.0605,-1.22294,0,0,3.28589,5
1771446643238,0.0154635,1.14215,-0.179889,6.35248,-7.57197,-0.955662,0,0,3.44458,5
1771446643251,0.0189619,1.13657,-0.176133,6.64528,-7.09971,-0.792869,0,0,3.28245,5
1771446643265,0.0237807,1.1303,-0.173758,7.01201,-6.65608,-0.649484,0,0,3.27861,5
1771446643278,0.0303213,1.1233,-0.172234,7.09483,-6.22278,-0.529985,0,0,3.3128,5
1771446643291,0.0398964,1.11692,-0.168983,7.08609,-5.8626,-0.751602,0,0,3.28602,5
1771446643305,0.0478142,1.11037,-0.165768,7.29321,-5.71188,-1.67243,0,0,3.34015,5
1771446643318,0.0535066,1.10739,-0.162149,7.82784,-5.63512,-2.9895,0,0,3.30515,5
1771446643333,0.0553306,1.10372,-0.160353,8.63863,-5.57894,-4.18087,0,0,3.96926,5
1771446643346,0.0527934,1.09818,-0.160462,9.28106,-5.50793,-4.94489,0,0,3.28048,5
1771446643360,0.0517018,1.09307,-0.159509,9.41644,-5.33172,-5.41642,0,0,3.76989,5
1771446643374,0.0492272,1.09086,-0.158491,9.44147,-5.1838,-5.56305,0,0,3.28648,5
1771446643387,0.0470103,1.08931,-0.157026,9.72928,-4.98123,-5.42056,0,0,3.26115,5
1771446643400,0.0479119,1.0875,-0.155999,10.1457,-4.86453,-5.08868,0,0,3.29145,5
1771446643414,0.0476851,1.08408,-0.156,10.4488,-4.77022,-4.85848,0,0,3.30265,5
1771446643428,0.0488989,1.08111,-0.155915,10.5084,-4.71246,-4.82403,0,0,3.30998,3
1771446643442,0.0483085,1.0792,-0.155054,10.5099,-4.65066,-4.94137,0,0,3.29969,3
1771446643456,0.050456,1.07695,-0.154028,10.6453,-4.60517,-4.9772,0,0,3.37548,3
1771446643470,0.0535985,1.07432,-0.153655,10.9015,-4.62603,-4.98234,0,0,3.82495,3
1771446643483,0.0547992,1.07086,-0.15284,11.2462,-4.69925,-4.94479,0,0,3.30606,5
1771446643497,0.0574102,1.06821,-0.152669,11.601,-4.76108,-4.9222,0,0,3.29415,5
1771446643510,0.0605262,1.0667,-0.152259,12.0045,-4.84042,-4.9651,0,0,3.27202,5
1771446643523,0.0620432,1.06759,-0.1519,12.4782,-4.89219,-5.32459,0,0,3.32146,3
1771446643538,0.047185,1.07073,-0.151802,13.2615,-4.87597,-6.051,0,0,4.13306,1
1771446643552,-0.120269,1.07399,-0.151121,14.242,-4.80286,-6.65659,0,0,3.80839,2
1771446643566,-0.123663,1.07688,-0.150705,15.4462,-4.62337,-6.92549,0,0,3.97637,2
1771446643580,-0.114171,1.08583,-0.147872,17.1913,-4.52932,-6.85002,0,0,4.39958,2
1771446643594,-0.107363,1.10331,-0.144342,20.1115,-4.62594,-7.09094,0,0,3.2528,2
1771446643607,-0.100938,1.10977,-0.144467,23.3316,-4.49106,-7.9679,0,0,3.25437,2
1771446643620,-0.0955734,1.12085,-0.141043,26.7616,-4.46009,-9.78136,0,0,3.27013,2
1771446643634,-0.0861727,1.13592,-0.137437,30.7781,-4.56231,-11.6721,0,0,3.28145,2
1771446643647,-0.0863866,1.14893,-0.132633,35.0745,-4.64809,-12.9318,0,0,3.30667,2
1771446643662,-0.216534,1.19022,-0.125114,39.8027,-4.1767,-13.1463,0,0,4.47145,2
1771446643676,-0.206018,1.21833,-0.112147,45.7017,-4.26099,-12.0124,0,0,4.25952,2
1771446643693,-0.202427,1.14451,-0.17234,42.0451,4.63766,-11.3386,0,0,6.83324,5
1771446643710,-0.098625,1.11456,0.0062304,37.7131,3.74509,-11.4502,0,0,6.47421,3
1771446643727,-0.0313235,0.99335,-0.0370966,27.15,12.6331,-10.8079,0,0,6.75702,3
1771446643743,0.0804988,0.980209,0.139451,22.301,8.85569,-13.3583,0,0,6.43587,3
1771446643760,0.0687838,1.10267,0.0246986,25.746,-5.34301,-12.609,0,0,6.70591,3
1771446643776,0.140418,1.0474,0.198543,20.9243,-7.0575,-13.7849,0,0,6.38597,3
1771446643793,0.25184,1.06853,0.12494,11.6356,0.573009,-13.8492,0,0,6.077,3
1771446643809,0.267732,1.19673,0.063641,10.8759,-4.12422,-12.9297,0,0,5.81759,2
1771446643824,0.223395,1.15393,-0.0259293,2.38763,-9.46359,-8.23605,0,0,5.49987,3
1771446643844,0.38855,1.03141,0.0117943,16.2841,-14.8623,-4.75236,0,0,9.39639,3
1771446643857,0.343521,0.946814,0.0201404,29.4011,-15.5371,-5.677,0,0,3.38622,3
1771446643872,0.308478,0.83967,-0.0138174,39.0539,-12.7636,-6.63713,0,0,5.07585,3
1771446643886,0.25859,0.725563,-0.0254382,38.8984,-8.0758,-6.35647,0,0,3.29,3
1771446643899,0.22864,0.629696,-0.0387182,28.56,-2.38524,-6.79849,0,0,3.32317,3
1771446643913,0.211049,0.571996,-0.0338646,12.9272,3.42845,-7.58695,0,0,3.29908,3
1771446643926,0.199652,0.544237,-0.0188346,-1.82876,9.69447,-8.38685,0,0,3.32926,5
1771446643939,0.184803,0.514927,-0.00292448,-15.757,16.1254,-8.79119,0,0,3.29754,2
1771446643954,0.175856,0.477524,0.0108805,-28.904,22.3708,-9.56636,0,0,4.01219,2
1771446643967,0.178725,0.457142,0.0319827,-41.3135,27.558,-11.5651,0,0,3.27763,2
1771446643980,0.180668,0.467473,0.0555679,-53.0269,31.502,-15.3339,0,0,3.27356,2
1771446643994,0.187127,0.491701,0.0731249,-64.0833,33.6901,-21.2259,0,0,3.29937,5
1771446644007,0.190838,0.513994,0.0844262,-74.5195,34.1361,-28.4513,0,0,3.28028,2
1771446644021,0.19193,0.525938,0.0875459,-84.3704,33.3171,-35.6234,0,0,3.32474,5
1771446644034,0.190477,0.535855,0.0822332,-93.6686,31.7582,-41.1886,0,0,3.27913,5
1771446644047,0.1841,0.548893,0.0740565,-102.445,30.1173,-43.9343,0,0,3.37791,5
1771446644061,0.179188,0.574173,0.0715652,-110.73,28.5697,-43.592,0,0,3.27511,5
1771446644075,0.178057,0.616551,0.0722578,-118.549,26.9145,-40.9203,0,0,3.77513,5
1771446644088,0.175822,0.666835,0.0661083,-125.931,25.4167,-37.1645,0,0,3.31139,5
1771446644102,0.169051,0.713788,0.0489315,-132.898,24.7181,-33.4399,0,0,3.27241,5
1771446644115,0.158861,0.755656,0.0241993,-139.474,24.8954,-31.6305,0,0,3.35296,5
1771446644129,0.15391,0.802216,0.00685878,-145.681,25.997,-30.2134,0,0,3.27678,5
1771446644142,0.158262,0.859413,-0.0126809,-151.54,27.3485,-29.2898,0,0,3.35474,5
1771446644156,0.17578,0.920558,-0.0388933,-157.071,28.2787,-27.187,0,0,3.29178,5
1771446644169,0.206134,0.98583,-0.0730347,-162.291,28.0733,-23.2012,0,0,3.46348,3
1771446644183,0.240991,1.0506,-0.110883,-167.219,25.8538,-17.5233,0,0,3.29139,3
1771446644196,0.261628,1.11387,-0.14935,-170.516,21.4902,-9.95103,0,0,3.28233,3
1771446644209,0.249461,1.16016,-0.191024,-170.697,16.202,-0.00872143,0,0,3.29843,5
1771446644223,0.201267,1.1944,-0.233471,-169.417,12.0827,11.0004,0,0,3.27087,5
1771446644236,0.176375,1.21851,-0.279592,-167.223,9.86987,19.5988,0,0,3.32993,3
1771446644250,0.158135,1.22545,-0.326728,-163.319,8.87564,21.5867,0,0,3.27058,3
1771446644263,0.15455,1.2281,-0.369016,-156.831,7.56594,17.9026,0,0,3.38654,3
1771446644277,0.151251,1.24782,-0.406498,-146.422,4.90941,12.283,0,0,3.26822,1
1771446644290,0.161676,1.29538,-0.402547,-134.684,3.26683,8.01654,0,0,3.65037,1
1771446644304,0.134896,1.3421,-0.407524,-118.826,3.43085,-2.02107,0,0,3.29648,3
1771446644317,0.0673272,1.29001,-0.350294,-105.287,2.02193,-9.09567,0,0,3.28285,2
1771446644331,0.050994,1.3134,-0.288989,-91.6441,3.65337,-14.0744,0,0,3.33624,2
1771446644344,0.0628681,1.34076,-0.275401,-72.4732,3.51267,-15.1437,0,0,3.27689,2
1771446644358,0.037772,1.28652,-0.272432,-54.3776,3.31906,-13.8566,0,0,3.38463,2
1771446644371,0.0599509,1.27143,-0.27838,-41.838,2.44094,-11.2553,0,0,3.28383,3
1771446644385,0.038794,1.2493,-0.275292,-34.1624,2.31301,-9.31586,0,0,3.83215,2
1771446644398,0.0227798,1.23799,-0.271474,-27.2201,3.48795,-6.36978,0,0,3.29317,2
1771446644412,0.0268657,1.21883,-0.260211,-20.2381,4.41287,-4.49028,0,0,3.27567,5
1771446644425,0.0273137,1.20273,-0.248681,-13.7288,4.92023,-3.4985,0,0,3.33819,5
1771446644439,0.0312441,1.19459,-0.240112,-7.82988,5.08913,-2.326,0,0,3.27948,2
1771446644452,0.0360597,1.18843,-0.234234,-2.49608,5.0563,-1.00431,0,0,3.36509,5
1771446644466,0.0361163,1.17987,-0.233547,2.59761,6.37838,-0.361789,0,0,3.28306,5
1771446644479,0.0468152,1.16139,-0.234106,6.46616,7.28375,-0.548738,0,0,3.4722,5
1771446644493,0.0447892,1.14124,-0.234459,7.80507,6.98737,-1.22618,0,0,3.28915,5
1771446644506,0.0441758,1.13165,-0.231039,7.80401,6.88831,-1.93113,0,0,3.29617,5
1771446644520,0.0427884,1.1322,-0.226722,8.01754,6.4437,-2.19747,0,0,3.30387,5
1771446644533,0.0374471,1.12586,-0.220971,8.4289,6.02745,-1.89865,0,0,3.27902,5
1771446644546,0.0323395,1.12144,-0.21592,8.1809,5.51551,-1.17985,0,0,3.34108,5
1771446644560,0.0289073,1.12118,-0.20921,7.90313,5.12435,0.0891077,0,0,3.2815,5
1771446644574,0.0293087,1.1201,-0.203157,8.06186,4.66007,1.32542,0,0,3.43613,5
1771446644587,0.030504,1.11663,-0.198576,8.52597,4.44834,2.35665,0,0,3.28911,5
1771446644601,0.0355974,1.11342,-0.193724,9.29503,4.26648,3.30991,0,0,3.69485,5
1771446644614,0.036838,1.10858,-0.18853,10.1528,4.17532,4.11294,0,0,3.2965,5
1771446644628,0.0412488,1.10434,-0.18446,11.0721,4.06058,4.78356,0,0,3.27382,5
1771446644641,0.0462887,1.10021,-0.181294,12.0307,3.85465,5.17208,0,0,3.33069,5
1771446644654,0.0483323,1.09454,-0.178981,12.8793,3.49713,5.28789,0,0,3.27106,5
1771446644668,0.0528596,1.09063,-0.175777,13.4701,2.98454,5.13729,0,0,3.40445,5
1771446644681,0.0541567,1.08479,-0.174624,13.9674,2.34698,4.86368,0,0,3.27704,5
1771446644695,0.0558455,1.07863,-0.174226,14.2052,1.75974,4.39005,0,0,3.8352,5
1771446644709,0.054898,1.0748,-0.172757,14.0776,1.18831,3.68521,0,0,3.32119,5
1771446644722,0.0538532,1.07279,-0.172163,14.1071,0.883587,3.36674,0,0,3.27308,5
1771446644736,0.053516,1.07091,-0.170837,14.2107,0.691438,3.27509,0,0,3.3395,5
1771446644749,0.0527771,1.06885,-0.168929,14.592,0.582431,3.35129,0,0,3.28006,5
1771446644762,0.0525724,1.06782,-0.168332,15.2726,0.52407,3.48488,0,0,3.33463,5
1771446644776,0.0516186,1.0657,-0.168604,15.983,0.523362,3.72187,0,0,3.42722,5
1771446644790,0.0530874,1.06463,-0.167978,16.4961,0.51413,3.9156,0,0,3.96765,3
1771446644803,0.0559333,1.06686,-0.166526,17.0228,0.326434,3.70838,0,0,3.27604,3
1771446644817,0.0592421,1.06578,-0.166429,17.859,0.0610603,3.37106,0,0,3.26865,3
1771446644830,0.0636767,1.06244,-0.169251,18.7272,-0.361559,2.75849,0,0,3.28221,3
1771446644844,0.0632515,1.05831,-0.172035,19.0897,-0.865807,1.90796,0,0,3.26796,3
1771446644857,0.0630371,1.05971,-0.175284,19.074,-1.3118,1.28968,0,0,3.31941,5
1771446644870,0.0639853,1.07099,-0.174366,19.3811,-1.82183,1.08546,0,0,3.27095,5
1771446644884,0.0595962,1.08026,-0.169261,20.6066,-2.12299,0.99888,0,0,3.32974,5
1771446644897,0.0618051,1.09118,-0.166001,22.6926,-2.36444,0.774145,0,0,3.26885,5
1771446644911,0.061622,1.10101,-0.163215,24.9818,-2.5294,-0.472482,0,0,3.29578,5
1771446644924,0.0605073,1.11433,-0.160028,28.3145,-2.64658,-1.57082,0,0,3.28619,3
1771446644937,0.0606371,1.12823,-0.154994,32.2289,-2.82868,-2.56859,0,0,3.28046,3
1771446644951,0.0601848,1.13633,-0.152209,36.2025,-3.09649,-3.11604,0,0,3.30587,3
1771446644964,0.0573285,1.14784,-0.147752,40.5359,-3.44005,-3.40027,0,0,3.28332,3
1771446644978,0.0534334,1.1659,-0.139411,45.6432,-3.76177,-3.35298,0,0,3.32387,3
1771446644991,0.0609514,1.18993,-0.130506,51.5059,-4.38915,-2.71745,0,0,3.27754,3
1771446645005,0.0731374,1.21369,-0.117741,58.3075,-6.38836,-1.3267,0,0,3.3145,3
1771446645018,0.0675259,1.2346,-0.102225,66.6771,-9.29366,0.429201,0,0,3.28658,3
1771446645031,0.0584657,1.25739,-0.0849528,76.839,-12.5772,2.38763,0,0,3.27726,3
1771446645045,0.0305512,1.30247,-0.0606205,86.5593,-15.3683,3.3824,0,0,3.31459,2
1771446645058,-0.0293903,1.35615,-0.0487019,95.7343,-15.0081,3.33397,0,0,3.29169,2
1771446645072,-0.0815856,1.38915,-0.0446502,104.395,-10.948,3.68177,0,0,3.32543,2
1771446645085,-0.0585963,1.41378,-0.0406156,112.569,-8.16728,7.0369,0,0,3.27972,2
1771446645099,-0.0740243,1.43528,-0.0528261,120.285,-5.2959,11.9085,0,0,3.37176,1
1771446645112,-0.0653952,1.48108,-0.03607,127.569,-2.36335,17.2616,0,0,3.30632,2
1771446645126,-0.0488582,1.47994,-0.0204952,134.443,-1.21813,22.9303,0,0,3.30826,1
1771446645139,-0.0284854,1.4703,0.00669831,140.933,-2.0036,29.3741,0,0,3.30434,4
1771446645152,0.0115708,1.44693,0.0456429,147.058,-5.28031,37.5105,0,0,3.31406,4
1771446645166,0.0935544,1.43212,0.0865253,152.839,-14.4667,47.4462,0,0,3.34422,4
1771446645179,0.0996381,1.37088,0.0702814,158.297,-25.6064,54.6725,0,0,3.2865,2
1771446645193,0.0870915,1.25807,0.0695247,163.448,-35.8171,59.9657,0,0,3.91761,1
1771446645207,0.0743569,1.14706,0.0417031,161.483,-43.286,64.103,0,0,3.29495,5
1771446645220,0.0370245,1.03558,0.0197534,149.302,-47.7192,64.9866,0,0,3.28213,1
1771446645234,0.00432488,0.934952,0.00046121,128.858,-48.9091,63.0776,0,0,3.28802,1
1771446645247,-0.0212753,0.856802,-0.00671248,107.599,-46.7034,57.8927,0,0,3.28146,1
1771446645260,-0.0362214,0.795704,-0.000920324,87.5331,-42.4785,49.4253,0,0,3.31702,1
1771446645274,-0.0560765,0.747688,0.00778956,68.5923,-36.9272,40.0002,0,0,3.28072,1
1771446645287,-0.066682,0.693935,0.0253861,50.714,-30.9713,31.8197,0,0,3.37502,2
1771446645301,-0.0674173,0.658654,0.0522814,33.8385,-25.8051,24.7283,0,0,3.27507,2
1771446645314,-0.0563866,0.6595,0.0793457,17.9096,-22.8676,17.3976,0,0,3.28496,2
1771446645327,-0.0395816,0.685911,0.1037,2.87422,-21.9831,9.16311,0,0,3.2792,2
1771446645341,-0.0130802,0.728827,0.12007,-11.3178,-22.4431,2.2319,0,0,3.27719,2
1771446645354,0.0100094,0.772151,0.127599,-24.7138,-24.0817,-1.61594,0,0,3.34135,2
1771446645368,0.017227,0.771897,0.123428,-37.3583,-26.5974,-2.52041,0,0,3.27819,2
1771446645381,0.0300546,0.76779,0.120251,-49.2936,-29.7535,-0.420936,0,0,3.37485,5
1771446645395,0.0450545,0.808278,0.118067,-60.5594,-33.1418,4.99954,0,0,3.29985,5
1771446645408,0.0515723,0.857203,0.103604,-71.1933,-35.9411,11.9002,0,0,3.29572,3
1771446645421,0.0497547,0.903134,0.0857701,-81.2307,-37.6524,18.0623,0,0,3.30293,3
1771446645435,0.0355886,0.945412,0.0633026,-90.7051,-37.776,22.0863,0,0,3.28107,3
1771446645448,0.0165435,0.985072,0.0357318,-99.648,-36.1092,23.837,0,0,3.32869,3
1771446645462,0.00321061,1.02839,0.00499991,-108.089,-32.7923,26.369,0,0,3.29104,3
1771446645475,-0.00883453,1.07975,-0.0278794,-116.057,-28.3645,31.0794,0,0,3.51124,3
1771446645489,-0.116557,1.13376,-0.0637837,-123.578,-24.034,38.569,0,0,3.67534,2
1771446645503,-0.122457,1.19259,-0.107919,-129.887,-20.234,47.8249,0,0,4.18063,2
1771446645517,-0.141381,1.23248,-0.161325,-133.13,-16.2726,56.5342,0,0,3.28254,2
1771446645530,-0.161175,1.25279,-0.220754,-135.581,-11.5229,61.6724,0,0,3.27971,5
1771446645544,-0.162209,1.26656,-0.27813,-136.958,-6.78734,60.9214,0,0,3.30021,5
1771446645557,-0.145303,1.28629,-0.33259,-134.518,-3.46327,55.4698,0,0,3.27878,5
1771446645570,-0.124171,1.31438,-0.390659,-127.003,-2.97698,47.9082,0,0,3.33033,5
1771446645584,-0.123567,1.32695,-0.451238,-117.611,-4.238,42.615,0,0,3.27609,5
1771446645597,-0.143297,1.42059,-0.524414,-104.267,-4.62286,34.1328,0,0,3.44128,5
1771446645611,-0.0956248,1.41093,-0.508527,-88.4656,-8.17827,26.1748,0,0,3.2855,2
1771446645624,-0.142297,1.37371,-0.455218,-76.0045,-10.1709,18.22,0,0,3.50324,5
1771446645638,-0.152805,1.36594,-0.408383,-64.1833,-8.46569,9.93211,0,0,3.32574,5
1771446645651,-0.143859,1.39173,-0.394421,-50.2745,-6.216,4.87476,0,0,3.28345,5
1771446645665,-0.146472,1.40453,-0.376691,-35.1788,-4.84396,4.99525,0,0,3.324,5
1771446645678,-0.130521,1.37331,-0.370638,-22.7039,-4.41853,8.97851,0,0,3.27826,2
1771446645692,-0.15095,1.35197,-0.37069,-15.0538,-4.10518,10.2805,0,0,3.35832,2
1771446645705,-0.139715,1.32873,-0.359561,-8.1163,-3.17097,11.2184,0,0,3.28002,2
1771446645718,-0.139541,1.31034,-0.349143,-1.34786,-1.53256,11.0473,0,0,3.30011,2
1771446645732,-0.128218,1.29368,-0.339618,4.35754,-0.506295,11.4677,0,0,3.28293,5
1771446645745,-0.122952,1.27693,-0.331396,9.009,0.279994,12.5487,0,0,3.27365,2
1771446645758,-0.111137,1.25727,-0.335129,12.1462,1.9355,13.5426,0,0,3.32417,5
1771446645772,-0.0982262,1.23559,-0.332164,13.5489,3.2742,13.9802,0,0,3.285,5
1771446645785,-0.0935675,1.21954,-0.325496,13.7391,3.90624,13.6011,0,0,3.35989,5
1771446645799,-0.0819484,1.20952,-0.317432,13.9627,4.3885,13.0377,0,0,3.26791,5
1771446645812,-0.0692892,1.20117,-0.307864,14.3129,4.44678,12.2211,0,0,3.35241,5
1771446645826,-0.0635577,1.18944,-0.301308,14.3934,4.30996,11.2762,0,0,3.29185,5
1771446645839,-0.0582157,1.17831,-0.295423,13.789,3.91748,10.3238,0,0,3.28891,5
1771446645852,-0.0545808,1.17368,-0.286881,12.8746,3.5012,9.62995,0,0,3.32019,5
1771446645866,-0.0521832,1.17406,-0.279097,12.4646,2.95584,9.44304,0,0,3.2917,5
1771446645879,-0.0501039,1.1693,-0.272529,12.2934,2.62176,9.56248,0,0,3.33217,5
1771446645893,-0.0452008,1.16185,-0.265757,11.952,2.3501,9.6307,0,0,3.2798,5
1771446645906,-0.0394338,1.15887,-0.258277,11.7487,2.16261,9.80685,0,0,3.37017,5
1771446645920,-0.0343567,1.15372,-0.252662,11.8399,2.05501,10.0892,0,0,3.30776,5
1771446645933,-0.0283912,1.14645,-0.247058,12.039,1.95216,10.1372,0,0,3.2875,5
1771446645946,-0.0225158,1.14014,-0.242243,12.2581,1.7947,10.0251,0,0,3.29732,5
1771446645960,-0.0177729,1.13351,-0.238162,12.3357,1.62723,9.89135,0,0,3.28374,3
1771446645973,-0.0108992,1.12732,-0.234206,12.3058,1.40921,9.71633,0,0,3.38033,3
1771446645987,-0.00442209,1.12048,-0.229334,12.2706,1.08867,9.2805,0,0,3.28104,3
1771446646000,0.00115245,1.11501,-0.225412,12.2495,0.67435,8.61863,0,0,3.40578,3
1771446646013,0.00755089,1.11032,-0.221202,12.1635,0.238311,7.72628,0,0,3.2855,5
1771446646027,0.0112779,1.1047,-0.217988,12.0636,-0.189541,6.72041,0,0,3.29252,5
1771446646041,0.0149273,1.10121,-0.214914,12.0544,-0.53987,5.64807,0,0,3.81645,5
1771446646054,0.0163031,1.09871,-0.211847,12.3074,-0.882109,4.73136,0,0,3.28056,5
1771446646068,0.015067,1.09518,-0.210259,12.7676,-1.1011,4.14569,0,0,3.31904,5
1771446646081,0.0141518,1.09311,-0.208004,13.1712,-1.25001,3.88403,0,0,3.30091,5
1771446646094,0.0124973,1.09098,-0.205516,13.4981,-1.33532,3.96375,0,0,3.32613,5
1771446646108,-0.0523081,1.09096,-0.202187,13.9476,-1.31266,4.50616,0,0,3.80606,1
1771446646122,-0.0472766,1.09005,-0.200904,14.5496,-1.28784,5.30545,0,0,3.95193,2
1771446646139,-0.0602688,1.04098,-0.198962,15.0664,-1.28112,6.03122,0,0,6.18098,2
1771446646153,-0.0485204,1.0399,-0.197276,15.4981,-1.39209,6.28852,0,0,4.10965,2
1771446646169,-0.0481548,1.04589,-0.19514,16.1741,-1.43219,5.88183,0,0,6.25543,2
1771446646183,-0.0417995,1.04976,-0.193952,17.4682,-1.38268,6.00493,0,0,3.28046,2
1771446646196,-0.0322948,1.05681,-0.197086,18.5805,-1.32824,6.18021,0,0,3.30487,2
1771446646209,-0.0250422,1.06318,-0.195279,19.9528,-1.38005,6.06434,0,0,3.26957,2
1771446646223,-0.0125655,1.0734,-0.191095,22.543,-1.60923,5.40004,0,0,3.32987,2
1771446646236,-0.00770252,1.07481,-0.193212,25.6366,-1.71293,3.82928,0,0,3.28861,2
1771446646250,-0.0020379,1.07153,-0.191393,28.2329,-1.95469,1.1507,0,0,3.36937,5
1771446646263,-0.00130816,1.08239,-0.191724,31.218,-2.17389,-0.744772,0,0,3.27845,5
1771446646277,-0.0029379,1.08796,-0.193013,34.1294,-2.21081,-1.62873,0,0,3.31091,3
1771446646290,-0.00100502,1.0927,-0.193573,36.9354,-2.33943,-2.30254,0,0,3.29591,5
1771446646303,0.00169747,1.0986,-0.191866,39.9731,-2.68007,-3.10213,0,0,3.28302,5
1771446646317,0.00135632,1.10622,-0.190511,43.4652,-3.21269,-3.63848,0,0,3.32211,5
1771446646330,0.00248214,1.11586,-0.188276,47.2607,-3.73385,-3.37915,0,0,3.31858,5
1771446646344,-0.00342397,1.1278,-0.183245,51.6529,-4.62656,-2.09602,0,0,3.34517,3
1771446646357,-0.0113566,1.14425,-0.172712,56.6235,-5.63105,-0.0237791,0,0,3.27626,3
1771446646370,0.00218718,1.17511,-0.166419,63.547,-8.50261,3.30028,0,0,3.31952,3
1771446646384,-0.0277077,1.17917,-0.158009,71.5902,-12.0404,7.50535,0,0,3.29258,1
1771446646397,-0.10259,1.20825,-0.146999,78.0146,-13.5954,8.33038,0,0,3.28446,1
1771446646411,-0.16666,1.32944,-0.118053,87.6689,-9.52122,11.3828,0,0,3.32172,1
1771446646424,-0.160076,1.37496,-0.0982091,96.7818,-3.79111,20.2059,0,0,3.35719,2
1771446646438,-0.140103,1.38687,-0.0836324,105.383,1.27632,29.4488,0,0,3.32998,5
1771446646451,-0.106302,1.4316,-0.0769,113.503,5.01516,32.0124,0,0,3.28056,5
1771446646464,-0.0733163,1.45968,-0.0660097,121.166,6.50226,32.5739,0,0,3.38396,5
1771446646478,-0.0580665,1.47844,-0.0390572,128.4,7.12022,37.1974,0,0,3.28572,5
1771446646491,-0.0500925,1.47303,0.00649014,135.228,6.15177,47.551,0,0,3.28541,5
1771446646505,0.0148783,1.44275,0.0734173,141.673,2.16455,58.9142,0,0,3.30233,4
1771446646518,0.0437172,1.359,0.0349195,147.757,-5.39575,69.6399,0,0,3.30067,1
1771446646531,0.00453227,1.24373,0.041763,153.499,-8.47191,79.764,0,0,3.34224,1
1771446646545,0.00638403,1.14667,0.0190206,150.051,-9.16308,81.0631,0,0,3.31172,5
1771446646558,0.0226967,1.05738,0.0111741,138.706,-10.018,75.5402,0,0,3.36233,5
1771446646572,0.0169636,0.982999,0.00696985,124.727,-9.93736,64.9153,0,0,3.27463,1
1771446646585,0.0202469,0.929856,0.00521298,110.799,-8.82759,49.2985,0,0,3.30071,5
1771446646599,0.0266538,0.885742,0.00681075,97.4971,-8.013,32.5025,0,0,3.2923,1
1771446646612,0.0293959,0.849622,0.00753788,84.3547,-7.68813,16.6485,0,0,3.27409,1
1771446646625,0.040976,0.808857,0.0120449,70.459,-8.7641,1.68384,0,0,3.41759,3
1771446646639,0.0527543,0.767089,0.0145183,53.9232,-11.9463,-12.4414,0,0,3.27967,1
1771446646652,0.0649678,0.737706,0.0141183,36.8678,-16.6637,-25.7744,0,0,3.42132,2
1771446646666,0.0831494,0.724171,0.012604,20.7689,-22.052,-38.3594,0,0,3.28661,3
1771446646679,0.100141,0.720742,0.0156829,5.57315,-27.4759,-50.2386,0,0,3.30135,3
1771446646693,0.114158,0.723783,0.0203355,-8.77027,-32.3695,-58.5196,0,0,3.30159,3
1771446646706,0.124593,0.73551,0.0210584,-22.3091,-36.9903,-61.2244,0,0,3.2845,3
1771446646719,0.136473,0.751444,0.0183651,-35.0886,-40.9734,-59.8091,0,0,3.33495,3
1771446646733,0.152788,0.77393,0.00537963,-47.1512,-43.7269,-56.4114,0,0,3.29978,3
1771446646746,0.165217,0.802235,-0.0133587,-58.5372,-45.389,-52.3471,0,0,3.40319,3
1771446646760,0.17562,0.844099,-0.0320569,-69.2845,-45.8223,-48.2175,0,0,3.28496,3
1771446646773,0.181243,0.892728,-0.051208,-79.429,-44.925,-43.6832,0,0,3.3458,3
1771446646787,0.178164,0.935973,-0.0708562,-89.0044,-41.9345,-37.5086,0,0,3.30365,3
1771446646800,0.173949,0.977669,-0.0908516,-98.0427,-36.2861,-29.1133,0,0,3.28709,3
1771446646814,0.176923,1.02181,-0.10757,-106.574,-28.6616,-19.4141,0,0,3.31089,3
1771446646827,0.18961,1.06556,-0.121155,-114.627,-20.4191,-9.61406,0,0,3.31526,3
1771446646840,0.211309,1.10398,-0.13278,-122.228,-12.6502,0.266961,0,0,3.41009,3
1771446646854,0.2349,1.13937,-0.147238,-129.403,-6.51075,10.564,0,0,3.28395,3
1771446646867,0.21552,1.16488,-0.161309,-136.175,-2.05894,21.7157,0,0,3.38974,5
1771446646881,0.21139,1.19929,-0.186776,-142.567,2.12946,34.528,0,0,3.2975,3
1771446646894,0.221994,1.23238,-0.220034,-147.148,6.14587,46.6216,0,0,3.30846,3
1771446646908,0.238679,1.25604,-0.259622,-149.449,8.71494,56.4034,0,0,3.29661,5
1771446646921,0.259588,1.29217,-0.31077,-149.009,7.91266,60.3389,0,0,3.28619,5
1771446646934,0.286128,1.30025,-0.368437,-145.693,2.11992,56.8169,0,0,3.34404,3
1771446646948,0.255251,1.30605,-0.423123,-138.318,-5.03795,52.294,0,0,3.27948,5
1771446646961,0.208619,1.32371,-0.483617,-128.423,-10.6553,48.2915,0,0,3.37954,5
1771446646975,0.145492,1.33372,-0.538294,-118.37,-12.9256,44.6184,0,0,3.2875,1
1771446646988,0.106458,1.33958,-0.564839,-107.715,-11.8272,38.4367,0,0,3.32409,5
1771446647002,0.122302,1.39134,-0.523534,-98.2435,-13.9419,24.4272,0,0,3.29217,5
1771446647015,0.121758,1.35342,-0.447767,-91.6002,-13.7358,9.66935,0,0,3.27096,3
1771446647028,0.0725725,1.37275,-0.402774,-80.5193,-10.3427,-4.90384,0,0,3.32945,5
1771446647042,0.0325528,1.42727,-0.376351,-61.9724,-5.90669,-15.8768,0,0,3.50713,2
1771446647055,0.0590172,1.45211,-0.365327,-44.4659,-6.23735,-17.2385,0,0,3.37621,2
1771446647069,0.0332033,1.39402,-0.379769,-32.1726,-5.89904,-11.1599,0,0,3.50487,2
1771446647083,0.0118389,1.35707,-0.376869,-26.0095,-3.88752,-6.27941,0,0,3.36006,2
1771446647098,0.012549,1.34755,-0.364178,-16.4283,-0.309907,-4.26625,0,0,5.00085,2
1771446647111,0.0288376,1.32659,-0.353398,-5.00036,1.57437,-4.1888,0,0,3.29226,5
1771446647124,0.0332993,1.299,-0.351823,4.18683,2.75777,-4.00736,0,0,3.29645,5
1771446647138,0.0326972,1.26995,-0.359221,8.87826,4.87889,-2.3944,0,0,3.29435,5
1771446647151,0.0426702,1.24074,-0.349811,9.19339,5.06981,-0.170969,0,0,3.33039,5
1771446647166,0.0667436,1.11128,-0.340279,8.98857,5.74928,1.1797,0,0,4.25391,5
1771446647180,0.177251,1.11559,-0.326988,10.1757,5.39467,1.24455,0,0,4.13937,3
1771446647194,0.291103,1.10605,-0.319436,11.7249,4.91395,0.968358,0,0,3.8718,3
1771446647208,0.280786,1.09564,-0.316154,11.1464,4.43706,1.42701,0,0,3.66533,5
1771446647221,0.266285,1.0898,-0.306513,9.72562,4.44081,2.59641,0,0,3.29815,5
1771446647235,0.259317,1.09338,-0.294571,9.48967,4.18957,3.89933,0,0,3.27526,5
1771446647248,0.250229,1.08798,-0.286365,9.97817,3.41034,4.40895,0,0,3.31019,5
1771446647262,0.240407,1.08362,-0.280525,10.0667,2.99725,4.76667,0,0,3.2892,5
1771446647275,0.236054,1.08466,-0.273126,10.1028,2.91391,5.80826,0,0,3.37571,5
1771446647288,0.231998,1.07962,-0.266787,10.306,2.96369,6.65398,0,0,3.29074,5
1771446647302,0.226347,1.07426,-0.260287,10.7727,3.01069,6.73847,0,0,3.38065,5
1771446647315,0.223185,1.07042,-0.255641,11.298,2.94244,6.68249,0,0,3.29241,3
1771446647329,0.216788,1.06614,-0.251498,11.2817,2.89129,6.89427,0,0,3.28504,5
1771446647342,0.214066,1.06355,-0.247097,11.0942,2.70085,7.17681,0,0,3.301,5
1771446647356,0.212659,1.05887,-0.242452,11.0161,2.25262,7.03886,0,0,3.27967,5
1771446647369,0.212658,1.05346,-0.238308,10.6504,1.64841,6.33745,0,0,3.32146,5
1771446647383,0.212903,1.0519,-0.233449,10.1772,0.936358,5.28317,0,0,3.28972,3
1771446647396,0.209646,1.0513,-0.228909,10.079,0.271529,4.1707,0,0,3.39476,5
1771446647409,0.207151,1.04946,-0.22524,10.1577,-0.332887,2.9819,0,0,3.27485,5
1771446647423,0.201199,1.04795,-0.221625,10.3051,-0.771089,1.78143,0,0,3.27613,5
1771446647436,0.195453,1.04876,-0.217677,10.7303,-1.05754,0.825985,0,0,3.29178,5
1771446647450,0.189372,1.04915,-0.21308,11.5033,-1.21488,0.097553,0,0,3.28197,5
1771446647463,0.185318,1.04985,-0.210029,12.695,-1.29446,-0.485971,0,0,3.3422,5
1771446647477,0.181025,1.04863,-0.208125,14.0994,-1.38413,-1.02991,0,0,3.29215,3
1771446647490,0.176899,1.04727,-0.208323,15.5407,-1.46835,-1.55448,0,0,3.34872,3
1771446647503,0.172921,1.04235,-0.209473,16.5628,-1.62277,-2.08301,0,0,3.27913,3
1771446647517,0.166384,1.03435,-0.211523,16.7017,-1.77753,-2.75575,0,0,3.29917,3
1771446647530,0.161851,1.02905,-0.212127,16.0166,-1.96385,-3.60441,0,0,3.29082,3
1771446647544,0.156663,1.02828,-0.211787,15.3032,-2.27588,-4.44658,0,0,3.31332,3
1771446647557,0.150292,1.02916,-0.21097,14.98,-2.56828,-5.10791,0,0,3.32472,3
1771446647571,0.143389,1.02846,-0.210862,14.7825,-2.81943,-5.48123,0,0,3.30887,3
1771446647584,0.136926,1.02861,-0.210727,14.4641,-2.98242,-5.61224,0,0,3.34161,5
1771446647598,0.131226,1.03022,-0.210127,14.218,-3.0425,-5.47813,0,0,3.28106,3
1771446647611,0.126234,1.03195,-0.209394,14.2118,-3.01357,-5.2522,0,0,3.30443,3
1771446647624,0.124088,1.03366,-0.209248,14.3467,-2.95243,-5.1066,0,0,3.29563,3
1771446647638,0.121853,1.03475,-0.208339,14.5667,-2.91528,-5.15415,0,0,3.29178,3
1771446647651,0.114998,1.03829,-0.207097,14.99,-2.79971,-5.35617,0,0,3.32309,3
1771446647665,0.109477,1.05026,-0.206774,15.8885,-2.59942,-4.82279,0,0,3.29908,3
1771446647678,0.111,1.06241,-0.204447,17.1455,-2.71609,-3.36919,0,0,3.34348,3
1771446647692,0.101907,1.07166,-0.200481,18.8895,-2.73459,-2.34267,0,0,3.28722,3
1771446647705,0.0964571,1.07958,-0.19796,21.401,-2.61545,-1.96121,0,0,3.43704,3
1771446647720,0.0906319,1.03453,-0.196285,24.2598,-2.56551,-1.69791,0,0,4.52852,5
1771446647734,0.0877841,0.991217,-0.193008,27.2202,-2.34625,-1.36117,0,0,4.45354,5
1771446647749,0.0934902,0.831672,-0.188976,30.74,-2.36408,-0.860915,0,0,4.37348,5
1771446647763,0.0897379,0.847511,-0.185666,35.0429,-2.21863,-0.90811,0,0,4.08395,5
1771446647777,-0.035839,0.865049,-0.181753,39.7492,-1.99784,-1.07512,0,0,3.82458,5
1771446647791,-0.0290827,0.887959,-0.178524,44.6853,-2.00866,-1.08718,0,0,3.55906,5
1771446647805,-0.0282966,0.917405,-0.1733,50.2681,-2.52628,-0.99408,0,0,4.14898,1
1771446647819,0.0590286,0.948681,-0.167419,57.1935,-3.43021,-0.602193,0,0,3.81243,3
1771446647832,0.0728255,0.976133,-0.161315,65.4997,-4.88589,-0.507612,0,0,3.61415,5
1771446647846,0.0794207,0.995968,-0.161296,74.503,-6.39008,-1.589,0,0,3.27939,5
1771446647859,0.0819478,1.01757,-0.156548,83.8354,-7.60695,-4.46934,0,0,3.30126,5
1771446647873,0.0813429,1.03886,-0.153204,93.1632,-8.64165,-7.65184,0,0,3.28878,5
1771446647886,0.0835831,1.06638,-0.153337,101.968,-9.83584,-9.5661,0,0,3.27663,5
1771446647900,0.0868037,1.09796,-0.156956,110.279,-11.1309,-9.16182,0,0,3.30387,2
1771446647913,0.0824524,1.13501,-0.157833,118.123,-12.0287,-7.99493,0,0,3.2912,3
1771446647926,0.0811527,1.15474,-0.155116,125.528,-12.9747,-6.93845,0,0,3.33617,3
1771446647940,-0.0768482,1.17426,-0.151386,132.517,-14.1476,-6.32103,0,0,3.73956,2
1771446647954,-0.0698146,1.16966,-0.146399,139.114,-15.4209,-5.45693,0,0,3.66285,2
1771446647968,-0.0637558,1.17224,-0.124248,145.341,-17.3032,-4.7706,0,0,4.00539,2
1771446647982,-0.0390213,1.16479,-0.0956453,151.219,-19.6292,-2.28458,0,0,3.76915,2
1771446647996,-0.0255275,1.13476,-0.0678239,156.767,-22.4302,1.35384,0,0,3.55732,2
1771446648010,-0.00678892,1.09066,-0.10085,162.004,-25.0103,4.10779,0,0,3.83556,2
1771446648023,-0.025625,1.00605,-0.115786,166.947,-25.986,4.05806,0,0,3.58308,2
1771446648038,-0.124408,1.02898,-0.145999,164.108,-24.5785,3.42537,0,0,4.34535,1
1771446648052,-0.11838,0.922484,-0.167747,152.475,-20.7527,3.4135,0,0,4.30361,1
1771446648066,-0.234898,0.829729,-0.184189,133.311,-15.6194,3.46524,0,0,3.75663,2
1771446648080,-0.238655,0.74734,-0.179038,111.802,-9.21021,2.87351,0,0,3.68215,1
1771446648095,-0.148937,0.680459,-0.279856,91.5004,-2.23012,1.49799,0,0,4.89167,5
1771446648110,-0.0591757,0.625861,-0.250139,72.3371,4.62478,-0.862273,0,0,4.77367,3
1771446648125,-0.141202,0.608025,-0.325982,67.168,10.1891,-4.80931,0,0,5.47119,5
1771446648141,-0.309957,0.632021,-0.377383,49.3696,13.3364,-9.9484,0,0,5.26952,5
1771446648156,-0.304516,0.490918,-0.447661,32.5695,14.9104,-15.0146,0,0,4.8331,2
1771446648171,-0.255714,0.419801,-0.430134,16.7118,17.3377,-17.6527,0,0,4.69145,2
1771446648185,-0.0792211,0.364511,-0.423836,1.74356,22.6655,-19.0989,0,0,4.45045,5
1771446648199,-0.133983,0.368258,-0.401927,-12.385,29.7527,-23.4283,0,0,4.07102,2
1771446648213,-0.253801,0.421233,-0.368932,-25.7212,38.4575,-30.3268,0,0,3.99867,5
1771446648227,-0.264632,0.48733,-0.341555,-38.3092,49.3382,-36.8948,0,0,3.52361,5
1771446648241,-0.277029,0.535738,-0.328177,-50.1912,60.6011,-41.1093,0,0,3.54478,5
1771446648254,-0.280758,0.579455,-0.318907,-61.4066,71.2322,-42.2572,0,0,3.30869,2
1771446648267,-0.263376,0.636967,-0.298501,-71.993,81.267,-41.8754,0,0,3.40663,2
1771446648281,-0.219155,0.697131,-0.278314,-81.9855,90.7389,-42.4728,0,0,3.29687,5
1771446648294,-0.156517,0.745482,-0.266282,-91.0519,99.6795,-44.159,0,0,3.29937,3
1771446648308,-0.0879385,0.797302,-0.262666,-98.4404,108.119,-45.5148,0,0,3.29765,3
1771446648321,-0.0204692,0.863395,-0.270835,-103.765,116.084,-44.537,0,0,3.29239,2
1771446648335,0.045192,0.933665,-0.288288,-105.143,123.603,-40.7551,0,0,3.3175,2
1771446648348,0.101106,0.973305,-0.309857,-103.092,130.7,-35.7539,0,0,3.28795,3
1771446648362,0.158973,0.99588,-0.331711,-99.2044,137.4,-31.5964,0,0,3.39789,3
1771446648375,0.224613,1.03077,-0.341985,-95.1739,143.723,-26.9719,0,0,3.28435,3
1771446648389,0.304583,1.06999,-0.376656,-89.4226,146.477,-18.2612,0,0,3.30956,3
1771446648404,0.37766,1.08049,-0.429605,-80.9512,147.028,-6.22989,0,0,4.85032,3
1771446648417,0.402965,1.0917,-0.415718,-69.7543,148.014,6.35713,0,0,3.28626,3
1771446648431,0.460732,1.07481,-0.417023,-60.5364,145.545,17.86,0,0,4.46943,3
1771446648445,0.435629,1.08483,-0.391098,-58.5285,135.947,16.6244,0,0,3.281,3
1771446648458,0.451374,1.08061,-0.385023,-56.5536,124.655,12.0146,0,0,3.34834,3
1771446648472,0.427481,1.08794,-0.366317,-50.4518,115.473,5.52766,0,0,3.29256,5
1771446648485,0.39623,1.09555,-0.351332,-41.6422,109.04,-0.9136,0,0,3.39356,5
1771446648500,0.367328,1.01034,-0.346442,-34.6289,101.547,-3.01099,0,0,4.58619,5
1771446648518,0.336498,0.989856,-0.343505,-31.9697,94.9666,-0.557297,0,0,7.37558,5
1771446648532,0.183714,0.939702,-0.335968,-31.139,89.8966,2.16897,0,0,4.53206,5
1771446648546,0.203151,0.946631,-0.32277,-29.3439,84.685,4.02424,0,0,4.08132,5
1771446648560,0.233883,0.95661,-0.311782,-25.7959,79.5207,4.91565,0,0,3.72772,3
1771446648574,0.229591,0.953361,-0.304361,-22.8538,74.9519,5.78575,0,0,3.50817,2
1771446648587,0.225028,0.95271,-0.29814,-21.6832,70.8046,6.78259,0,0,3.28948,2
1771446648602,0.222746,0.955899,-0.289266,-21.3211,67.0197,7.22554,0,0,5.02246,2
1771446648616,0.221365,0.960561,-0.27826,-20.2875,63.3023,7.01678,0,0,3.29158,5
1771446648629,0.215592,0.963279,-0.268856,-18.377,59.6505,6.09995,0,0,3.30563,2
1771446648643,0.212495,0.965077,-0.261764,-16.6564,56.1804,5.13221,0,0,3.29956,1
1771446648656,0.205604,0.968814,-0.255014,-15.7264,53.0484,4.56644,0,0,3.45728,2
1771446648670,0.200157,0.972933,-0.247855,-14.8768,50.1708,4.39765,0,0,3.33763,3
1771446648683,0.19529,0.974586,-0.240614,-13.678,47.4423,3.95315,0,0,3.31206,5
1771446648696,0.192056,0.977321,-0.234148,-12.0501,44.874,3.14265,0,0,3.30972,5
1771446648710,0.186198,0.979839,-0.228617,-10.1975,42.4434,2.37505,0,0,3.66874,5
1771446648724,0.1786,0.981671,-0.225367,-8.48138,40.338,2.08425,0,0,3.30917,5
1771446648737,0.174131,0.982622,-0.221917,-7.0936,38.4196,2.11464,0,0,3.29393,5
1771446648750,0.17147,0.982197,-0.218277,-5.93653,36.5639,2.01015,0,0,3.28887,5
1771446648765,0.166576,0.981545,-0.214656,-4.84222,34.7334,1.66447,0,0,4.31735,5
1771446648778,0.162719,0.981733,-0.211205,-3.89536,32.9179,1.3022,0,0,3.30593,5
1771446648792,0.159532,0.9825,-0.208845,-3.2825,31.1506,1.06944,0,0,3.80284,5
1771446648806,0.154103,0.982101,-0.206246,-2.91511,29.4444,0.955504,0,0,3.37911,5
1771446648819,0.151304,0.983012,-0.202767,-2.67195,27.795,0.826547,0,0,3.27667,5
1771446648833,0.148231,0.985282,-0.199035,-2.36365,26.1669,0.664145,0,0,3.30059,5
1771446648846,0.144023,0.987004,-0.196075,-1.86882,24.6636,0.560095,0,0,3.29583,5
1771446648860,0.139369,0.987732,-0.194045,-1.39062,23.2947,0.569355,0,0,3.36252,5
1771446648874,0.136552,0.989155,-0.191485,-1.06555,22.0776,0.602503,0,0,3.34043,5
1771446648888,0.133089,0.990729,-0.188492,-0.613133,20.9959,0.616236,0,0,4.04322,5
1771446648901,0.13124,0.992619,-0.18627,0.0986502,19.9895,0.579529,0,0,3.3602,5
1771446648915,0.127434,0.993005,-0.184402,0.856145,19.0575,0.507629,0,0,3.2988,5
1771446648928,0.124797,0.993952,-0.183193,1.52191,18.2013,0.518548,0,0,3.31959,5
1771446648942,0.12298,0.994377,-0.182409,2.06469,17.3974,0.637185,0,0,3.29241,5
1771446648955,0.120719,0.994003,-0.181308,2.54962,16.6181,0.728615,0,0,3.33904,5
1771446648969,0.119753,0.993785,-0.181045,2.94441,15.8423,0.74812,0,0,3.34191,5
1771446648982,0.117783,0.993053,-0.180516,3.17018,15.023,0.706584,0,0,3.47715,5
1771446648996,0.115526,0.992727,-0.180234,3.18248,14.2467,0.641687,0,0,3.27895,5
1771446649009,0.114926,0.993696,-0.17974,3.13113,13.4899,0.572295,0,0,3.26759,5
1771446649023,0.112921,0.993214,-0.179343,3.12035,12.7675,0.445564,0,0,3.29458,5
1771446649036,0.111966,0.993329,-0.179187,3.11703,12.0646,0.25572,0,0,3.28256,5
1771446649050,0.110251,0.993632,-0.178163,3.10147,11.384,0.0701013,0,0,3.34437,5
1771446649063,0.107746,0.99454,-0.17745,3.10177,10.7737,-0.0477284,0,0,3.26715,5
1771446649077,0.105063,0.99479,-0.17695,3.08236,10.2045,-0.0497613,0,0,3.97935,5
1771446649090,0.102945,0.995231,-0.176579,3.02122,9.66125,0.0275344,0,0,3.27784,5
1771446649104,0.100835,0.995642,-0.176213,2.99306,9.14716,0.136034,0,0,3.27596,5
1771446649117,0.0993076,0.996484,-0.175745,2.93521,8.64948,0.258144,0,0,3.30854,5
1771446649131,0.0974417,0.997001,-0.175523,2.87505,8.16303,0.402949,0,0,3.28972,5
1771446649144,0.0972803,0.997132,-0.175128,2.83667,7.71242,0.591015,0,0,3.32841,5
1771446649157,0.0956204,0.996371,-0.174858,2.78888,7.27082,0.718433,0,0,3.28261,5
1771446649172,0.0946311,0.9959,-0.174076,2.76733,6.83002,0.830569,0,0,4.0205,5
1771446649185,0.09124,0.996966,-0.173927,2.76625,6.4529,0.881607,0,0,3.29841,5
1771446649198,0.0912964,0.998903,-0.175001,2.74382,6.10164,1.05695,0,0,3.30811,5
1771446649212,0.0922151,0.998193,-0.174714,2.65414,5.74997,1.28412,0,0,3.30098,5
1771446649225,0.0925172,0.996724,-0.172583,2.6213,5.35208,1.36453,0,0,3.28187,5
1771446649239,0.0933825,0.996963,-0.172178,2.66481,4.90671,1.19678,0,0,3.32171,5
1771446649252,0.0934093,0.995612,-0.170574,2.75255,4.53,1.07313,0,0,3.27741,5
1771446649265,0.0927622,0.995537,-0.170354,2.74031,4.11148,0.909317,0,0,3.34567,5
1771446649279,0.0889831,0.998081,-0.170826,2.74546,3.877,0.609963,0,0,3.28076,5
1771446649293,0.0909853,1.00127,-0.173135,2.80855,3.51352,0.371504,0,0,4.0686,5
1771446649306,0.0863977,1.00096,-0.174084,2.82913,3.20254,0.0663499,0,0,3.27085,5
1771446649320,0.0863028,1.00522,-0.174158,2.90594,2.8876,-0.276924,0,0,3.27733,5
1771446649333,0.0845892,1.00702,-0.175542,3.00713,2.62158,-0.551701,0,0,3.30054,5
1771446649347,0.0864312,1.00739,-0.174944,3.10779,2.28184,-0.928816,0,0,3.27032,5
1771446649360,0.085374,1.0075,-0.175408,3.34238,1.91834,-1.40167,0,0,3.33339,3
1771446649373,0.0845017,1.00868,-0.176481,3.60749,1.57224,-1.84244,0,0,3.29119,5
1771446649387,0.0838599,1.01109,-0.175607,3.81063,1.16505,-2.39293,0,0,3.77026,3
1771446649401,0.086353,1.01484,-0.174782,4.23017,0.743877,-3.08768,0,0,3.28489,5
1771446649415,0.0866231,1.01787,-0.171324,4.79702,0.245277,-4.19562,0,0,3.69058,5
1771446649428,0.0844684,1.01967,-0.172319,5.44983,0.0148561,-5.7411,0,0,3.29822,5
1771446649441,0.0742508,1.02379,-0.169737,6.1538,0.10908,-7.63793,0,0,3.26758,5
1771446649455,0.0768439,1.03854,-0.165645,7.46013,0.344459,-9.51914,0,0,3.33989,5
1771446649468,0.0760885,1.05583,-0.165171,9.31363,0.429186,-12.4813,0,0,3.27802,3
1771446649482,0.0901856,1.08279,-0.155427,12.4436,-0.915843,-14.4069,0,0,3.36133,3
1771446649495,0.0910889,1.0989,-0.153456,16.2365,-1.73497,-15.6116,0,0,3.2838,3
1771446649509,0.0902871,1.10239,-0.152756,18.9953,-2.72311,-17.24,0,0,3.79152,3
1771446649522,0.0912393,1.11364,-0.149418,22.2874,-3.77399,-19.686,0,0,3.2833,3
1771446649536,0.0917228,1.11544,-0.150293,26.25,-4.92351,-22.1978,0,0,3.27161,3
1771446649549,0.0973954,1.1174,-0.15097,29.9552,-5.65272,-24.4227,0,0,3.32574,3
1771446649563,0.102137,1.12352,-0.15261,33.8457,-6.6947,-26.6102,0,0,3.27354,5
1771446649576,0.108891,1.13552,-0.157179,38.1876,-7.69109,-28.9429,0,0,3.33174,3
1771446649590,0.119579,1.14335,-0.162584,43.0117,-8.72579,-31.764,0,0,3.27108,3
1771446649603,0.134924,1.13745,-0.179197,47.993,-9.77909,-35.4777,0,0,3.43448,3
1771446649617,0.137533,1.12383,-0.189757,51.6274,-10.8534,-41.2378,0,0,3.27548,3
1771446649630,0.140593,1.11112,-0.202855,54.992,-12.4874,-47.7436,0,0,3.26726,3
1771446649643,0.132288,1.09373,-0.212422,58.3306,-14.5137,-52.1871,0,0,3.29621,3
1771446649657,0.107327,1.07296,-0.235163,60.417,-15.4444,-56.4542,0,0,3.27602,2
1771446649670,0.0521317,1.05686,-0.253685,62.0105,-13.4194,-63.2172,0,0,3.53958,2
1771446649684,-0.0155014,1.0433,-0.271323,66.1192,-7.62525,-68.282,0,0,3.45472,2
1771446649698,0.00281475,1.0156,-0.29121,69.332,0.836105,-69.6844,0,0,4.07502,2
1771446649712,-0.0340796,0.984424,-0.30884,68.4181,10.7642,-67.3393,0,0,3.43504,2
1771446649726,-0.0527365,0.964744,-0.316345,65.1464,20.6895,-63.244,0,0,3.80232,2
1771446649739,-0.0549572,0.954851,-0.319434,62.2805,29.3405,-59.6314,0,0,3.2935,2
1771446649753,-0.0461476,0.952096,-0.323423,61.208,36.1604,-57.7954,0,0,3.27156,2
1771446649766,-0.030431,0.943332,-0.330942,61.9987,40.73,-57.8647,0,0,3.33771,2
1771446649779,-0.016747,0.92483,-0.344592,63.0406,43.0235,-59.2866,0,0,3.2952,2
1771446649793,-0.0104413,0.908163,-0.359193,63.2584,43.5026,-60.356,0,0,3.3592,2
1771446649806,-0.00961098,0.894957,-0.373914,62.2766,42.7838,-59.689,0,0,3.40293,2
1771446649820,-0.0133653,0.881379,-0.386774,59.8868,41.4261,-57.4332,0,0,3.6818,5
1771446649834,-0.0173292,0.872003,-0.397256,57.0765,39.7486,-54.7923,0,0,3.29296,5
1771446649847,-0.0227746,0.865248,-0.405678,54.8161,38.076,-52.6377,0,0,3.28837,5
1771446649860,-0.0299251,0.857058,-0.414672,52.9073,36.7474,-51.1949,0,0,3.29172,5
1771446649874,-0.0362504,0.849984,-0.42308,50.7956,35.8572,-50.1054,0,0,3.29517,5
1771446649887,-0.0413167,0.843871,-0.430191,48.3467,35.3184,-48.8984,0,0,3.41474,5
1771446649901,-0.0427343,0.838261,-0.435241,45.9213,34.8416,-47.2826,0,0,3.30085,5
1771446649915,-0.0408974,0.831518,-0.439247,43.7441,33.9692,-45.1626,0,0,3.97313,5
1771446649928,-0.036792,0.825124,-0.442748,41.7202,32.4578,-42.2466,0,0,3.329,5
1771446649942,-0.0319692,0.817877,-0.447013,39.55,30.1661,-38.3015,0,0,3.29226,5
1771446649955,-0.02724,0.811204,-0.451594,37.1072,27.0516,-33.5309,0,0,3.29058,5
1771446649969,-0.0241375,0.803306,-0.456572,34.5137,23.2143,-28.4404,0,0,3.2715,5
1771446649982,-0.0247262,0.792594,-0.462465,31.667,18.9791,-23.6324,0,0,3.3686,5
1771446649996,-0.0303072,0.779712,-0.470331,28.3364,14.7176,-19.5292,0,0,3.33761,5
1771446650009,-0.0398936,0.766807,-0.478547,24.2407,10.852,-16.3759,0,0,3.41506,5
1771446650023,-0.0502031,0.758321,-0.486991,19.5703,7.52813,-14.3239,0,0,3.65828,1
