timestamp,ax,ay,az,gx,gy,gz,roll,pitch,delay_ms,classe_prevista
1777253768784,0.0631155,0.775607,-0.125667,-0.0155644,-0.00740041,-0.00205567,0,0,3.28581,-1
1777253768798,0.065827,0.877358,-0.141978,-0.017997,-0.0078348,0.00130275,0,0,3.33427,-1
1777253768812,0.0714429,0.915383,-0.148569,-0.0190742,-0.00840241,0.00232626,0,0,3.97699,-1
1777253768825,0.0744575,0.936773,-0.153086,-0.0188965,-0.00888707,0.0026777,0,0,3.27112,-1
1777253768839,0.076343,0.951329,-0.153413,-0.0180489,-0.00921968,0.00194002,0,0,3.2727,-1
1777253768852,0.0787186,0.961118,-0.153158,-0.0162897,-0.00917236,0.00110811,0,0,3.27573,-1
1777253768866,0.0799289,0.968795,-0.153811,-0.0144243,-0.00922537,-3.60902e-05,0,0,3.2702,-1
1777253768879,0.0802605,0.97357,-0.154686,-0.012598,-0.00951987,-0.000871568,0,0,3.28201,-1
1777253768892,0.0806077,0.977119,-0.155519,-0.0108435,-0.00961989,-0.00149691,0,0,3.2749,-1
1777253768906,0.0804991,0.980549,-0.156821,-0.00919022,-0.00973371,-0.00193976,0,0,3.25894,-1
1777253768919,0.0811106,0.982307,-0.157103,-0.00805258,-0.00991139,-0.00204255,0,0,3.25899,-1
1777253768933,0.0811734,0.984314,-0.157568,-0.00716965,-0.00994799,-0.0023918,0,0,3.25357,-1
1777253768946,0.0816989,0.985863,-0.158846,-0.00657371,-0.0101201,-0.0028453,0,0,3.25777,-1
1777253768959,0.081747,0.987125,-0.159485,-0.0062287,-0.0102631,-0.00362135,0,0,3.24273,-1
1777253768973,0.0817697,0.988212,-0.160105,-0.00600546,-0.0104922,-0.00447267,0,0,3.26718,-1
1777253768986,0.0815272,0.989249,-0.160446,-0.00608952,-0.0107418,-0.00536672,0,0,3.25118,-1
1777253768999,0.0819633,0.990192,-0.161258,-0.00627213,-0.011038,-0.00594863,0,0,3.27931,-1
1777253769013,0.0811422,0.991267,-0.161355,-0.00629869,-0.0114084,-0.00619079,0,0,3.25079,-1
1777253769026,0.0804351,0.992341,-0.161715,-0.0063708,-0.0115931,-0.00611541,0,0,3.25162,-1
1777253769040,0.0802438,0.992831,-0.161676,-0.00640494,-0.011886,-0.00591654,0,0,3.24614,-1
1777253769053,0.0798897,0.993653,-0.16195,-0.00635436,-0.0121071,-0.00550034,0,0,3.24279,-1
1777253769066,0.0797579,0.994422,-0.161271,-0.00625798,-0.0124897,-0.00491401,0,0,3.25227,-1
1777253769080,0.0791329,0.995491,-0.161058,-0.00604142,-0.0128314,-0.00402093,0,0,3.25614,-1
1777253769093,0.078526,0.996056,-0.161295,-0.00581766,-0.0130637,-0.00304292,0,0,3.28445,-1
1777253769106,0.0785468,0.997038,-0.161086,-0.00541,-0.013154,-0.00247427,0,0,3.25321,-1
1777253769120,0.0784451,0.99766,-0.160877,-0.00517901,-0.0132281,-0.00208947,0,0,3.25827,-1
1777253769133,0.0783956,0.998312,-0.161177,-0.00471215,-0.0132034,-0.00195681,0,0,3.25494,-1
1777253769146,0.0784532,0.99871,-0.161204,-0.00432438,-0.013097,-0.00199555,0,0,3.23958,-1
1777253769160,0.0780223,0.998935,-0.161464,-0.00379334,-0.012998,-0.00174695,0,0,3.24921,-1
1777253769174,0.0778098,0.998809,-0.161721,-0.00344386,-0.0126641,-0.00139203,0,0,3.5361,0
1777253769187,0.0775969,0.998995,-0.162251,-0.00306315,-0.0122707,-0.000807095,0,0,3.47218,0
1777253769201,0.0772539,0.999213,-0.162645,-0.00276115,-0.011885,-0.000314146,0,0,3.37832,0
1777253769214,0.0779633,1.00015,-0.162499,-0.00233082,-0.011515,0.000200955,0,0,3.44186,0
1777253769228,0.0782718,1.00094,-0.162206,-0.00176289,-0.0113063,0.000616741,0,0,3.45675,0
1777253769241,0.0783058,1.00158,-0.162867,-0.00108847,-0.0112039,0.00102877,0,0,3.38779,0
1777253769255,0.0778715,1.00196,-0.163162,-0.000376134,-0.0110193,0.00160092,0,0,3.44547,0
1777253769268,0.0780129,1.00165,-0.163524,0.000301511,-0.0108461,0.00214694,0,0,3.36594,0
1777253769282,0.077921,1.00211,-0.16392,0.00102154,-0.0107448,0.00276086,0,0,3.48732,0
1777253769295,0.0781007,1.00267,-0.164054,0.00169834,-0.0105926,0.00325476,0,0,3.36927,0
1777253769309,0.0778787,1.00306,-0.163845,0.00247891,-0.0103317,0.00392445,0,0,3.50194,0
1777253769323,0.0778091,1.00389,-0.163871,0.0033309,-0.0100121,0.00499023,0,0,3.46393,0
1777253769336,0.0776463,1.00381,-0.164007,0.00421101,-0.00972435,0.00618027,0,0,3.43734,0
1777253769350,0.0776457,1.00384,-0.164497,0.00485287,-0.00927112,0.00742652,0,0,3.45218,0
1777253769363,0.0781721,1.00411,-0.164569,0.00540962,-0.00895703,0.00853507,0,0,3.36914,0
1777253769377,0.0785156,1.00425,-0.165122,0.00594704,-0.00886898,0.00946237,0,0,3.47923,0
1777253769390,0.0791296,1.0042,-0.165477,0.00646202,-0.00874279,0.0102625,0,0,3.37903,5
1777253769404,0.0797773,1.00461,-0.165853,0.00701209,-0.00880961,0.0108092,0,0,3.52603,5
1777253769418,0.0800842,1.00424,-0.166,0.00740109,-0.00888985,0.0112079,0,0,3.44092,5
1777253769431,0.0800425,1.004,-0.166787,0.00773329,-0.0087844,0.0116571,0,0,3.60119,5
1777253769445,0.0800169,1.00398,-0.167349,0.00798186,-0.00871083,0.0120978,0,0,3.46777,5
1777253769458,0.0798138,1.00376,-0.167536,0.0080268,-0.00854674,0.0123799,0,0,3.36588,5
1777253769472,0.080214,1.0036,-0.168262,0.00797021,-0.0085426,0.0125943,0,0,3.47023,5
1777253769486,0.0802476,1.00339,-0.168755,0.00786953,-0.00843547,0.0126589,0,0,3.38382,5
1777253769503,0.080788,1.00307,-0.169026,0.00762412,-0.00836023,0.0125607,0,0,6.963,5
1777253769516,0.0810504,1.00275,-0.169187,0.00740552,-0.00826347,0.0124252,0,0,3.44588,5
1777253769530,0.0813528,1.00257,-0.169572,0.00701031,-0.00832682,0.0119752,0,0,3.48353,5
1777253769543,0.0810752,1.00315,-0.169687,0.00667611,-0.00833506,0.0114863,0,0,3.37092,5
1777253769557,0.0810328,1.00343,-0.169838,0.00633934,-0.00842438,0.0110249,0,0,3.40571,5
1777253769570,0.0810889,1.00355,-0.169911,0.00614175,-0.00843571,0.0105897,0,0,3.45923,5
1777253769584,0.0813614,1.0038,-0.169953,0.00586951,-0.00856653,0.0102133,0,0,3.42382,4
1777253769598,0.0812756,1.00366,-0.170363,0.00556973,-0.00865995,0.0100126,0,0,3.46193,4
1777253769611,0.0814415,1.00338,-0.170571,0.00522251,-0.00866233,0.00978891,0,0,3.68382,4
1777253769625,0.0818586,1.00306,-0.17074,0.00465046,-0.00874604,0.0096507,0,0,3.4601,4
1777253769639,0.0819917,1.00279,-0.170955,0.00393056,-0.00878645,0.00949883,0,0,3.40443,4
1777253769652,0.0822407,1.00208,-0.171733,0.0029254,-0.00885888,0.0090726,0,0,3.48104,4
1777253769666,0.0824483,1.0015,-0.171796,0.00156963,-0.00889724,0.0084989,0,0,3.39234,4
1777253769679,0.0831787,1.00137,-0.171691,0.000157264,-0.00916486,0.00760606,0,0,3.50006,4
1777253769693,0.0834569,1.00131,-0.171742,-0.00122282,-0.00939172,0.00679771,0,0,3.45453,4
1777253769706,0.0832261,1.00122,-0.171626,-0.00251247,-0.00964439,0.00605194,0,0,3.38914,4
1777253769720,0.0828302,1.00137,-0.171407,-0.00365252,-0.00989999,0.00524525,0,0,3.48117,4
1777253769734,0.0828539,1.00141,-0.171543,-0.0048656,-0.0101498,0.00425254,0,0,3.41279,4
1777253769747,0.0825337,1.00234,-0.171041,-0.00567639,-0.0102699,0.00296004,0,0,3.47253,4
1777253769761,0.0831905,1.00285,-0.170855,-0.00591473,-0.0104518,0.0011704,0,0,3.42277,4
1777253769774,0.0832351,1.00382,-0.169981,-0.00570705,-0.0105293,-0.000557284,0,0,3.46214,4
1777253769788,0.082962,1.00411,-0.169909,-0.00490708,-0.0106238,-0.00247493,0,0,3.4666,4
1777253769802,0.0818413,1.00432,-0.169718,-0.00411348,-0.0106059,-0.00370668,0,0,3.77301,4
1777253769815,0.0811671,1.00445,-0.169866,-0.00346723,-0.0106662,-0.0041583,0,0,3.47499,4
1777253769829,0.0803937,1.00429,-0.169979,-0.00312708,-0.0105603,-0.00419482,0,0,3.38951,5
1777253769842,0.0795541,1.00464,-0.170318,-0.00306727,-0.0105716,-0.00371535,0,0,3.46236,5
1777253769856,0.0789261,1.0042,-0.170419,-0.00319069,-0.0105738,-0.00292874,0,0,3.38051,5
1777253769870,0.0789496,1.00401,-0.170172,-0.00343567,-0.0106701,-0.00216487,0,0,3.50716,5
1777253769883,0.0784514,1.00418,-0.169624,-0.00375682,-0.0107396,-0.00128969,0,0,3.40529,5
1777253769897,0.0784331,1.00415,-0.170079,-0.00396575,-0.0108266,-0.000669187,0,0,3.52292,5
1777253769910,0.0782514,1.00389,-0.170235,-0.00421005,-0.0108444,3.21234e-05,0,0,3.45882,5
1777253769924,0.0782032,1.00396,-0.170012,-0.00456055,-0.0107585,0.000758317,0,0,3.44538,5
1777253769937,0.0779934,1.00423,-0.170061,-0.00484428,-0.0107331,0.00156795,0,0,3.45408,5
1777253769951,0.0779049,1.00439,-0.170053,-0.00497934,-0.0106534,0.00232788,0,0,3.35477,5
1777253769964,0.0774927,1.00421,-0.170389,-0.00523529,-0.0105911,0.00322073,0,0,3.47093,5
1777253769978,0.0771036,1.0041,-0.170855,-0.00543834,-0.0105365,0.00405065,0,0,3.39729,5
1777253769991,0.0771609,1.00453,-0.170858,-0.00549297,-0.0103137,0.00472267,0,0,3.43929,5
1777253770005,0.0770233,1.00453,-0.170518,-0.00556167,-0.0101634,0.0052585,0,0,3.45988,5
1777253770019,0.0770851,1.00462,-0.170457,-0.00551517,-0.0101414,0.00570004,0,0,3.82136,5
1777253770033,0.077116,1.0044,-0.170221,-0.00547557,-0.0100478,0.00597551,0,0,3.4546,5
1777253770046,0.0773506,1.00458,-0.169999,-0.00553239,-0.00995092,0.00632544,0,0,3.36029,5
1777253770060,0.0774626,1.00442,-0.169981,-0.00556033,-0.00979095,0.00653156,0,0,3.42581,5
1777253770073,0.0772669,1.00442,-0.16969,-0.00552248,-0.00969135,0.00688455,0,0,3.35864,5
1777253770087,0.0772603,1.00472,-0.16921,-0.0052598,-0.00959733,0.00733336,0,0,3.42258,5
1777253770100,0.0769116,1.005,-0.168702,-0.00496048,-0.00938869,0.00788973,0,0,3.35606,5
1777253770114,0.0774727,1.00527,-0.169113,-0.00447669,-0.00905901,0.0084577,0,0,3.42984,5
1777253770127,0.0776325,1.00511,-0.169117,-0.0039601,-0.00895337,0.00892959,0,0,3.4519,5
1777253770141,0.0779888,1.00482,-0.169409,-0.0034211,-0.00878941,0.00892541,0,0,3.37227,5
1777253770154,0.0778869,1.00476,-0.169205,-0.00283098,-0.00855758,0.00888292,0,0,3.42699,5
1777253770168,0.0778455,1.00511,-0.169546,-0.0021712,-0.00829166,0.0086801,0,0,3.37569,5
1777253770181,0.0778201,1.00522,-0.169321,-0.00155271,-0.00804065,0.00852291,0,0,3.46717,5
1777253770195,0.0778372,1.00567,-0.168697,-0.000759096,-0.00787223,0.00835742,0,0,3.36945,5
1777253770208,0.0778944,1.00606,-0.168752,0.000161275,-0.00767472,0.00833394,0,0,3.41697,5
1777253770222,0.0780306,1.0058,-0.168996,0.000897279,-0.00756965,0.00833748,0,0,3.45816,5
1777253770235,0.078255,1.00523,-0.168856,0.00153633,-0.00756896,0.00828943,0,0,3.39201,5
1777253770249,0.0786585,1.00487,-0.16956,0.00197255,-0.00763681,0.00805139,0,0,3.46375,5
1777253770262,0.0789162,1.00454,-0.169512,0.00233291,-0.00776937,0.00772394,0,0,3.35805,5
1777253770276,0.0785979,1.00476,-0.169507,0.00262596,-0.0078688,0.00744483,0,0,3.48106,5
1777253770289,0.0780373,1.00487,-0.1699,0.00284262,-0.00810824,0.00728843,0,0,3.39425,5
1777253770303,0.0779464,1.00429,-0.169847,0.00303428,-0.00835993,0.0071622,0,0,3.45747,5
1777253770317,0.0780933,1.00445,-0.169851,0.00321092,-0.00858039,0.00696599,0,0,3.43432,5
1777253770330,0.0786429,1.00445,-0.170047,0.0033391,-0.00878419,0.00645107,0,0,3.45906,5
1777253770344,0.0789425,1.00429,-0.16982,0.00359284,-0.00895943,0.00570385,0,0,3.46242,5
1777253770357,0.0788967,1.00453,-0.169388,0.00394367,-0.00919764,0.00462173,0,0,3.36806,5
1777253770371,0.0790999,1.00429,-0.169637,0.00442468,-0.00950812,0.00337765,0,0,3.45556,5
1777253770384,0.0795245,1.00464,-0.169858,0.00497292,-0.0101223,0.00186938,0,0,3.41419,5
1777253770398,0.0792406,1.00416,-0.170464,0.00551181,-0.0107363,0.000621258,0,0,3.4914,5
1777253770412,0.0785754,1.00461,-0.170297,0.00594341,-0.0113973,-0.00044552,0,0,3.39021,5
1777253770425,0.0780024,1.00413,-0.170495,0.00644499,-0.0120211,-0.0010414,0,0,3.47875,5
1777253770439,0.0772287,1.00389,-0.170737,0.0068328,-0.0126699,-0.00135979,0,0,3.45921,5
1777253770452,0.0775939,1.00378,-0.170773,0.00743865,-0.0134322,-0.00205425,0,0,3.36294,5
1777253770466,0.0779798,1.00366,-0.171397,0.00808758,-0.0142245,-0.00321074,0,0,3.46344,5
1777253770479,0.0777277,1.00365,-0.171533,0.00883713,-0.0150195,-0.00448648,0,0,3.37425,5
1777253770493,0.0773118,1.0028,-0.172073,0.00930057,-0.015787,-0.00581483,0,0,3.47225,5
1777253770506,0.0765631,1.00212,-0.172911,0.00968235,-0.0164258,-0.00704726,0,0,3.38738,5
1777253770520,0.0760071,1.00155,-0.173017,0.00989714,-0.0171315,-0.00796221,0,0,3.58067,5
1777253770534,0.0753727,1.00153,-0.173418,0.010147,-0.017605,-0.00856893,0,0,3.46727,5
1777253770547,0.0754038,1.00247,-0.173975,0.0107468,-0.0181847,-0.00972823,0,0,3.44451,5
1777253770561,0.0747759,1.00297,-0.174077,0.0111459,-0.0185434,-0.010587,0,0,3.46886,5
1777253770574,0.0743612,1.00314,-0.174611,0.0114756,-0.0186465,-0.0114319,0,0,3.40427,5
1777253770588,0.0731892,1.00354,-0.174923,0.0119623,-0.0185083,-0.0120495,0,0,3.47573,5
1777253770602,0.0713571,1.00477,-0.175245,0.0124816,-0.0180182,-0.0120416,0,0,3.38588,5
1777253770615,0.0703536,1.00594,-0.175439,0.0130618,-0.017166,-0.0118243,0,0,3.60084,5
1777253770629,0.0703513,1.00658,-0.175732,0.0138021,-0.0159419,-0.0119746,0,0,3.46238,5
1777253770642,0.0702122,1.00639,-0.177022,0.0144623,-0.0146538,-0.0123734,0,0,3.47975,4
1777253770656,0.0699987,1.00582,-0.177185,0.014987,-0.0133008,-0.013255,0,0,3.47303,4
1777253770670,0.0696602,1.00525,-0.177545,0.015341,-0.0119467,-0.0144769,0,0,3.38171,4
1777253770683,0.0692449,1.00431,-0.177857,0.0157051,-0.0104973,-0.0160327,0,0,3.49356,4
1777253770697,0.068086,1.00433,-0.178274,0.0160145,-0.00914633,-0.0173429,0,0,3.39406,4
1777253770710,0.0671975,1.00405,-0.178792,0.0162809,-0.00774266,-0.0186095,0,0,3.49734,4
1777253770724,0.066619,1.0043,-0.178705,0.0166908,-0.00661041,-0.019728,0,0,3.49573,4
1777253770737,0.0660319,1.00421,-0.17876,0.0172832,-0.00561875,-0.0209464,0,0,3.4271,4
1777253770751,0.0652586,1.00425,-0.179648,0.0179451,-0.00473409,-0.0220366,0,0,3.44651,4
1777253770764,0.0646109,1.00405,-0.179855,0.0185485,-0.0040532,-0.0229286,0,0,3.37256,4
1777253770778,0.0630957,1.00408,-0.180312,0.0190495,-0.0032478,-0.0233081,0,0,3.47466,4
1777253770792,0.0628021,1.00532,-0.180235,0.0201219,-0.0023163,-0.0240432,0,0,3.37868,4
1777253770805,0.0631275,1.0062,-0.180342,0.0216266,-0.00144561,-0.0259958,0,0,3.47434,4
1777253770819,0.0624486,1.00641,-0.181236,0.0232738,-0.000679421,-0.0279889,0,0,3.39084,4
1777253770832,0.0607808,1.00665,-0.182259,0.0248714,0.000326391,-0.0294419,0,0,3.4619,4
1777253770846,0.0589737,1.0059,-0.182717,0.0261568,0.00139996,-0.030154,0,0,3.45121,4
1777253770859,0.0563504,1.00542,-0.183519,0.0270317,0.00262312,-0.0295545,0,0,3.42295,4
1777253770873,0.0537237,1.00473,-0.184537,0.0272282,0.00387187,-0.0272715,0,0,3.46482,4
1777253770886,0.053052,1.00464,-0.184717,0.0268956,0.00507198,-0.0247998,0,0,3.38173,4
1777253770900,0.0526096,1.00429,-0.186201,0.0264745,0.00632039,-0.0224967,0,0,3.47588,4
1777253770914,0.0527673,1.0035,-0.186781,0.0258031,0.00746023,-0.0207638,0,0,3.39582,4
1777253770927,0.0531625,1.00296,-0.187396,0.0250536,0.00850189,-0.0199973,0,0,3.5384,4
1777253770941,0.0533303,1.0022,-0.187594,0.0242349,0.00934809,-0.0198305,0,0,3.42038,4
1777253770954,0.0534885,1.00196,-0.189013,0.0231924,0.0103095,-0.0197287,0,0,3.46756,4
1777253770968,0.0517344,1.00171,-0.189421,0.0219129,0.0114269,-0.0189046,0,0,3.48156,4
1777253770981,0.0504074,1.00096,-0.190094,0.0204568,0.0124901,-0.0173432,0,0,3.38538,4
1777253770995,0.0489631,1.00079,-0.191345,0.0188212,0.0136821,-0.0155569,0,0,3.47144,4
1777253771008,0.0484625,1.00005,-0.191965,0.0167335,0.0147601,-0.0131942,0,0,3.39492,4
1777253771022,0.0475381,0.99939,-0.193029,0.0148486,0.015692,-0.0110368,0,0,3.49045,4
1777253771036,0.0488156,0.999096,-0.193623,0.0128211,0.0163533,-0.00941145,0,0,3.44555,4
1777253771049,0.0497064,0.998572,-0.193937,0.0107531,0.0169989,-0.00869942,0,0,3.47318,4
1777253771063,0.0486301,0.9972,-0.194096,0.00859137,0.0178095,-0.00832277,0,0,3.45569,4
1777253771076,0.049052,0.996919,-0.194383,0.00641812,0.0184676,-0.0086181,0,0,3.39307,4
1777253771090,0.0487382,0.99727,-0.194422,0.00420407,0.0193842,-0.00926939,0,0,3.4849,4
1777253771103,0.0488391,0.997806,-0.195129,0.00186158,0.0199497,-0.0100554,0,0,3.38427,4
1777253771117,0.0484139,0.998244,-0.194838,-0.000589306,0.0203979,-0.0102536,0,0,3.48764,4
1777253771131,0.0471225,0.999863,-0.194577,-0.00281279,0.021142,-0.00954567,0,0,3.46814,4
1777253771144,0.0458213,1.00124,-0.193509,-0.00462039,0.0214376,-0.00855635,0,0,3.45088,4
1777253771158,0.0468938,1.00235,-0.193254,-0.00603115,0.0218451,-0.00813635,0,0,3.44344,4
1777253771171,0.047646,1.00248,-0.193014,-0.00708445,0.0223197,-0.00778701,0,0,3.41942,4
1777253771185,0.0484107,1.003,-0.192759,-0.00794594,0.0228147,-0.00805244,0,0,3.45923,4
1777253771198,0.0498583,1.00424,-0.192587,-0.00824956,0.0234747,-0.00943768,0,0,3.36692,4
1777253771212,0.0499649,1.00562,-0.19274,-0.00821929,0.0241318,-0.0118071,0,0,3.48575,4
1777253771225,0.0497094,1.00671,-0.191748,-0.0083363,0.0245638,-0.0141164,0,0,3.38916,4
1777253771239,0.0490437,1.00796,-0.191811,-0.00827975,0.0250828,-0.0147933,0,0,3.5524,4
1777253771253,0.0473609,1.00883,-0.191774,-0.00842335,0.0257568,-0.0132741,0,0,3.40332,4
1777253771266,0.0432116,1.01023,-0.190631,-0.00854604,0.0263759,-0.00938666,0,0,3.46116,4
1777253771280,0.0429104,1.01057,-0.191195,-0.00822082,0.0273371,-0.00364483,0,0,3.47819,4
1777253771293,0.0426535,1.00807,-0.19033,-0.00834203,0.029546,0.00526893,0,0,3.38386,4
1777253771307,0.0463824,1.00917,-0.190034,-0.0087005,0.0320593,0.0149458,0,0,3.49303,4
1777253771320,0.0477794,1.00935,-0.189687,-0.00866635,0.0350438,0.0243112,0,0,3.39573,4
1777253771334,0.0434697,1.01138,-0.188469,-0.00845855,0.0399591,0.0340589,0,0,3.51684,4
1777253771348,0.0367724,1.00842,-0.187332,-0.00988524,0.0472063,0.0413802,0,0,3.40245,4
1777253771361,0.000679114,1.00566,-0.181193,-0.0134884,0.0709004,0.0420564,0,0,3.52504,4
1777253771375,-0.0942066,1.00447,-0.181232,-0.0229312,0.129708,0.0210284,0,0,3.47032,4
1777253771388,-0.216801,1.02725,-0.178174,-0.0354497,0.247356,-0.0374296,0,0,3.39862,4
1777253771402,-0.253611,1.03076,-0.160579,-0.0432924,0.373785,-0.123138,0,0,3.50019,5
1777253771415,-0.294835,1.05769,-0.160555,-0.0528575,0.493122,-0.241882,0,0,3.39905,5
1777253771429,-0.353862,1.08087,-0.157465,-0.061809,0.605766,-0.368623,0,0,3.46084,5
1777253771443,-0.347119,1.12111,-0.14017,-0.0693935,0.712091,-0.469268,0,0,3.45482,5
1777253771456,-0.306518,1.1177,-0.126145,-0.0794942,0.812452,-0.524224,0,0,3.46814,5
1777253771470,-0.309483,1.12371,-0.100746,-0.0906597,0.907183,-0.527845,0,0,3.47169,5
1777253771483,-0.310419,1.11544,-0.0450141,-0.0991008,0.996601,-0.495664,0,0,3.45551,5
1777253771497,-0.28049,1.10749,0.0371577,-0.104671,1.081,-0.470194,0,0,3.49242,5
1777253771510,-0.217333,1.09412,0.120486,-0.109183,1.16067,-0.449138,0,0,3.39481,5
1777253771524,-0.148584,1.08821,0.192169,-0.112736,1.23587,-0.412452,0,0,3.49701,5
1777253771538,-0.0804186,1.07885,0.244836,-0.108771,1.30685,-0.351409,0,0,3.46673,5
1777253771551,-0.00772311,1.06317,0.284566,-0.100777,1.37385,-0.296313,0,0,3.58619,5
1777253771565,0.0574026,1.04658,0.311687,-0.0922814,1.43709,-0.246666,0,0,3.43582,5
1777253771578,0.118067,1.01318,0.327768,-0.0931811,1.49679,-0.206672,0,0,3.47177,5
1777253771592,0.16688,0.99316,0.33721,-0.106696,1.55313,-0.177553,0,0,3.47144,5
1777253771606,0.209147,0.98378,0.333962,-0.123902,1.58843,-0.154611,0,0,3.39306,5
1777253771619,0.236143,0.973104,0.319255,-0.14636,1.59251,-0.139212,0,0,3.51684,5
1777253771633,0.249602,0.975735,0.293487,-0.167511,1.57315,-0.136002,0,0,3.41323,5
1777253771646,0.253376,0.984683,0.259085,-0.185613,1.53731,-0.139446,0,0,3.49638,5
1777253771660,0.254228,0.996621,0.221901,-0.198782,1.48763,-0.144915,0,0,3.42234,5
1777253771673,0.255346,1.02293,0.173301,-0.203286,1.4225,-0.162945,0,0,3.46958,5
1777253771687,0.248939,1.06454,0.114349,-0.194615,1.3414,-0.185293,0,0,3.49147,5
1777253771701,0.236892,1.09824,0.0551151,-0.17081,1.25041,-0.192575,0,0,3.4054,5
1777253771714,0.218921,1.14634,0.00161435,-0.13028,1.16093,-0.201988,0,0,3.51247,5
1777253771728,0.196836,1.1928,-0.0427914,-0.0729255,1.08107,-0.219569,0,0,3.40086,5
1777253771741,0.183974,1.23258,-0.0635758,-0.00186232,1.00875,-0.234546,0,0,3.50997,1
1777253771755,0.171011,1.25978,-0.0608998,0.0755469,0.946272,-0.245668,0,0,3.41608,1
1777253771769,0.155763,1.28555,-0.0555392,0.154981,0.900952,-0.251644,0,0,3.60238,1
1777253771782,0.14341,1.29605,-0.0452891,0.231844,0.869671,-0.253736,0,0,3.46977,5
1777253771796,0.137995,1.29752,-0.0317384,0.304044,0.847441,-0.254382,0,0,3.51882,5
1777253771809,0.13639,1.2913,-0.0161541,0.366731,0.829879,-0.254573,0,0,3.5209,5
1777253771823,0.132793,1.27616,-0.0011564,0.417817,0.816638,-0.256569,0,0,3.41221,5
1777253771837,0.125098,1.25754,0.0130822,0.457538,0.809436,-0.261223,0,0,3.50856,5
1777253771850,0.114808,1.23485,0.0249884,0.486484,0.810298,-0.268853,0,0,3.47005,5
1777253771864,0.105205,1.2083,0.0353913,0.504755,0.819415,-0.277768,0,0,3.53784,5
1777253771877,0.0981121,1.17775,0.0448547,0.512406,0.835885,-0.285575,0,0,3.42358,5
1777253771891,0.0954161,1.14588,0.0534449,0.510661,0.857637,-0.293025,0,0,3.49279,5
1777253771905,0.0977329,1.11576,0.0615121,0.501687,0.881799,-0.30112,0,0,3.49395,5
1777253771918,0.103946,1.08418,0.0684147,0.485403,0.905557,-0.308751,0,0,3.4084,5
1777253771932,0.113727,1.04616,0.0748891,0.457225,0.927644,-0.314996,0,0,3.49527,5
1777253771945,0.128451,1.01216,0.0814111,0.418236,0.946196,-0.321438,0,0,3.47234,5
1777253771959,0.145197,0.980253,0.0864033,0.370943,0.959902,-0.327404,0,0,3.49886,5
1777253771973,0.161895,0.949562,0.0905403,0.317003,0.968797,-0.332174,0,0,3.39355,5
1777253771986,0.177888,0.916471,0.0942398,0.25442,0.973488,-0.332865,0,0,3.58664,5
1777253772000,0.195148,0.887742,0.0985945,0.183213,0.973438,-0.327956,0,0,3.42334,5
1777253772013,0.212823,0.863514,0.103362,0.106028,0.968908,-0.317023,0,0,3.5038,5
1777253772027,0.229466,0.841494,0.108411,0.0227589,0.960191,-0.303767,0,0,3.48555,5
1777253772041,0.244627,0.822133,0.113805,-0.067756,0.948337,-0.290307,0,0,3.54386,5
1777253772054,0.259349,0.808035,0.120514,-0.164673,0.933859,-0.274083,0,0,3.47671,5
1777253772068,0.27382,0.801972,0.12738,-0.265035,0.916699,-0.254808,0,0,3.42427,5
1777253772081,0.285521,0.801563,0.133888,-0.366772,0.897608,-0.234243,0,0,3.4941,5
1777253772095,0.294251,0.807353,0.13947,-0.468566,0.877985,-0.213516,0,0,3.41297,4
1777253772109,0.300451,0.821912,0.143273,-0.568795,0.859314,-0.194115,0,0,3.45975,5
1777253772122,0.306043,0.843637,0.145275,-0.666468,0.841797,-0.17545,0,0,3.48092,5
1777253772136,0.310199,0.868869,0.146767,-0.764999,0.826213,-0.15487,0,0,3.4189,5
1777253772149,0.314806,0.9039,0.14608,-0.862396,0.812873,-0.135996,0,0,3.49618,5
1777253772163,0.318333,0.945554,0.141104,-0.954331,0.802598,-0.119295,0,0,3.39534,5
1777253772176,0.320772,0.998086,0.12993,-1.04111,0.793623,-0.105765,0,0,3.52379,5
1777253772190,0.31924,1.05615,0.106578,-1.11736,0.782959,-0.0932727,0,0,3.4141,5
1777253772204,0.314082,1.12129,0.0667748,-1.17731,0.768629,-0.0889272,0,0,3.49545,5
1777253772217,0.309338,1.18632,0.00973052,-1.21614,0.750739,-0.100283,0,0,3.47518,5
1777253772231,0.302161,1.22832,-0.0680519,-1.2371,0.729755,-0.112132,0,0,3.47264,5
1777253772244,0.298208,1.25888,-0.158288,-1.2417,0.706976,-0.105954,0,0,3.53653,5
1777253772258,0.297887,1.28641,-0.256459,-1.2208,0.678213,-0.078781,0,0,3.40627,5
1777253772271,0.28393,1.30447,-0.35686,-1.17257,0.64533,-0.0476645,0,0,3.49218,5
1777253772285,0.243833,1.31767,-0.449918,-1.09859,0.617281,-0.0341021,0,0,3.4206,5
1777253772299,0.195085,1.32933,-0.528978,-1.00079,0.599085,-0.0412326,0,0,3.51767,5
1777253772312,0.408505,1.47912,-0.274943,-0.920199,0.533556,-0.0358625,0,0,3.44029,5
1777253772326,0.489504,1.35032,-0.196349,-0.82728,0.472361,-0.0569943,0,0,3.48916,5
1777253772340,0.501308,1.29853,-0.153427,-0.662607,0.415558,-0.118449,0,0,3.50788,5
1777253772353,0.422574,1.28072,-0.14341,-0.504451,0.366026,-0.133801,0,0,3.48019,5
1777253772367,0.410552,1.25363,-0.136886,-0.363469,0.344759,-0.137193,0,0,3.52288,5
1777253772380,0.401738,1.22776,-0.130495,-0.249095,0.30879,-0.151905,0,0,3.41003,5
1777253772394,0.363633,1.2186,-0.12208,-0.146937,0.275857,-0.151036,0,0,3.51455,5
1777253772407,0.342223,1.20286,-0.113931,-0.0576353,0.245842,-0.146379,0,0,3.41633,5
1777253772421,0.313879,1.19225,-0.109718,0.0182609,0.223159,-0.12826,0,0,3.50825,5
1777253772435,0.278908,1.17669,-0.101455,0.0844875,0.205122,-0.100093,0,0,3.47656,5
1777253772448,0.266194,1.16402,-0.103131,0.135438,0.186864,-0.0675926,0,0,3.52558,5
1777253772462,0.250619,1.15182,-0.110575,0.173186,0.170246,-0.0310835,0,0,3.48336,5
1777253772475,0.244353,1.14075,-0.114616,0.197701,0.16053,-0.000818449,0,0,3.39225,5
1777253772489,0.232208,1.1275,-0.117267,0.214362,0.159794,0.0215745,0,0,3.48201,5
1777253772503,0.226605,1.11731,-0.116577,0.223705,0.157716,0.0385837,0,0,3.39616,1
1777253772516,0.231245,1.10815,-0.122391,0.228344,0.153853,0.047578,0,0,3.51467,1
1777253772530,0.231928,1.09806,-0.125262,0.229884,0.152113,0.0481463,0,0,3.41912,1
1777253772543,0.232859,1.08885,-0.127754,0.228782,0.150945,0.0415962,0,0,3.44893,1
1777253772557,0.23141,1.0818,-0.13053,0.225818,0.149839,0.0323135,0,0,3.49964,1
1777253772570,0.225003,1.07651,-0.131343,0.221917,0.149638,0.0229735,0,0,3.41162,1
1777253772584,0.221434,1.07392,-0.13185,0.218221,0.149448,0.013074,0,0,3.49095,1
1777253772598,0.217819,1.06906,-0.13367,0.213688,0.147784,0.00422225,0,0,3.40195,1
1777253772611,0.210463,1.0648,-0.134759,0.20806,0.146491,-0.00257012,0,0,3.49662,1
1777253772625,0.207572,1.06052,-0.136005,0.201523,0.144679,-0.00994062,0,0,3.40449,1
1777253772638,0.206898,1.05528,-0.136716,0.193572,0.14103,-0.0184092,0,0,3.51269,1
1777253772652,0.206824,1.05233,-0.136045,0.185784,0.13565,-0.0309544,0,0,3.50866,1
1777253772666,0.205931,1.04922,-0.134673,0.179037,0.129313,-0.0476258,0,0,3.4746,1
1777253772679,0.202652,1.04402,-0.136061,0.175289,0.125429,-0.0653146,0,0,3.5113,1
1777253772693,0.192859,1.04352,-0.135276,0.172329,0.119353,-0.0813004,0,0,3.38951,1
1777253772706,0.186177,1.03942,-0.137206,0.16831,0.113994,-0.0918379,0,0,3.50684,1
1777253772720,0.175131,1.04042,-0.137288,0.164076,0.107411,-0.0958968,0,0,3.43534,1
1777253772734,0.164637,1.04009,-0.13916,0.158791,0.100834,-0.0947953,0,0,3.49679,1
1777253772747,0.156648,1.03994,-0.139406,0.153296,0.0938633,-0.0895893,0,0,3.39938,1
1777253772761,0.151162,1.03908,-0.13994,0.147678,0.0865858,-0.0829755,0,0,3.49616,1
1777253772774,0.146969,1.03696,-0.140992,0.141753,0.0790657,-0.0767198,0,0,3.46942,1
1777253772788,0.145518,1.03487,-0.142437,0.136341,0.0715734,-0.0723864,0,0,3.39781,4
1777253772801,0.143545,1.03339,-0.143937,0.13155,0.0647369,-0.069829,0,0,3.48992,4
1777253772815,0.140095,1.03145,-0.14456,0.127451,0.0585537,-0.0682115,0,0,3.40127,4
1777253772828,0.135674,1.02994,-0.145818,0.123787,0.0531583,-0.0668731,0,0,3.50595,4
1777253772842,0.131775,1.02812,-0.145937,0.120397,0.0486608,-0.0658667,0,0,3.40062,4
1777253772856,0.127218,1.0281,-0.147105,0.117866,0.0449379,-0.0647669,0,0,3.49729,4
1777253772869,0.123026,1.02692,-0.147631,0.115618,0.0417963,-0.0634205,0,0,3.45873,4
1777253772883,0.118385,1.02558,-0.149005,0.11326,0.0390922,-0.0605482,0,0,3.45277,4
1777253772896,0.114744,1.02438,-0.150069,0.111052,0.0366297,-0.0566166,0,0,3.49362,4
1777253772910,0.111306,1.02313,-0.150977,0.108569,0.034164,-0.0522505,0,0,3.39953,4
1777253772923,0.107624,1.02159,-0.152396,0.105871,0.0319222,-0.047016,0,0,3.46025,4
1777253772937,0.10475,1.02106,-0.152489,0.103529,0.0297548,-0.041784,0,0,3.39486,4
1777253772951,0.102832,1.01995,-0.153124,0.101383,0.0275848,-0.036991,0,0,3.47679,4
1777253772964,0.101994,1.01894,-0.154094,0.0998109,0.0255451,-0.0334131,0,0,3.44756,4
1777253772978,0.100751,1.01864,-0.156885,0.0981772,0.0231873,-0.0301602,0,0,3.4983,4
1777253772991,0.0997285,1.01782,-0.158233,0.0968921,0.0209233,-0.0272866,0,0,3.44838,4
1777253773005,0.0978046,1.01782,-0.159737,0.0954651,0.0186963,-0.0241118,0,0,3.37312,4
1777253773018,0.0973033,1.01717,-0.160322,0.0941951,0.0162945,-0.0215047,0,0,3.45238,4
1777253773032,0.0951046,1.01691,-0.162915,0.0930991,0.0143058,-0.0196348,0,0,3.39719,4
1777253773045,0.0936729,1.01717,-0.164006,0.0922445,0.0123301,-0.0182851,0,0,3.45116,4
1777253773059,0.0923625,1.01652,-0.165461,0.0909239,0.0107907,-0.0168912,0,0,3.43455,4
1777253773073,0.0902492,1.02163,-0.16693,0.0908207,0.00941464,-0.0148133,0,0,3.44099,4
1777253773086,0.0889392,1.02695,-0.167372,0.0921534,0.00826568,-0.012685,0,0,3.4384,4
1777253773100,0.0884696,1.03198,-0.167652,0.0935185,0.0062306,-0.0106289,0,0,3.36697,4
1777253773113,0.0883138,1.03402,-0.168423,0.0949011,0.00424116,-0.00814872,0,0,3.45734,4
1777253773127,0.0883723,1.03999,-0.168931,0.0991992,0.00192227,-0.00555071,0,0,3.38499,4
1777253773140,0.0912211,1.05291,-0.167522,0.108733,-0.00128562,-0.00412607,0,0,3.48469,4
1777253773154,0.101647,1.07152,-0.164589,0.123486,-0.00728091,0.00988013,0,0,3.44475,4
1777253773169,0.0892218,1.08748,-0.164641,0.142075,-0.0129271,0.0266546,0,0,4.06723,4
1777253773185,0.0963504,1.11445,-0.158323,0.178106,-0.0193869,0.0417731,0,0,3.47684,4
1777253773199,0.098697,1.14877,-0.151716,0.226555,-0.0283233,0.0539755,0,0,3.48651,4
1777253773213,0.0995972,1.18403,-0.15008,0.290826,-0.0352084,0.0642901,0,0,3.46312,4
1777253773227,0.111224,1.21619,-0.14514,0.366603,-0.0464387,0.0707677,0,0,3.9963,4
1777253773240,0.118653,1.25618,-0.134315,0.450444,-0.0687672,0.0787489,0,0,3.50454,4
1777253773254,0.12739,1.31202,-0.118085,0.545691,-0.0975548,0.0919687,0,0,3.41603,4
1777253773267,0.14447,1.37624,-0.0942747,0.655385,-0.132456,0.118761,0,0,3.51055,4
1777253773281,0.162563,1.45448,-0.0659115,0.758927,-0.17482,0.151257,0,0,3.46068,4
1777253773295,0.176725,1.49014,-0.0552439,0.856661,-0.219629,0.183373,0,0,3.5291,4
1777253773308,0.189216,1.48503,-0.0344793,0.948912,-0.262734,0.174792,0,0,3.44219,4
1777253773322,0.194666,1.49182,-0.0247394,1.03599,-0.299135,0.135425,0,0,3.9636,4
1777253773336,0.213341,1.48959,-0.020339,1.11818,-0.335742,0.112136,0,0,3.50599,4
1777253773350,0.230324,1.49097,0.00939589,1.19576,-0.374616,0.100631,0,0,3.85682,4
1777253773364,0.245533,1.4945,0.0468435,1.26899,-0.420405,0.106624,0,0,3.83199,4
1777253773377,0.254685,1.45473,0.0959809,1.33812,-0.47209,0.115292,0,0,3.41645,4
1777253773391,0.248383,1.31923,0.0869818,1.40336,-0.518816,0.114879,0,0,3.50301,4
1777253773404,0.220482,1.21425,0.0798432,1.46495,-0.549785,0.089441,0,0,3.41956,4
1777253773418,0.17963,1.0795,0.0636832,1.46072,-0.556999,0.0430398,0,0,3.5916,4
1777253773432,0.127636,0.955465,0.0535378,1.38231,-0.53843,0.00818621,0,0,3.43553,4
1777253773446,0.0924165,0.856529,0.0520822,1.24337,-0.502781,-0.00194999,0,0,4.18608,4
1777253773460,0.0686219,0.789914,0.0568707,1.0686,-0.45654,0.0152954,0,0,3.49747,4
1777253773473,0.045984,0.74158,0.0658825,0.872483,-0.404675,0.0508718,0,0,3.47714,4
1777253773487,0.0173441,0.702722,0.0787846,0.683235,-0.343627,0.0988868,0,0,3.52029,4
1777253773500,-0.00490992,0.680012,0.0928118,0.504603,-0.274807,0.140055,0,0,3.43116,4
1777253773514,-0.0181783,0.678076,0.106929,0.33599,-0.205514,0.162009,0,0,3.53956,4
1777253773528,-0.0172408,0.687985,0.11783,0.176835,-0.14459,0.161841,0,0,3.45286,4
1777253773542,0.00336409,0.707843,0.124381,0.0266082,-0.106284,0.154544,0,0,3.5283,4
1777253773555,0.0324267,0.72612,0.128305,-0.115192,-0.0997102,0.160288,0,0,3.48901,4
1777253773569,0.0561205,0.733252,0.130269,-0.249039,-0.124698,0.17737,0,0,3.93182,4
1777253773583,0.06286,0.737862,0.133206,-0.375378,-0.173214,0.193116,0,0,3.50893,4
1777253773596,0.052076,0.750375,0.137333,-0.49463,-0.231331,0.201278,0,0,3.42882,4
1777253773610,0.0271206,0.776811,0.141243,-0.607193,-0.289147,0.205625,0,0,3.52105,4
1777253773623,-0.00259754,0.811324,0.1404,-0.713442,-0.338629,0.209228,0,0,3.44529,4
1777253773637,-0.0437406,0.859745,0.130169,-0.813732,-0.376078,0.214897,0,0,3.63943,4
1777253773651,-0.095339,0.908093,0.11387,-0.908396,-0.385817,0.221876,0,0,3.47253,4
1777253773665,-0.142907,0.956386,0.0907759,-0.99775,-0.364064,0.224879,0,0,4.22609,4
1777253773679,-0.175111,1.00934,0.062828,-1.08209,-0.317708,0.22613,0,0,3.49592,4
1777253773692,-0.184529,1.06419,0.0294226,-1.1617,-0.258263,0.229302,0,0,3.42303,4
1777253773706,-0.175,1.12237,-0.0137493,-1.23685,-0.199386,0.237254,0,0,3.51051,4
1777253773720,-0.144437,1.18898,-0.0681941,-1.30778,-0.152898,0.238688,0,0,3.4294,4
1777253773733,-0.110316,1.26186,-0.139332,-1.37473,-0.126184,0.231786,0,0,3.51654,5
1777253773747,-0.0876672,1.32246,-0.224625,-1.41726,-0.116579,0.223178,0,0,3.42593,5
1777253773761,-0.0803806,1.35527,-0.320403,-1.43454,-0.114716,0.207679,0,0,3.48897,5
1777253773774,-0.076406,1.37729,-0.412973,-1.42885,-0.114254,0.174677,0,0,3.47073,5
1777253773788,-0.0641226,1.40418,-0.50517,-1.38787,-0.118871,0.141628,0,0,3.64219,5
1777253773802,-0.056171,1.4194,-0.593948,-1.31273,-0.130727,0.124508,0,0,3.47992,5
1777253773815,-0.0773552,1.56415,-0.499692,-1.09879,-0.165575,0.110617,0,0,3.43688,5
1777253773829,-0.0733449,1.49091,-0.469719,-0.984355,-0.203722,0.103359,0,0,3.54021,5
1777253773842,-0.0519073,1.45434,-0.406081,-0.808336,-0.22607,0.0845402,0,0,3.47225,5
1777253773856,-0.0638268,1.44223,-0.371567,-0.648305,-0.239603,0.0647559,0,0,3.68258,5
1777253773870,-0.0639989,1.41369,-0.350355,-0.502179,-0.229768,0.0530737,0,0,3.57777,5
1777253773884,-0.0442633,1.38087,-0.339782,-0.380447,-0.218074,0.0283833,0,0,3.61216,5
1777253773897,-0.0393702,1.35652,-0.326214,-0.279828,-0.205637,0.00559603,0,0,3.51329,5
1777253773911,-0.0413797,1.33064,-0.314312,-0.19361,-0.189285,-0.00745641,0,0,3.43827,5
1777253773924,-0.0457278,1.3068,-0.305747,-0.123938,-0.169804,-0.0134866,0,0,3.50273,5
1777253773938,-0.0504072,1.28602,-0.297608,-0.0657796,-0.147935,-0.0124561,0,0,3.46319,5
1777253773952,-0.0482919,1.26668,-0.289596,-0.0186803,-0.128881,-0.00644791,0,0,3.53221,5
1777253773965,-0.043433,1.24976,-0.281898,0.0205874,-0.117631,0.00347089,0,0,3.44266,5
1777253773979,-0.0407503,1.2338,-0.274069,0.0515295,-0.111003,0.016413,0,0,3.52773,5
1777253773992,-0.0332743,1.2208,-0.269131,0.0733883,-0.105632,0.0224118,0,0,3.51573,5
1777253774006,-0.0261903,1.20785,-0.264443,0.092792,-0.0986839,0.0236296,0,0,3.48184,5
1777253774020,-0.01671,1.19288,-0.265153,0.107917,-0.0917955,0.0199577,0,0,3.50632,5
1777253774033,-0.00836396,1.17686,-0.271821,0.117947,-0.0843813,0.00964505,0,0,3.53608,1
1777253774047,-0.00929164,1.17283,-0.26805,0.121475,-0.0784407,-0.00348464,0,0,3.51236,1
1777253774060,-0.00456626,1.16564,-0.263449,0.122085,-0.0717328,-0.0165801,0,0,3.44819,1
1777253774074,-0.00270787,1.15769,-0.257696,0.122058,-0.0637613,-0.0279604,0,0,3.81408,1
1777253774088,-0.00370632,1.15036,-0.253334,0.121027,-0.0563182,-0.035962,0,0,3.48942,1
1777253774102,-0.00544303,1.14268,-0.248628,0.11879,-0.0498922,-0.0403548,0,0,3.5066,1
1777253774115,-0.00990338,1.13642,-0.244748,0.115295,-0.0457063,-0.0387335,0,0,3.49692,1
1777253774129,-0.0119087,1.13174,-0.240016,0.110947,-0.0424103,-0.0316923,0,0,3.41636,1
1777253774142,-0.0146096,1.1274,-0.235386,0.106411,-0.0395475,-0.0194283,0,0,3.4931,1
1777253774156,-0.0135436,1.12347,-0.229906,0.102095,-0.0370809,-0.00533882,0,0,3.41512,1
1777253774170,-0.0101135,1.11914,-0.224323,0.0991343,-0.0354805,0.00682997,0,0,3.52699,1
1777253774183,-0.00673883,1.1163,-0.219656,0.0971833,-0.0339399,0.0133449,0,0,3.49645,1
1777253774197,0.000130326,1.10987,-0.215784,0.0957441,-0.0322202,0.0164501,0,0,3.47179,1
1777253774210,0.00586098,1.1039,-0.213006,0.0954947,-0.0305029,0.016919,0,0,3.47519,1
1777253774224,0.00894214,1.09751,-0.209576,0.0955547,-0.0290531,0.0162825,0,0,3.43106,1
1777253774237,0.0110425,1.09143,-0.207242,0.0957056,-0.0275776,0.0152579,0,0,3.50042,1
1777253774251,0.0112174,1.08501,-0.205806,0.0955782,-0.0261677,0.01501,0,0,3.40868,1
1777253774265,0.0114783,1.07953,-0.204588,0.09488,-0.0248326,0.0154698,0,0,3.50521,1
1777253774278,0.0129845,1.07495,-0.20404,0.0935401,-0.023688,0.0164389,0,0,3.48442,1
1777253774292,0.0148992,1.07054,-0.202975,0.0914832,-0.0230787,0.0170283,0,0,3.50373,1
1777253774305,0.0182539,1.06659,-0.202477,0.0894132,-0.0226534,0.0169081,0,0,3.48836,1
1777253774319,0.0202428,1.06204,-0.200939,0.0871639,-0.0226373,0.0162723,0,0,3.46784,1
1777253774333,0.0214217,1.05813,-0.200308,0.0848138,-0.0227548,0.015047,0,0,3.47095,5
1777253774346,0.0220689,1.05489,-0.198864,0.0827283,-0.0229814,0.0140831,0,0,3.39682,4
1777253774360,0.0224469,1.05277,-0.198267,0.0814876,-0.0232081,0.0135158,0,0,3.47706,4
1777253774373,0.0249675,1.05202,-0.197472,0.0804022,-0.0239701,0.0129289,0,0,3.40621,4
1777253774387,0.0260183,1.05059,-0.196488,0.0796175,-0.0247708,0.011981,0,0,3.50925,4
1777253774400,0.0273388,1.04786,-0.196175,0.0781531,-0.0259291,0.0113604,0,0,3.40749,4
1777253774414,0.0290098,1.04356,-0.195524,0.0772719,-0.0271979,0.0107403,0,0,3.4894,4
1777253774428,0.0303954,1.04162,-0.194965,0.0765343,-0.0289137,0.00965397,0,0,3.4808,4
1777253774441,0.0315115,1.03986,-0.194423,0.0764375,-0.0308715,0.00773798,0,0,3.3864,4
1777253774455,0.0336194,1.03895,-0.192857,0.0771341,-0.0328608,0.00515444,0,0,3.4603,4
1777253774468,0.0342534,1.03938,-0.192433,0.0791831,-0.0350682,0.000592018,0,0,3.38732,4
1777253774482,0.0353175,1.0395,-0.192499,0.0819222,-0.0370233,-0.00386864,0,0,3.50225,4
1777253774495,0.0375817,1.03912,-0.192739,0.0853812,-0.0394811,-0.00837025,0,0,3.38666,4
1777253774509,0.035994,1.03659,-0.193486,0.0885477,-0.0422035,-0.0119728,0,0,3.45003,4
1777253774522,0.0357553,1.03651,-0.193273,0.09241,-0.04509,-0.0127528,0,0,3.47449,4
1777253774536,0.0386112,1.04063,-0.192936,0.097366,-0.0491121,-0.00680927,0,0,3.42471,4
1777253774550,0.0431557,1.05698,-0.191371,0.107452,-0.0554862,0.00360936,0,0,3.49419,4
1777253774563,0.0422414,1.07398,-0.187826,0.128028,-0.0610874,0.0116495,0,0,3.38881,4
1777253774577,0.0422822,1.09146,-0.186479,0.15723,-0.0656851,0.0165025,0,0,3.52429,4
1777253774590,0.042307,1.10717,-0.182524,0.192368,-0.0710739,0.0209934,0,0,3.46482,4
1777253774604,0.0136406,1.13538,-0.182023,0.230605,-0.0717416,0.0326614,0,0,3.51671,4
1777253774618,0.0309658,1.17488,-0.170073,0.287961,-0.0726459,0.0398555,0,0,3.47216,4
1777253774631,0.0396092,1.2065,-0.161013,0.355322,-0.080269,0.0496905,0,0,3.52708,4
1777253774645,0.0518077,1.24625,-0.149708,0.440117,-0.0929839,0.0570042,0,0,3.49312,4
1777253774658,0.0741131,1.2778,-0.137339,0.5367,-0.113609,0.0665923,0,0,3.39682,4
1777253774672,0.100412,1.31241,-0.120063,0.645782,-0.146065,0.0781946,0,0,3.50482,4
1777253774686,0.119978,1.36541,-0.0974839,0.749862,-0.188106,0.0929613,0,0,3.52177,4
1777253774699,0.131311,1.43256,-0.0682286,0.848104,-0.237227,0.120435,0,0,3.52525,4
1777253774713,0.145309,1.51516,-0.0366702,0.940836,-0.297286,0.180647,0,0,3.46777,4
1777253774726,0.125436,1.59328,-0.0306693,1.02837,-0.355295,0.231261,0,0,3.46666,4
1777253774740,0.101117,1.60654,-0.0127074,1.11099,-0.399747,0.222657,0,0,3.49362,4
1777253774753,0.103648,1.5933,0.000590589,1.18897,-0.428322,0.219129,0,0,3.4106,4
1777253774767,0.115144,1.58165,0.0136493,1.26258,-0.461356,0.235244,0,0,3.51116,4
1777253774781,0.128926,1.57527,0.0645254,1.33207,-0.500472,0.266276,0,0,3.54447,4
1777253774794,0.132472,1.56681,0.133815,1.39765,-0.542575,0.294077,0,0,3.53156,4
1777253774808,0.104855,1.5048,0.113286,1.45956,-0.558196,0.288368,0,0,3.42032,4
1777253774822,0.0557815,1.40434,0.107383,1.51799,-0.543748,0.218117,0,0,3.5319,4
1777253774835,0.0179645,1.13383,0.0971283,1.51851,-0.492549,0.0998459,0,0,3.47649,4
1777253774849,-0.00290007,1.04149,0.0889686,1.41654,-0.423125,0.0221944,0,0,3.49643,4
1777253774862,0.00423307,0.909418,0.091291,1.26448,-0.354252,0.0100949,0,0,3.50003,4
1777253774876,0.0160741,0.827813,0.101467,1.06781,-0.29369,0.0397201,0,0,3.46755,4
1777253774890,0.0153505,0.76589,0.114468,0.86761,-0.239022,0.0786836,0,0,3.50777,4
1777253774903,-0.0016152,0.715083,0.130534,0.678636,-0.183875,0.11243,0,0,3.4253,4
1777253774917,-0.0224497,0.668659,0.148711,0.500262,-0.123258,0.13661,0,0,3.52866,4
1777253774930,-0.0380757,0.654584,0.16884,0.331893,-0.0603118,0.142067,0,0,3.42549,4
1777253774944,-0.0454849,0.66985,0.182458,0.172968,0.00041394,0.133829,0,0,3.49493,4
1777253774957,-0.0318274,0.704693,0.188534,0.0229576,0.0460868,0.120601,0,0,3.49506,4
1777253774971,-0.014855,0.730214,0.184135,-0.118638,0.071201,0.118735,0,0,3.41697,4
1777253774985,-0.00102572,0.745141,0.177038,-0.252292,0.0787554,0.118151,0,0,3.53905,4
1777253774998,0.00890551,0.757068,0.16986,-0.378448,0.0733701,0.106685,0,0,3.53329,4
1777253775012,0.0177182,0.779459,0.163537,-0.497528,0.0556725,0.082734,0,0,3.55784,4
1777253775026,0.0292684,0.813919,0.156404,-0.609929,0.0259551,0.0519781,0,0,3.48132,4
1777253775039,0.0369663,0.851376,0.144837,-0.716024,-0.0152365,0.0230545,0,0,3.58838,4
1777253775053,0.0343724,0.890552,0.127497,-0.816169,-0.0566653,0.00207331,0,0,3.54597,4
1777253775067,0.0183665,0.93394,0.104501,-0.910696,-0.0876047,-0.00924434,0,0,3.47884,4
1777253775080,-0.00249329,0.978017,0.0747284,-0.999921,-0.100152,-0.0180046,0,0,3.51316,4
1777253775094,-0.0192661,1.02585,0.0394777,-1.08414,-0.0915499,-0.0237386,0,0,3.53984,4
1777253775107,-0.0240877,1.07973,-0.0020534,-1.16364,-0.0658574,-0.0221501,0,0,3.49258,4
1777253775121,-0.009809,1.15037,-0.0518955,-1.23867,-0.0325328,-0.0131704,0,0,3.41566,5
1777253775135,0.0131179,1.22521,-0.11302,-1.3095,-0.000529413,0.00714507,0,0,3.52984,5
1777253775148,0.0333894,1.28992,-0.18567,-1.36322,0.0258851,0.0335017,0,0,3.41499,5
1777253775162,0.0445536,1.33477,-0.26442,-1.39233,0.0462493,0.0577932,0,0,3.48212,5
1777253775175,0.0434924,1.3611,-0.346626,-1.40378,0.0618016,0.0701674,0,0,3.49753,5
1777253775189,0.0384645,1.38766,-0.428413,-1.39567,0.0738653,0.0629302,0,0,3.49071,5
1777253775203,0.0506177,1.41274,-0.507734,-1.35499,0.075905,0.0465119,0,0,3.52579,5
1777253775216,0.0640885,1.42262,-0.59148,-1.28768,0.0634561,0.0419675,0,0,3.45712,5
1777253775230,0.0647252,1.42844,-0.666611,-1.19758,0.0461947,0.0329038,0,0,3.51201,5
1777253775243,0.113969,1.57268,-0.664853,-1.07349,0.0151848,-0.0271795,0,0,3.41986,5
1777253775257,0.110137,1.40388,-0.60636,-0.93003,0.0049815,-0.0517015,0,0,3.56217,5
1777253775271,0.100727,1.47013,-0.538674,-0.741562,0.0169953,-0.0737518,0,0,3.46964,5
1777253775284,0.0759597,1.40775,-0.504432,-0.578854,0.026691,-0.0753098,0,0,3.48103,5
1777253775298,0.0841061,1.38157,-0.481752,-0.438259,0.0429593,-0.0796706,0,0,3.48897,5
1777253775311,0.0879063,1.34687,-0.45692,-0.324219,0.0392179,-0.0888095,0,0,3.44929,5
1777253775325,0.0717186,1.33228,-0.436577,-0.231169,0.0327234,-0.0790151,0,0,3.49342,5
1777253775339,0.0652581,1.30672,-0.418908,-0.151178,0.0283573,-0.0669827,0,0,3.41429,5
1777253775352,0.0535179,1.29007,-0.401737,-0.0841607,0.0299053,-0.0526792,0,0,3.53199,5
1777253775366,0.050516,1.26973,-0.384845,-0.0305753,0.0331519,-0.0380905,0,0,3.42162,5
1777253775379,0.0503802,1.25019,-0.368763,0.0123656,0.0322001,-0.02283,0,0,3.44731,5
1777253775393,0.0546343,1.23391,-0.362019,0.0461024,0.0284885,-0.0126817,0,0,3.49193,5
1777253775406,0.0509124,1.21753,-0.34756,0.0713357,0.0297251,-0.00815946,0,0,3.40107,5
1777253775420,0.05615,1.20241,-0.33887,0.0908374,0.0335856,-0.0115169,0,0,3.50743,5
1777253775434,0.0604776,1.18784,-0.329051,0.107558,0.0354784,-0.017936,0,0,3.48243,5
1777253775447,0.0604952,1.17429,-0.321508,0.120348,0.0382754,-0.0270608,0,0,3.45788,1
1777253775461,0.0626618,1.15976,-0.318113,0.128147,0.043626,-0.0391635,0,0,3.36138,1
1777253775474,0.0594345,1.1519,-0.309527,0.130105,0.0454394,-0.0484721,0,0,3.53003,1
1777253775488,0.0589354,1.14188,-0.301901,0.130164,0.0475492,-0.0555201,0,0,3.45323,1
1777253775502,0.0558213,1.13257,-0.293964,0.129238,0.0476225,-0.0596893,0,0,3.59984,1
1777253775515,0.0514166,1.12546,-0.285185,0.127294,0.045799,-0.0605117,0,0,3.50416,1
1777253775529,0.046985,1.11978,-0.276789,0.124234,0.0431016,-0.0582393,0,0,3.49649,1
1777253775542,0.0429116,1.11525,-0.268959,0.120404,0.0401572,-0.0522193,0,0,3.51975,1
1777253775556,0.0403266,1.11018,-0.261446,0.116515,0.0368428,-0.0445973,0,0,3.49573,1
1777253775570,0.0390369,1.10576,-0.254491,0.112373,0.0336758,-0.0366063,0,0,3.4107,1
1777253775583,0.0383673,1.10134,-0.24683,0.108866,0.0309647,-0.0291921,0,0,3.44401,1
1777253775597,0.0393649,1.09785,-0.239791,0.106973,0.0289538,-0.0238294,0,0,3.50262,1
1777253775610,0.0397861,1.09403,-0.233968,0.106123,0.0274967,-0.0205317,0,0,3.48545,1
1777253775624,0.0399647,1.08958,-0.229527,0.105724,0.0265281,-0.0191916,0,0,3.35247,1
1777253775637,0.0386679,1.08546,-0.225033,0.105819,0.0257894,-0.0180894,0,0,3.45443,1
1777253775651,0.0385668,1.07986,-0.220764,0.105762,0.0250793,-0.0168435,0,0,3.38118,1
1777253775664,0.0376496,1.07476,-0.215872,0.104959,0.0237667,-0.0154705,0,0,3.45792,1
1777253775678,0.0371263,1.06945,-0.214362,0.102968,0.0222752,-0.0134038,0,0,3.36508,1
1777253775692,0.0375773,1.06507,-0.210815,0.100143,0.0202849,-0.0114017,0,0,3.75851,1
1777253775705,0.0381673,1.06072,-0.20796,0.0970775,0.0181366,-0.0102183,0,0,3.4187,1
1777253775719,0.0394226,1.05791,-0.204689,0.0943511,0.016036,-0.0104673,0,0,3.40866,1
1777253775732,0.0391422,1.0549,-0.201206,0.0923772,0.0139418,-0.0113617,0,0,3.47381,1
1777253775746,0.0383572,1.05229,-0.198383,0.0906167,0.0120465,-0.0122958,0,0,3.32505,4
1777253775759,0.0365754,1.04944,-0.196211,0.0890792,0.0101804,-0.0121071,0,0,3.44053,4
1777253775773,0.0353181,1.04612,-0.19449,0.0876451,0.00829485,-0.0108456,0,0,3.38206,4
1777253775786,0.0329672,1.04401,-0.19318,0.0859574,0.00643369,-0.00794221,0,0,3.46408,4
1777253775800,0.0337884,1.04125,-0.191383,0.0837049,0.00447139,-0.00472206,0,0,3.4394,4
1777253775813,0.0353168,1.03823,-0.189576,0.0816216,0.00166859,-0.0027787,0,0,3.50251,4
1777253775827,0.0358692,1.03511,-0.187775,0.0795782,-0.00104979,-0.00125264,0,0,3.4219,4
1777253775840,0.0372261,1.03722,-0.186267,0.0795804,-0.0041081,-0.00104536,0,0,3.34373,4
1777253775854,0.0345354,1.03642,-0.185926,0.0787775,-0.00646391,0.000293559,0,0,3.42392,4
1777253775867,0.0341731,1.03471,-0.185603,0.0781225,-0.00849918,0.00221678,0,0,3.33816,4
1777253775881,0.0324891,1.03217,-0.186394,0.0773543,-0.00982511,0.00524388,0,0,3.44338,4
1777253775894,0.0304613,1.03344,-0.186141,0.0764194,-0.0109011,0.00912456,0,0,3.45482,4
1777253775908,0.0299851,1.03274,-0.184067,0.0760465,-0.012058,0.0136696,0,0,3.41279,4
1777253775922,0.0304806,1.03869,-0.181124,0.0777455,-0.0134156,0.0187733,0,0,3.42029,4
1777253775935,0.0329614,1.04181,-0.177469,0.0818112,-0.0156561,0.0257059,0,0,3.36862,4
1777253775949,0.0337281,1.06342,-0.172828,0.0920075,-0.0196335,0.0411132,0,0,3.43131,4
1777253775962,0.0320142,1.07157,-0.170186,0.110183,-0.0229554,0.0545857,0,0,3.36501,4
1777253775976,0.031629,1.09248,-0.165666,0.135453,-0.0265662,0.0680047,0,0,3.43771,4
1777253775989,0.0123534,1.11673,-0.160619,0.165492,-0.0250932,0.0843835,0,0,3.37797,4
1777253776003,0.0312024,1.14689,-0.15013,0.213509,-0.0266144,0.0948422,0,0,3.57532,4
1777253776016,0.0280691,1.16791,-0.143845,0.269555,-0.0282516,0.104432,0,0,3.4161,4
1777253776030,0.0302058,1.18903,-0.136954,0.336715,-0.0310558,0.112379,0,0,3.4089,4
1777253776043,0.0358243,1.20104,-0.134038,0.408877,-0.036289,0.120805,0,0,3.43779,4
1777253776057,0.0421958,1.21725,-0.128615,0.486618,-0.0420935,0.125397,0,0,3.35736,4
1777253776071,0.056632,1.24379,-0.120675,0.573361,-0.0522569,0.129273,0,0,3.45347,4
1777253776084,0.0725181,1.28048,-0.116466,0.672182,-0.0636656,0.126158,0,0,3.39032,4
1777253776098,0.101495,1.31631,-0.100594,0.774782,-0.0849207,0.118654,0,0,3.57712,4
1777253776111,0.126382,1.36823,-0.0875701,0.871626,-0.116125,0.114708,0,0,3.38329,4
1777253776125,0.15483,1.43305,-0.07881,0.963038,-0.15434,0.124828,0,0,3.44716,4
1777253776138,0.18008,1.49392,-0.0818939,1.04932,-0.208116,0.157934,0,0,3.49497,4
1777253776152,0.185385,1.47778,-0.0617023,1.13077,-0.270232,0.171123,0,0,3.35558,4
1777253776165,0.191652,1.52492,-0.0459163,1.20764,-0.321006,0.19157,0,0,3.46543,4
1777253776179,0.208455,1.53282,-0.036562,1.28021,-0.378241,0.211795,0,0,3.38457,4
1777253776193,0.221508,1.51609,-0.0149555,1.3487,-0.438474,0.241719,0,0,3.4646,4
1777253776206,0.238499,1.49499,0.0302808,1.41335,-0.507134,0.265892,0,0,3.4846,4
1777253776220,0.218438,1.54071,0.0402225,1.47438,-0.566234,0.26813,0,0,3.61742,4
1777253776233,0.184151,1.45164,0.0285583,1.53198,-0.602002,0.24993,0,0,3.40845,4
1777253776247,0.139271,1.37744,0.0222181,1.58635,-0.607448,0.225348,0,0,3.40908,4
1777253776261,0.0758865,1.25636,0.00552451,1.63738,-0.572128,0.205852,0,0,3.46532,4
1777253776274,0.0272736,1.11178,-0.011383,1.61983,-0.499611,0.168374,0,0,3.34336,4
1777253776288,-0.00561654,0.981065,-0.020988,1.54264,-0.402281,0.121053,0,0,3.45164,4
1777253776301,-0.021502,0.884007,-0.0212349,1.41712,-0.296605,0.0819515,0,0,3.4634,4
1777253776315,-0.0234593,0.812523,-0.0155246,1.26205,-0.196047,0.0543439,0,0,3.48014,4
1777253776328,-0.0161179,0.75239,-0.00769706,1.0867,-0.107904,0.0352044,0,0,3.39825,4
1777253776342,0.000123974,0.696629,0.000198159,0.895289,-0.037037,0.00933261,0,0,3.42177,4
1777253776356,0.0184676,0.639833,0.00829415,0.704762,0.0128004,-0.0310079,0,0,3.4486,4
1777253776369,0.0306879,0.58525,0.0194692,0.524923,0.0405097,-0.0774738,0,0,3.36788,4
1777253776383,0.0380459,0.554654,0.036577,0.35517,0.0493231,-0.11903,0,0,3.46299,4
1777253776396,0.043704,0.543892,0.0566008,0.19494,0.0423346,-0.148967,0,0,3.38038,4
1777253776410,0.0467988,0.556343,0.076501,0.043697,0.0238987,-0.159537,0,0,3.4681,4
1777253776423,0.0461046,0.585023,0.0916423,-0.0990621,-0.00154449,-0.148841,0,0,3.38962,4
1777253776437,0.039821,0.619625,0.0991007,-0.233814,-0.0276372,-0.127429,0,0,3.55873,4
1777253776450,0.0315207,0.651465,0.0974448,-0.361007,-0.0493974,-0.109409,0,0,3.48508,4
1777253776464,0.0163458,0.682422,0.0910203,-0.481065,-0.0625508,-0.103216,0,0,3.41199,4
1777253776478,0.00315871,0.714684,0.0792456,-0.594389,-0.0641376,-0.113462,0,0,3.46225,4
1777253776491,-0.0011405,0.760665,0.0641599,-0.701356,-0.0598463,-0.126957,0,0,3.37101,4
1777253776505,0.00240186,0.82554,0.0433061,-0.802324,-0.0517665,-0.129599,0,0,3.45768,4
1777253776518,0.00536208,0.888433,0.0165145,-0.897627,-0.0384707,-0.120385,0,0,3.38584,4
1777253776532,0.00399314,0.949085,-0.0146218,-0.987585,-0.0144496,-0.106276,0,0,3.48501,4
1777253776545,0.000126435,1.00162,-0.0526664,-1.0725,0.0233819,-0.0879232,0,0,3.38803,4
1777253776559,0.00362512,1.05971,-0.0925621,-1.15265,0.0727976,-0.0657782,0,0,3.45469,4
1777253776572,0.0177599,1.12315,-0.137026,-1.2283,0.126468,-0.0337041,0,0,3.4908,5
1777253776586,0.0345938,1.18731,-0.187966,-1.29971,0.17646,0.0108295,0,0,3.35151,5
1777253776599,0.0488265,1.24877,-0.246935,-1.358,0.219409,0.0532163,0,0,3.45071,5
1777253776613,0.0575089,1.30119,-0.315388,-1.38797,0.253119,0.0818057,0,0,3.48568,5
1777253776627,0.0612809,1.33743,-0.393133,-1.39313,0.277599,0.0922035,0,0,3.48897,5
1777253776640,0.0671694,1.3571,-0.472366,-1.37647,0.294916,0.0802234,0,0,3.38316,5
1777253776654,0.0881202,1.37253,-0.550207,-1.335,0.303012,0.0537533,0,0,3.53177,5
1777253776667,0.117509,1.38233,-0.627819,-1.26618,0.297054,0.035332,0,0,3.46255,5
1777253776681,0.195769,1.52915,-0.816972,-1.18314,0.26609,-0.0122217,0,0,3.42286,5
1777253776695,0.188129,1.32254,-0.74903,-1.00171,0.24839,-0.0412052,0,0,3.47014,5
1777253776708,0.165922,1.40039,-0.664069,-0.868119,0.240511,-0.0429617,0,0,3.44636,5
1777253776722,0.158793,1.35677,-0.6071,-0.694145,0.239815,-0.0606295,0,0,3.46482,5
1777253776735,0.139779,1.33504,-0.565186,-0.551292,0.237834,-0.0676036,0,0,3.37969,5
1777253776749,0.144798,1.31672,-0.533552,-0.41632,0.229152,-0.0717758,0,0,3.4813,5
1777253776762,0.134663,1.29672,-0.509265,-0.304967,0.207854,-0.0714065,0,0,3.38899,5
1777253776776,0.121494,1.28541,-0.487369,-0.207468,0.188253,-0.0568977,0,0,3.4336,5
1777253776789,0.107983,1.26178,-0.472137,-0.129535,0.173051,-0.0380474,0,0,3.4456,5
1777253776803,0.100789,1.24394,-0.457061,-0.0691438,0.162964,-0.0212436,0,0,3.33371,5
1777253776816,0.100312,1.21611,-0.439846,-0.0283899,0.154803,-0.0116895,0,0,3.45934,5
1777253776830,0.0936583,1.20279,-0.4235,0.00218646,0.149631,-0.00198621,0,0,3.38021,5
1777253776844,0.0934855,1.19019,-0.413316,0.0272711,0.14549,0.00565699,0,0,3.48706,5
1777253776857,0.0948971,1.17803,-0.39928,0.0475533,0.143979,0.006256,0,0,3.38356,5
1777253776871,0.0995984,1.16193,-0.389537,0.0635334,0.146432,-0.000761777,0,0,3.46805,5
1777253776884,0.0978873,1.15045,-0.375328,0.0744809,0.14727,-0.011094,0,0,3.4436,1
1777253776898,0.0976826,1.13914,-0.3643,0.0814359,0.145689,-0.0221526,0,0,3.37573,1
1777253776911,0.0940384,1.13081,-0.351301,0.0850506,0.143194,-0.0316104,0,0,3.45175,1
1777253776925,0.0885718,1.12189,-0.340182,0.0873878,0.137727,-0.0383753,0,0,3.3856,1
1777253776938,0.0818644,1.11524,-0.328879,0.0879368,0.132027,-0.0413567,0,0,3.4579,1
1777253776952,0.0751909,1.10967,-0.318634,0.0872262,0.125897,-0.0398462,0,0,3.39023,1
1777253776965,0.0699873,1.10524,-0.308882,0.0852965,0.119255,-0.0345753,0,0,3.49584,1
1777253776979,0.0658698,1.10139,-0.299116,0.0826958,0.112677,-0.0264315,0,0,3.40216,1
1777253776992,0.06464,1.09672,-0.290198,0.0800525,0.105796,-0.017447,0,0,3.41842,1
1777253777006,0.0637667,1.09318,-0.280781,0.0776945,0.0990479,-0.00897085,0,0,3.51143,1
1777253777020,0.0632986,1.08753,-0.272906,0.0750663,0.0923103,-0.00175369,0,0,3.39519,1
1777253777033,0.0633085,1.08521,-0.263925,0.073078,0.0858906,0.00442492,0,0,3.45118,1
1777253777047,0.063359,1.08102,-0.257118,0.0714195,0.0793986,0.00902807,0,0,3.3802,1
1777253777060,0.0618866,1.0773,-0.250625,0.0697385,0.0729753,0.0134458,0,0,3.47497,1
1777253777074,0.0607844,1.07471,-0.24392,0.0686142,0.0670707,0.0178384,0,0,3.39625,1
1777253777087,0.0586895,1.07295,-0.238209,0.0679254,0.0619726,0.0224813,0,0,3.40666,1
1777253777101,0.0584103,1.07013,-0.232981,0.0680461,0.0571176,0.0269451,0,0,3.44727,1
1777253777115,0.0566129,1.06725,-0.228828,0.068023,0.0529418,0.0320321,0,0,3.42792,1
1777253777128,0.055875,1.06475,-0.222511,0.0682409,0.0490301,0.0369921,0,0,3.45997,1
1777253777142,0.0561507,1.06256,-0.216685,0.0682582,0.0454278,0.0415283,0,0,3.34384,1
1777253777155,0.0573559,1.06049,-0.210584,0.0687113,0.0420233,0.0454632,0,0,3.44518,1
1777253777169,0.0581238,1.05941,-0.207728,0.0697727,0.0387241,0.0488906,0,0,3.38116,1
1777253777182,0.0586157,1.05673,-0.202088,0.070021,0.0356956,0.0524768,0,0,3.52479,5
1777253777196,0.0605454,1.05759,-0.19612,0.0714499,0.0326058,0.0551382,0,0,3.43043,5
1777253777210,0.0618739,1.05488,-0.193186,0.0738992,0.0299205,0.0573977,0,0,3.51173,5
1777253777223,0.0655106,1.0574,-0.186143,0.0795894,0.027086,0.0588111,0,0,3.4424,5
1777253777237,0.0674233,1.06419,-0.183411,0.0879364,0.0243335,0.060188,0,0,3.36286,5
1777253777250,0.0699956,1.06689,-0.17982,0.097241,0.0214871,0.0632005,0,0,3.45645,4
1777253777264,0.0743956,1.08027,-0.173349,0.108726,0.0180681,0.0641642,0,0,3.40575,4
1777253777277,0.0745226,1.0829,-0.170938,0.126644,0.0143057,0.0710813,0,0,3.46395,4
1777253777291,0.0784085,1.09814,-0.166115,0.148074,0.00842922,0.0801282,0,0,3.40145,4
1777253777304,0.0856232,1.11752,-0.161536,0.178716,0.00108829,0.0887618,0,0,3.39051,4
1777253777318,0.0938986,1.13012,-0.15683,0.216182,-0.00909079,0.0947274,0,0,3.48034,4
1777253777332,0.0942737,1.14586,-0.154058,0.262186,-0.0188231,0.0966588,0,0,3.33655,4
1777253777345,0.093902,1.1563,-0.150361,0.313699,-0.0286218,0.0977925,0,0,3.44195,4
1777253777359,0.0929896,1.16076,-0.149609,0.368625,-0.0383119,0.097728,0,0,3.37975,4
1777253777372,0.0952782,1.16067,-0.150365,0.425736,-0.0470559,0.0954147,0,0,3.4701,4
1777253777386,0.0985339,1.15009,-0.154598,0.482778,-0.0559047,0.0902853,0,0,3.40484,4
1777253777400,0.103483,1.13835,-0.162332,0.536724,-0.0661454,0.0833755,0,0,3.56116,4
1777253777413,0.103649,1.12586,-0.171919,0.587138,-0.075619,0.0746053,0,0,3.56753,4
1777253777427,0.104956,1.1141,-0.183009,0.635543,-0.0843086,0.0644474,0,0,3.45369,4
1777253777440,0.107026,1.10952,-0.19156,0.681193,-0.0947159,0.0562422,0,0,3.43992,4
1777253777454,0.108773,1.09346,-0.201466,0.725024,-0.104325,0.0463092,0,0,3.35916,4
1777253777467,0.111382,1.08492,-0.216432,0.764324,-0.11537,0.037884,0,0,3.44701,4
1777253777481,0.110187,1.07642,-0.228887,0.805671,-0.12576,0.0264973,0,0,3.42618,4
1777253777495,0.110416,1.06145,-0.245546,0.843076,-0.136793,0.0169654,0,0,3.47488,4
1777253777508,0.10603,1.04605,-0.261051,0.87837,-0.147926,0.0100534,0,0,3.39225,4
1777253777522,0.0978364,1.03113,-0.279028,0.912622,-0.156901,0.00410722,0,0,3.44001,4
1777253777535,0.0906778,1.01586,-0.300489,0.942264,-0.163185,0.00165455,0,0,3.43318,4
1777253777549,0.0828937,1.01514,-0.312775,0.971528,-0.168372,0.00274353,0,0,3.33342,4
1777253777562,0.0688907,1.02272,-0.325961,1.00907,-0.172325,0.00607508,0,0,3.43301,4
1777253777576,0.0482097,1.03686,-0.338654,1.04876,-0.173111,0.0182502,0,0,3.37164,4
1777253777589,0.0261004,1.08198,-0.348444,1.10078,-0.168269,0.0393081,0,0,3.45353,4
1777253777603,0.000205537,1.12408,-0.360506,1.17086,-0.157653,0.0667294,0,0,3.37673,4
1777253777616,-0.014911,1.15968,-0.373397,1.24549,-0.139437,0.0997034,0,0,3.50112,4
1777253777630,-0.0230444,1.20215,-0.387606,1.31593,-0.119455,0.140154,0,0,3.43944,4
1777253777643,-0.0240251,1.25082,-0.388994,1.38242,-0.100479,0.199427,0,0,3.3537,4
1777253777657,-0.027717,1.28386,-0.403794,1.44518,-0.0907148,0.255835,0,0,3.44375,4
1777253777670,-0.0137414,1.29931,-0.428746,1.50442,-0.074789,0.333022,0,0,3.37894,4
1777253777684,0.0477916,1.28956,-0.441356,1.56034,-0.087306,0.444476,0,0,3.46912,4
1777253777697,0.110447,1.30747,-0.455218,1.61312,-0.135375,0.559848,0,0,3.38208,4
1777253777711,0.116933,1.3044,-0.443844,1.66294,-0.190473,0.668749,0,0,3.58101,4
1777253777725,0.103102,1.12576,-0.397694,1.68122,-0.241233,0.73714,0,0,3.47638,4
1777253777738,0.0206573,0.92142,-0.45239,1.64234,-0.223048,0.738718,0,0,3.41642,4
1777253777752,-0.0289112,0.812356,-0.444995,1.45578,-0.176072,0.649637,0,0,3.48573,4
1777253777765,-0.023551,0.779237,-0.423499,1.29151,-0.117583,0.51546,0,0,3.34738,4
1777253777779,0.0108284,0.713384,-0.405413,1.07875,-0.0918136,0.35756,0,0,3.45918,4
1777253777792,0.0582885,0.676149,-0.379852,0.877936,-0.108912,0.204085,0,0,3.37201,4
1777253777806,0.0850509,0.637482,-0.347795,0.688382,-0.169921,0.0921032,0,0,3.47316,4
1777253777820,0.0947689,0.598355,-0.308251,0.509461,-0.255477,0.0167786,0,0,3.47243,4
1777253777833,0.0789357,0.580226,-0.267132,0.340576,-0.349855,-0.0301498,0,0,3.41081,4
1777253777847,0.0462564,0.602676,-0.225512,0.181164,-0.436027,-0.0513195,0,0,3.42945,4
1777253777860,0.00409856,0.626086,-0.197689,0.0306942,-0.503702,-0.0577111,0,0,3.34171,4
1777253777874,-0.0388717,0.633516,-0.182164,-0.111336,-0.546745,-0.0602673,0,0,3.44858,4
1777253777887,-0.0810886,0.642447,-0.172932,-0.245399,-0.560934,-0.0677456,0,0,3.37808,4
1777253777901,-0.112707,0.658435,-0.168257,-0.371942,-0.546096,-0.0854148,0,0,3.46636,4
1777253777914,-0.123914,0.678101,-0.165475,-0.491387,-0.512099,-0.102286,0,0,3.37962,4
1777253777928,-0.112732,0.71118,-0.166272,-0.604132,-0.472948,-0.0987962,0,0,3.47773,4
1777253777941,-0.089619,0.741472,-0.17227,-0.710553,-0.436327,-0.06961,0,0,3.44256,4
1777253777955,-0.0718563,0.778528,-0.180464,-0.811004,-0.399674,-0.0264835,0,0,3.36553,4
1777253777968,-0.0650868,0.816382,-0.191828,-0.905821,-0.356326,0.0165917,0,0,3.44375,4
1777253777982,-0.0644076,0.850085,-0.20617,-0.995319,-0.30363,0.0530503,0,0,3.36801,4
1777253777995,-0.0596856,0.881474,-0.21942,-1.0798,-0.244837,0.0900243,0,0,3.44714,4
1777253778009,-0.0514351,0.915442,-0.232871,-1.15954,-0.184864,0.138057,0,0,3.39086,4
1777253778023,-0.0419903,0.952244,-0.247718,-1.2348,-0.126418,0.191796,0,0,3.69217,4
1777253778036,-0.0370193,0.985448,-0.262732,-1.30585,-0.0692245,0.243168,0,0,3.44003,4
1777253778050,-0.0385171,1.01079,-0.275589,-1.37291,-0.0119167,0.285804,0,0,3.40064,5
1777253778063,-0.0409442,1.0463,-0.287232,-1.43621,0.0447371,0.316514,0,0,3.44525,5
1777253778077,-0.035402,1.09653,-0.302398,-1.49596,0.0959693,0.335768,0,0,3.36753,5
1777253778090,-0.0180099,1.14575,-0.322644,-1.55235,0.135786,0.342094,0,0,3.44549,5
1777253778104,0.00838977,1.18728,-0.346615,-1.5961,0.161426,0.33689,0,0,3.38371,5
1777253778117,0.0366638,1.23039,-0.376596,-1.62011,0.172188,0.327653,0,0,3.4789,5
1777253778131,0.0550393,1.26378,-0.413386,-1.6237,0.171676,0.325673,0,0,3.43875,5
1777253778145,0.0535406,1.29255,-0.453151,-1.60539,0.167291,0.33102,0,0,3.49762,5
1777253778158,0.0466481,1.41288,-0.527743,-1.5654,0.167764,0.310496,0,0,3.43832,5
1777253778172,0.0132054,1.40667,-0.588264,-1.45289,0.173443,0.272149,0,0,3.33612,5
1777253778185,0.0212154,1.53318,-0.641638,-1.28667,0.163141,0.253231,0,0,3.46634,5
1777253778199,0.0169441,1.44265,-0.57241,-1.09246,0.130778,0.231615,0,0,3.39021,5
1777253778212,0.0158567,1.40858,-0.503916,-0.95526,0.0918676,0.216452,0,0,3.47988,5
1777253778226,0.0183772,1.40324,-0.450247,-0.800865,0.0562533,0.189406,0,0,3.44288,5
1777253778239,0.000858287,1.38265,-0.4142,-0.651945,0.0311277,0.181783,0,0,3.45588,5
1777253778253,0.00958828,1.355,-0.389858,-0.521174,0.0172725,0.171501,0,0,3.44399,5
1777253778266,0.0168974,1.33154,-0.363087,-0.410371,0.00496531,0.156606,0,0,3.37229,5
1777253778280,0.00995138,1.31786,-0.343337,-0.314445,-0.00335455,0.148331,0,0,3.4671,5
1777253778293,0.00620238,1.29643,-0.32883,-0.229393,-0.00379582,0.142353,0,0,3.37216,5
1777253778307,0.00263628,1.27084,-0.316849,-0.163054,0.00271572,0.139566,0,0,3.44938,5
1777253778320,0.0039811,1.25436,-0.304294,-0.1093,0.0068581,0.139214,0,0,3.39099,5
1777253778334,0.00385365,1.2344,-0.293908,-0.0664261,0.00854583,0.14136,0,0,3.58143,1
1777253778348,0.00366488,1.2113,-0.285118,-0.0395352,0.0104558,0.141644,0,0,3.44247,1
1777253778361,0.00685553,1.20062,-0.276753,-0.0188842,0.0154699,0.142673,0,0,3.41886,1
1777253778375,0.0114147,1.18616,-0.264817,-0.00035491,0.0196634,0.141568,0,0,3.45619,1
1777253778388,0.0192786,1.17226,-0.255085,0.0137695,0.022534,0.136025,0,0,3.36469,1
1777253778402,0.0252225,1.16038,-0.24468,0.0256928,0.0259843,0.125835,0,0,3.45751,1
1777253778415,0.0308056,1.14996,-0.235652,0.0356371,0.0305985,0.111266,0,0,3.39318,1
1777253778429,0.0332407,1.13839,-0.228952,0.0429983,0.036461,0.0964954,0,0,3.51032,1
1777253778443,0.0343068,1.13091,-0.220793,0.0467652,0.0407102,0.083735,0,0,3.39219,1
1777253778456,0.0344777,1.12392,-0.213681,0.0499097,0.044858,0.0732234,0,0,3.50194,1
1777253778470,0.0296542,1.11828,-0.207036,0.0514904,0.0487475,0.0669024,0,0,3.46325,1
1777253778483,0.0299765,1.11239,-0.199326,0.0517751,0.0494729,0.0636249,0,0,3.35284,1
1777253778497,0.0296782,1.10938,-0.190761,0.052716,0.0499178,0.0636957,0,0,3.45447,1
1777253778510,0.0308345,1.10321,-0.184566,0.0533258,0.0489161,0.0648628,0,0,3.37625,1
1777253778524,0.032556,1.09869,-0.178951,0.0535589,0.04717,0.0663756,0,0,3.50397,1
1777253778537,0.0344273,1.09389,-0.172584,0.053081,0.0441387,0.0678035,0,0,3.4343,1
1777253778551,0.0362348,1.0893,-0.168066,0.0526769,0.0404597,0.0693654,0,0,3.51643,1
1777253778565,0.0382558,1.08581,-0.16272,0.0517603,0.0362591,0.071786,0,0,3.43949,1
1777253778578,0.0395199,1.08378,-0.155961,0.0512291,0.0317118,0.0747773,0,0,3.38155,1
1777253778592,0.040535,1.08108,-0.151431,0.051477,0.0268672,0.0783288,0,0,3.45551,1
1777253778605,0.0401922,1.07899,-0.148004,0.0518352,0.0221402,0.0826701,0,0,3.36266,1
1777253778619,0.0408273,1.07785,-0.142728,0.0527299,0.0179095,0.0883137,0,0,3.44845,1
1777253778632,0.0420429,1.07428,-0.138214,0.0544009,0.0144043,0.0928186,0,0,3.44903,1
1777253778646,0.0441627,1.07167,-0.135501,0.0565133,0.0117594,0.0967925,0,0,3.5734,1
1777253778660,0.0484506,1.06731,-0.131995,0.0592224,0.00972535,0.098227,0,0,3.44351,1
1777253778673,0.0512517,1.06518,-0.129206,0.0627214,0.00851186,0.0972646,0,0,3.40955,1
1777253778687,0.0558815,1.06121,-0.125848,0.0660285,0.00800016,0.0932432,0,0,3.44084,1
1777253778700,0.0601967,1.05769,-0.12476,0.0684479,0.00789396,0.0861632,0,0,3.36547,4
1777253778714,0.0644616,1.05403,-0.120898,0.0711126,0.00878711,0.0754425,0,0,3.44112,4
1777253778727,0.0687201,1.05033,-0.117663,0.0726688,0.00986138,0.0636576,0,0,3.38206,4
1777253778741,0.0711512,1.04722,-0.116157,0.0743517,0.0113164,0.0491167,0,0,3.47232,4
1777253778754,0.0719669,1.04619,-0.114093,0.0763599,0.0126642,0.0354172,0,0,3.38353,4
1777253778768,0.070532,1.04566,-0.113581,0.0793558,0.0138207,0.0244601,0,0,3.41079,4
1777253778782,0.0680958,1.04579,-0.113797,0.0831557,0.0149766,0.0166396,0,0,3.49653,4
1777253778795,0.0647007,1.04466,-0.114576,0.0880356,0.0158107,0.0115999,0,0,3.32992,4
1777253778809,0.0616055,1.0429,-0.113655,0.0925347,0.0161313,0.00920652,0,0,3.43923,4
1777253778822,0.058013,1.04176,-0.114004,0.0965545,0.0162541,0.0116275,0,0,3.36907,4
1777253778836,0.0540331,1.04356,-0.113771,0.102991,0.0165071,0.0165759,0,0,3.44184,4
1777253778849,0.0555762,1.04734,-0.113785,0.108325,0.0166816,0.0218891,0,0,3.39575,4
1777253778863,0.054198,1.04675,-0.113921,0.116465,0.0174458,0.0291137,0,0,3.52664,4
1777253778876,0.0549923,1.04447,-0.115268,0.124298,0.0179444,0.0374702,0,0,3.44671,4
1777253778890,0.0541399,1.04326,-0.117293,0.132205,0.0182524,0.0443989,0,0,3.42262,4
1777253778904,0.0583748,1.04106,-0.118013,0.140247,0.0179908,0.0515812,0,0,3.48912,4
1777253778917,0.0617011,1.04298,-0.118816,0.148531,0.0174612,0.0561982,0,0,3.34534,4
1777253778931,0.0672511,1.04096,-0.121217,0.157554,0.0157367,0.0593874,0,0,3.47508,4
1777253778944,0.0685047,1.04358,-0.123428,0.166529,0.0135009,0.0623163,0,0,3.43882,4
1777253778958,0.0683733,1.04423,-0.12568,0.17536,0.011245,0.0648069,0,0,3.46434,4
1777253778971,0.0693585,1.04376,-0.129162,0.184861,0.00864457,0.0676459,0,0,3.37314,4
1777253778985,0.0722331,1.04448,-0.131325,0.194334,0.00546638,0.069268,0,0,3.41866,4
1777253778998,0.0784659,1.04516,-0.132819,0.203536,0.00161438,0.0696602,0,0,3.43251,4
1777253779012,0.083185,1.04507,-0.134571,0.213469,-0.00339176,0.0693024,0,0,3.33725,4
1777253779025,0.0859413,1.04431,-0.137239,0.224296,-0.00862663,0.0677359,0,0,3.43027,4
1777253779039,0.0866532,1.04722,-0.140072,0.238373,-0.0137263,0.066163,0,0,3.4189,4
1777253779053,0.088229,1.04848,-0.144526,0.253845,-0.0185699,0.0630683,0,0,3.47362,4
1777253779066,0.089648,1.04968,-0.148607,0.270252,-0.0232617,0.0609265,0,0,3.35212,4
1777253779080,0.0919185,1.05078,-0.152063,0.287626,-0.0279472,0.0584853,0,0,3.53856,4
1777253779093,0.0933496,1.05214,-0.157036,0.306587,-0.0325968,0.0554531,0,0,3.40397,4
1777253779107,0.0973435,1.05573,-0.161976,0.327751,-0.0374053,0.0510452,0,0,3.40494,4
1777253779120,0.100168,1.05395,-0.168283,0.350348,-0.0423893,0.0459125,0,0,3.4369,4
1777253779134,0.101534,1.05507,-0.174469,0.372671,-0.0479331,0.040327,0,0,3.34844,4
1777253779147,0.103261,1.05863,-0.180651,0.396431,-0.053928,0.0358684,0,0,3.48229,4
1777253779161,0.104028,1.05558,-0.187307,0.422177,-0.0602075,0.0299771,0,0,3.36971,4
1777253779174,0.101083,1.05885,-0.194096,0.447455,-0.0668285,0.0268184,0,0,3.48169,4
1777253779188,0.0965905,1.05523,-0.203285,0.475053,-0.0730053,0.0236784,0,0,3.38484,4
1777253779201,0.0910219,1.04467,-0.215423,0.500799,-0.0785359,0.0217465,0,0,3.40657,4
1777253779215,0.0854369,1.04386,-0.227414,0.525097,-0.0830069,0.0221495,0,0,3.46368,4
1777253779228,0.0848625,1.03388,-0.23939,0.548699,-0.0862252,0.0218876,0,0,3.34264,4
1777253779242,0.085224,1.02635,-0.250106,0.571047,-0.0900851,0.0224411,0,0,3.45923,4
1777253779256,0.0831551,1.03201,-0.259905,0.596221,-0.0949788,0.0224284,0,0,3.36969,4
1777253779269,0.0829688,1.02881,-0.270716,0.622248,-0.100099,0.0222964,0,0,3.44149,4
1777253779283,0.0805334,1.03725,-0.276278,0.649008,-0.105771,0.0261112,0,0,3.43142,4
1777253779296,0.0763448,1.0482,-0.284883,0.684971,-0.110427,0.0276867,0,0,3.52229,4
1777253779310,0.072528,1.07149,-0.290129,0.723148,-0.115434,0.0346717,0,0,3.42034,4
1777253779323,0.0655017,1.09848,-0.293288,0.772834,-0.12216,0.0437955,0,0,3.40851,4
1777253779337,0.0549119,1.12473,-0.295707,0.833653,-0.125666,0.057914,0,0,3.44292,4
1777253779351,0.0491203,1.13889,-0.302415,0.905584,-0.125579,0.0742593,0,0,3.43269,4
1777253779364,0.0428729,1.13144,-0.314032,0.978786,-0.12274,0.0886729,0,0,3.45088,4
1777253779378,0.0459595,1.12823,-0.32801,1.05039,-0.116609,0.105138,0,0,3.40258,4
1777253779391,0.0569664,1.12937,-0.341971,1.12284,-0.115172,0.126199,0,0,3.46466,4
1777253779405,0.04387,1.1271,-0.352465,1.19589,-0.112985,0.143382,0,0,3.37982,4
1777253779418,0.0382184,1.12621,-0.365027,1.26911,-0.105371,0.172283,0,0,3.42966,4
1777253779432,0.0379234,1.11072,-0.385923,1.33823,-0.101221,0.208371,0,0,3.45464,4
1777253779445,0.015186,1.10399,-0.409672,1.40347,-0.0905932,0.240615,0,0,3.45612,4
1777253779459,0.021291,1.08827,-0.427283,1.46505,-0.080382,0.288533,0,0,3.44173,4
1777253779472,0.0406932,1.07601,-0.44707,1.52317,-0.0800051,0.346879,0,0,3.36586,4
1777253779486,0.0660049,1.0538,-0.475003,1.56774,-0.0881661,0.420252,0,0,3.44484,4
1777253779499,0.0714093,1.05268,-0.495153,1.61755,-0.10409,0.47696,0,0,3.36738,4
1777253779513,0.0762367,0.997217,-0.51824,1.64861,-0.119571,0.509005,0,0,3.53258,4
1777253779527,0.0737817,0.949237,-0.528159,1.65175,-0.132882,0.517641,0,0,3.42425,4
1777253779540,0.0864736,0.805992,-0.483332,1.62987,-0.148203,0.488815,0,0,3.43347,4
1777253779554,0.144946,0.536413,-0.486445,1.52053,-0.187941,0.44119,0,0,3.46168,5
1777253779567,0.13709,0.377295,-0.450052,1.29493,-0.231813,0.400536,0,0,3.35705,5
1777253779581,0.127277,0.40194,-0.405334,1.08199,-0.270013,0.351928,0,0,3.45499,5
1777253779594,0.105074,0.39847,-0.369657,0.880987,-0.304584,0.304086,0,0,3.37199,5
1777253779608,0.0779129,0.419804,-0.325614,0.691262,-0.336591,0.259004,0,0,3.5016,5
1777253779622,0.0549318,0.437723,-0.281645,0.512179,-0.361398,0.227772,0,0,3.42514,5
1777253779635,0.0414017,0.518878,-0.251865,0.343142,-0.38281,0.222065,0,0,3.40775,5
1777253779649,0.0317391,0.557628,-0.234601,0.183586,-0.404859,0.234114,0,0,3.49021,5
1777253779662,0.00241931,0.573746,-0.222236,0.0329801,-0.419371,0.250082,0,0,3.34147,5
1777253779676,-0.0391147,0.584824,-0.209948,-0.109178,-0.410462,0.24559,0,0,3.45097,5
1777253779689,-0.0767304,0.59917,-0.195118,-0.243362,-0.384706,0.220476,0,0,3.38249,5
1777253779703,-0.104088,0.643715,-0.179887,-0.370019,-0.344501,0.187744,0,0,3.4459,5
1777253779716,-0.128021,0.689473,-0.170851,-0.489572,-0.294039,0.162072,0,0,3.39268,5
1777253779730,-0.158719,0.728391,-0.16706,-0.602419,-0.230129,0.143977,0,0,3.58262,5
1777253779744,-0.198787,0.76966,-0.166783,-0.708936,-0.144737,0.119218,0,0,3.53071,5
1777253779758,-0.241196,0.798219,-0.164302,-0.809478,-0.0309546,0.0863562,0,0,3.84445,5
1777253779771,-0.276323,0.831188,-0.154387,-0.904381,0.109625,0.0560138,0,0,3.47912,5
1777253779785,-0.291937,0.867581,-0.13836,-0.990235,0.24378,0.032777,0,0,3.35086,5
1777253779798,-0.289612,0.905164,-0.118274,-1.06485,0.37041,0.01653,0,0,3.46145,5
1777253779812,-0.273271,0.945267,-0.0960006,-1.12339,0.489936,0.00336525,0,0,3.38094,5
1777253779825,-0.24392,0.983025,-0.0724706,-1.1666,0.602758,-0.00403417,0,0,3.47845,5
1777253779839,-0.196768,1.01728,-0.0478639,-1.19636,0.709252,-0.00413759,0,0,3.42188,5
1777253779852,-0.139595,1.04607,-0.0259521,-1.21388,0.809772,0.00107859,0,0,3.48223,5
1777253779866,-0.0748092,1.07307,-0.0100214,-1.22073,0.904654,0.0066102,0,0,3.45421,5
1777253779879,-0.00575613,1.09658,-0.00102347,-1.21761,0.994214,0.0114504,0,0,3.36231,5
1777253779893,0.0628472,1.1226,0.000417076,-1.20292,1.07875,0.0153983,0,0,3.46279,5
1777253779906,0.131971,1.14613,-0.00576882,-1.17435,1.15854,0.0210259,0,0,3.38634,5
1777253779920,0.199258,1.16461,-0.018989,-1.13249,1.23386,0.0302514,0,0,3.47919,5
1777253779934,0.266167,1.17068,-0.0357267,-1.08199,1.30496,0.043297,0,0,3.40301,5
1777253779947,0.340894,1.1705,-0.0559761,-1.02633,1.37206,0.0604022,0,0,3.57501,5
1777253779961,0.422646,1.16223,-0.0782532,-0.969396,1.4354,0.0861008,0,0,3.44071,5
1777253779975,0.486884,1.17237,-0.110318,-0.880157,1.47557,0.170047,0,0,3.71123,5
1777253779988,0.57877,1.19804,-0.146652,-0.810337,1.48498,0.280251,0,0,3.46725,5
1777253780002,0.633827,1.19688,-0.150614,-0.689197,1.48729,0.303111,0,0,3.48016,5
1777253780015,0.657434,1.12677,-0.137756,-0.613303,1.48687,0.26687,0,0,3.47273,5
1777253780029,0.65278,1.16161,-0.118813,-0.540823,1.4606,0.226946,0,0,3.43214,5
1777253780042,0.647798,1.11068,-0.114641,-0.485138,1.37289,0.208543,0,0,3.50092,5
1777253780056,0.597096,1.1127,-0.120535,-0.453215,1.28669,0.212071,0,0,3.43388,5
1777253780070,0.565397,1.09837,-0.122484,-0.414897,1.21945,0.205793,0,0,3.90413,5
1777253780084,0.5495,1.08681,-0.12283,-0.393709,1.14934,0.197997,0,0,3.44832,5
1777253780097,0.522662,1.08412,-0.121049,-0.370974,1.0827,0.191168,0,0,3.34814,5
1777253780111,0.496741,1.07956,-0.11886,-0.351257,1.02119,0.185579,0,0,3.4416,5
1777253780124,0.475766,1.07962,-0.117438,-0.330707,0.961649,0.181459,0,0,3.38347,5
1777253780138,0.456844,1.07817,-0.114206,-0.310962,0.906625,0.174531,0,0,3.48956,5
1777253780151,0.44012,1.07838,-0.109498,-0.289601,0.854781,0.166133,0,0,3.4476,1
1777253780165,0.422964,1.07495,-0.106902,-0.269923,0.806051,0.156441,0,0,3.46464,1
1777253780178,0.405813,1.07136,-0.104124,-0.251956,0.760208,0.144874,0,0,3.44358,1
1777253780192,0.388418,1.06707,-0.102639,-0.235944,0.717262,0.133104,0,0,3.37573,1
1777253780205,0.37204,1.06247,-0.100866,-0.222041,0.67708,0.121202,0,0,3.4539,1
1777253780219,0.35758,1.05968,-0.099084,-0.208704,0.639594,0.107951,0,0,3.39499,1
1777253780232,0.34222,1.05745,-0.097525,-0.195576,0.605002,0.094368,0,0,3.45756,1
1777253780246,0.327488,1.05608,-0.0964505,-0.181685,0.573143,0.0804596,0,0,3.38436,1
1777253780260,0.312994,1.05352,-0.0947515,-0.167713,0.543957,0.0664792,0,0,3.55919,1
1777253780273,0.298382,1.05311,-0.092737,-0.152722,0.51747,0.0526536,0,0,3.42636,1
1777253780287,0.284699,1.05105,-0.0907123,-0.137022,0.493021,0.0391239,0,0,3.41727,1
1777253780300,0.272043,1.04958,-0.0891983,-0.121192,0.469986,0.0257451,0,0,3.45977,1
1777253780314,0.258906,1.04865,-0.0883854,-0.104426,0.4494,0.0130654,0,0,3.3494,1
1777253780327,0.245986,1.04539,-0.0884398,-0.0896922,0.430324,0.00144377,0,0,3.44527,1
1777253780341,0.234858,1.04368,-0.08693,-0.0760503,0.410973,-0.00905499,0,0,3.37112,1
1777253780354,0.224506,1.04117,-0.0879562,-0.0624586,0.392536,-0.0178387,0,0,3.49532,1
1777253780368,0.212899,1.03926,-0.0907188,-0.0508238,0.374714,-0.024053,0,0,3.39573,1
1777253780381,0.201066,1.03581,-0.0929567,-0.041015,0.357104,-0.0271527,0,0,3.44786,1
1777253780395,0.191637,1.03391,-0.0939187,-0.0327069,0.339758,-0.0282544,0,0,3.43877,1
1777253780408,0.181517,1.032,-0.095443,-0.0246036,0.322824,-0.0273889,0,0,3.33812,1
1777253780422,0.171719,1.02934,-0.0971831,-0.0185435,0.306065,-0.0246023,0,0,3.44653,1
1777253780435,0.164264,1.02639,-0.0988804,-0.0137481,0.289976,-0.020863,0,0,3.35277,1
1777253780449,0.157077,1.0241,-0.100537,-0.0105063,0.27425,-0.017175,0,0,3.47612,1
1777253780463,0.150197,1.0215,-0.101855,-0.00861961,0.258961,-0.0134156,0,0,3.41994,5
1777253780476,0.143594,1.01956,-0.103262,-0.0077636,0.244165,-0.0101068,0,0,3.60312,5
1777253780490,0.138209,1.01743,-0.105016,-0.00756362,0.230135,-0.00751882,0,0,3.42216,5
1777253780504,0.132854,1.01466,-0.10741,-0.00858235,0.21709,-0.00539289,0,0,3.6741,5
1777253780517,0.127031,1.01394,-0.108411,-0.00993786,0.204703,-0.00357889,0,0,3.43621,5
1777253780531,0.122138,1.01378,-0.109232,-0.0112216,0.193289,-0.00215781,0,0,3.36114,5
1777253780545,0.118245,1.01364,-0.109609,-0.0124034,0.18255,-0.00127461,0,0,3.43695,5
1777253780558,0.1142,1.01326,-0.110172,-0.0132277,0.172477,-0.00127162,0,0,3.42518,5
1777253780572,0.110424,1.0132,-0.110784,-0.0138003,0.163085,-0.00182544,0,0,3.64214,5
1777253780585,0.106038,1.0129,-0.111212,-0.0143707,0.15431,-0.00263081,0,0,3.44038,5
1777253780600,0.102075,1.01256,-0.111479,-0.0151917,0.146057,-0.0034124,0,0,4.17313,5
1777253780613,0.0979794,1.01258,-0.111607,-0.0160823,0.138262,-0.00393178,0,0,3.50194,5
1777253780627,0.0949485,1.01144,-0.110975,-0.0172483,0.130738,-0.00449482,0,0,3.39805,5
1777253780641,0.0915125,1.01214,-0.109584,-0.0181991,0.123897,-0.00508622,0,0,3.47682,5
1777253780654,0.0891456,1.01232,-0.108861,-0.0186512,0.117178,-0.00587995,0,0,3.49958,5
1777253780668,0.0861994,1.01245,-0.108396,-0.0187526,0.11088,-0.00707019,0,0,3.51595,5
1777253780681,0.084021,1.01186,-0.108848,-0.0185228,0.104951,-0.0086347,0,0,3.41729,5
1777253780695,0.0810609,1.01174,-0.109138,-0.0184087,0.0993084,-0.0101971,0,0,3.54545,5
1777253780709,0.0777054,1.01186,-0.109329,-0.0183652,0.0939777,-0.0111666,0,0,3.46171,5
1777253780723,0.0743875,1.0122,-0.109715,-0.0184912,0.0887833,-0.0114266,0,0,3.86762,5
1777253780736,0.0711325,1.01271,-0.109888,-0.0186315,0.083769,-0.0105758,0,0,3.47562,5
1777253780750,0.068238,1.01298,-0.109695,-0.0190679,0.0789246,-0.00918616,0,0,3.40827,0
1777253780764,0.0661222,1.01279,-0.109225,-0.0194799,0.0743691,-0.00723647,0,0,3.48003,0
1777253780777,0.0640018,1.01274,-0.109302,-0.0197403,0.0702575,-0.00540898,0,0,3.42255,0
1777253780791,0.0618223,1.01285,-0.109101,-0.019879,0.0664493,-0.00366259,0,0,3.53358,0
1777253780805,0.0601348,1.01259,-0.108418,-0.019706,0.0628205,-0.00223253,0,0,3.41673,0
1777253780819,0.0620889,1.01401,-0.107526,-0.018849,0.0593695,-0.00200025,0,0,4.05573,0
1777253780832,0.0614272,1.01451,-0.10774,-0.0180914,0.0560308,-0.00187093,0,0,3.47538,0
1777253780846,0.0604603,1.01556,-0.107106,-0.0174791,0.0523998,-0.0021171,0,0,3.37862,0
1777253780860,0.0574113,1.01507,-0.105768,-0.0162418,0.049786,-0.00174571,0,0,3.5281,0
1777253780873,0.0558754,1.01418,-0.105258,-0.014256,0.0478626,-0.000740037,0,0,3.4121,0
1777253780887,0.0555075,1.01248,-0.104763,-0.0113967,0.046137,-0.00232135,0,0,3.50201,0
1777253780900,0.055393,1.01113,-0.105501,-0.00856944,0.0447737,-0.00553956,0,0,3.41542,0
1777253780914,0.0529706,1.01021,-0.105732,-0.00585363,0.0440734,-0.00941221,0,0,3.50816,0
1777253780928,0.0518755,1.00996,-0.105991,-0.00268641,0.0439263,-0.0134402,0,0,3.46086,0
1777253780942,0.048952,1.01157,-0.105058,0.00054722,0.0436718,-0.0157906,0,0,3.84319,0
1777253780955,0.0462746,1.01072,-0.105328,0.00377502,0.0438255,-0.0169259,0,0,3.46573,0
1777253780969,0.0442267,1.01024,-0.106486,0.00623944,0.0434696,-0.0170641,0,0,3.47123,0
1777253780982,0.0422937,1.00979,-0.107497,0.0066816,0.0427569,-0.0150408,0,0,3.48558,0
1777253780996,0.0402911,1.0091,-0.10841,0.00494946,0.0413605,-0.0117607,0,0,3.41064,0
1777253781010,0.0382365,1.00929,-0.109122,0.00264651,0.0398626,-0.0072559,0,0,3.58714,0
1777253781023,0.0377898,1.00894,-0.110067,0.000442768,0.0383032,-0.0032607,0,0,3.42907,0
1777253781038,0.0353825,1.00932,-0.111083,-0.00234387,0.0366428,0.00232163,0,0,4.15473,0
1777253781051,0.0351781,1.00958,-0.110782,-0.0056593,0.0351612,0.00849431,0,0,3.48243,0
1777253781065,0.0361629,1.00955,-0.110908,-0.00838626,0.0336256,0.0142736,0,0,3.47321,0
1777253781079,0.035093,1.00904,-0.111767,-0.0115469,0.032673,0.0207779,0,0,3.5006,0
1777253781092,0.0351651,1.00815,-0.111989,-0.0148856,0.0317095,0.0266089,0,0,3.40973,0
1777253781106,0.0362738,1.00739,-0.112116,-0.0181312,0.0306544,0.0313679,0,0,3.4961,0
1777253781119,0.0357592,1.00713,-0.11199,-0.0217044,0.029406,0.0358685,0,0,3.41499,0
1777253781133,0.0362595,1.00722,-0.111638,-0.0254196,0.0280777,0.0404891,0,0,3.57142,0
1777253781147,0.0340065,1.00794,-0.111415,-0.028858,0.027586,0.0453773,0,0,3.46975,0
1777253781161,0.0339614,1.00895,-0.110629,-0.0310844,0.0278584,0.0488223,0,0,4.00297,0
1777253781174,0.0342202,1.01058,-0.109025,-0.0321625,0.0288007,0.0523395,0,0,3.47592,0
1777253781188,0.029192,1.01267,-0.107224,-0.0319642,0.0321093,0.0565544,0,0,3.40651,0
1777253781202,0.023323,1.01366,-0.105235,-0.0300385,0.0385594,0.0599719,0,0,3.46921,0
1777253781215,0.011114,1.01617,-0.103605,-0.0265038,0.0538194,0.0635017,0,0,3.4174,0
1777253781229,-0.0252656,1.01845,-0.110502,-0.0219856,0.0887421,0.0654848,0,0,3.54021,0
1777253781243,-0.0772293,1.02278,-0.108686,-0.0167702,0.155845,0.0666544,0,0,3.41518,0
1777253781256,-0.14289,1.01942,-0.101576,-0.0138513,0.260522,0.060111,0,0,3.51967,0
1777253781270,-0.202909,1.02074,-0.0810337,-0.0114044,0.386212,0.0538275,0,0,3.47606,0
1777253781283,-0.239471,1.02326,-0.0487571,-0.00499705,0.504852,0.0458712,0,0,3.42338,0
1777253781297,-0.239884,1.02096,-0.0170995,0.00541842,0.616838,0.0359591,0,0,3.48832,0
1777253781311,-0.236439,1.02393,0.00970104,0.0162902,0.722542,0.0204756,0,0,3.41412,0
1777253781324,-0.233858,1.03388,0.03026,0.029271,0.822316,-0.00684369,0,0,3.51542,0
1777253781338,-0.239515,1.03969,0.0525827,0.0429925,0.916494,-0.0190528,0,0,3.41981,0
1777253781351,-0.243116,1.04469,0.0759813,0.057961,1.00539,-0.0359379,0,0,3.5546,0
1777253781365,-0.243639,1.04533,0.102532,0.0713449,1.0893,-0.0565346,0,0,3.80747,0
1777253781379,-0.237628,1.04955,0.128976,0.0833229,1.1685,-0.073531,0,0,4.03797,0
1777253781393,-0.228955,1.05402,0.151472,0.0944792,1.24326,-0.0850267,0,0,3.50825,0
1777253781407,-0.218564,1.05838,0.169831,0.106487,1.31383,-0.0908593,0,0,3.41258,0
1777253781420,-0.206948,1.06233,0.186337,0.118755,1.38044,-0.0935258,0,0,3.4968,0
1777253781434,-0.191738,1.06361,0.201576,0.130737,1.44331,-0.0951349,0,0,3.46982,4
1777253781448,-0.173067,1.06284,0.213194,0.142967,1.50265,-0.0948041,0,0,3.54088,4
1777253781461,-0.156088,1.05948,0.223612,0.153702,1.55867,-0.0969453,0,0,3.42729,4
1777253781475,-0.136309,1.0543,0.233788,0.162461,1.61154,-0.102957,0,0,3.99312,4
1777253781489,-0.11227,1.04563,0.243708,0.168065,1.66145,-0.110293,0,0,3.50597,4
1777253781503,-0.0842261,1.03358,0.253154,0.168978,1.70856,-0.11774,0,0,3.90456,4
1777253781517,-0.0520033,1.01128,0.261879,0.160108,1.75303,-0.123236,0,0,3.50662,4
1777253781530,-0.0161511,0.991665,0.268279,0.139891,1.78105,-0.12344,0,0,3.43414,4
1777253781544,0.0148963,0.979972,0.270663,0.112614,1.78896,-0.126677,0,0,3.51397,5
1777253781558,0.0421069,0.975207,0.268286,0.0863261,1.78076,-0.138959,0,0,3.42334,5
1777253781571,0.0675584,0.970243,0.262371,0.0604343,1.76023,-0.154835,0,0,3.6358,5
1777253781585,0.0922396,0.96297,0.253008,0.0321667,1.73046,-0.166515,0,0,3.44921,5
1777253781599,0.117632,0.959446,0.240118,0.00284716,1.69398,-0.173681,0,0,4.15684,5
1777253781613,0.146338,0.96083,0.224814,-0.02395,1.65233,-0.174875,0,0,3.48953,5
1777253781626,0.176775,0.96148,0.206931,-0.046585,1.60571,-0.165562,0,0,3.42108,5
1777253781640,0.206505,0.96334,0.187463,-0.0645249,1.55519,-0.14632,0,0,3.51108,5
1777253781654,0.231705,0.965889,0.167006,-0.0759392,1.50178,-0.120634,0,0,3.4139,5
1777253781667,0.251547,0.971637,0.146956,-0.0788431,1.44635,-0.0880948,0,0,3.51503,5
1777253781681,0.295543,1.01204,0.0840724,-0.0851338,1.38374,-0.0551757,0,0,3.47679,5
1777253781695,0.329073,1.00886,0.0749881,-0.0956019,1.30426,-0.0144517,0,0,3.54321,5
1777253781708,0.345795,1.07363,0.0864208,-0.10019,1.22878,-0.00875122,0,0,3.4909,5
1777253781722,0.339847,1.08462,0.0828058,-0.100291,1.15579,-0.014362,0,0,3.87614,5
1777253781736,0.315429,1.07931,0.0728887,-0.101521,1.08793,-0.0104349,0,0,3.49247,5
1777253781750,0.30431,1.07895,0.0674581,-0.104082,1.02375,-0.00563625,0,0,3.43968,5
1777253781763,0.292964,1.07428,0.0603328,-0.101605,0.963801,-0.00417684,0,0,3.48984,5
1777253781777,0.27901,1.07454,0.0521281,-0.097053,0.908185,-0.00255522,0,0,3.48186,5
1777253781791,0.265729,1.07364,0.0443974,-0.0912751,0.856382,-0.000930371,0,0,3.57484,5
1777253781804,0.252672,1.07221,0.0377165,-0.0853717,0.808196,0.00261153,0,0,3.42829,5
1777253781819,0.241238,1.06929,0.0308216,-0.0793455,0.762464,0.00666127,0,0,4.10297,5
1777253781832,0.230596,1.06631,0.0243955,-0.0738629,0.719092,0.0107836,0,0,3.48186,5
1777253781846,0.220756,1.06389,0.0190283,-0.0684566,0.677891,0.0147004,0,0,3.3899,5
1777253781859,0.214139,1.06173,0.0134692,-0.0635933,0.638736,0.0168303,0,0,3.51084,5
1777253781873,0.207578,1.05824,0.00772892,-0.0596837,0.601555,0.0174919,0,0,3.54643,5
1777253781887,0.199769,1.05513,0.00270775,-0.0564815,0.566695,0.0174528,0,0,3.51962,5
1777253781900,0.193575,1.05295,-0.00237414,-0.0532148,0.533927,0.016234,0,0,3.4451,5
1777253781914,0.187072,1.05086,-0.0073216,-0.0499473,0.503211,0.0140303,0,0,3.5858,5
1777253781928,0.181098,1.04936,-0.0119094,-0.0465633,0.474694,0.0110852,0,0,3.47919,5
1777253781942,0.174089,1.0473,-0.0163768,-0.0428938,0.448277,0.0077316,0,0,3.88023,5
1777253781955,0.167898,1.0455,-0.0205388,-0.0392589,0.42365,0.00389383,0,0,3.4934,5
1777253781969,0.161425,1.04326,-0.024303,-0.0356951,0.400614,0.000108628,0,0,3.41118,5
1777253781983,0.15541,1.04103,-0.0280752,-0.032631,0.378807,-0.0035242,0,0,3.52704,5
1777253781996,0.151062,1.03897,-0.0324712,-0.0298886,0.358059,-0.00736004,0,0,3.44779,5
1777253782010,0.145697,1.03654,-0.0361687,-0.0279338,0.338039,-0.0109465,0,0,3.58993,5
1777253782023,0.139907,1.03476,-0.0395903,-0.0268936,0.318915,-0.0132184,0,0,3.44068,5
1777253782038,0.134346,1.03349,-0.0426008,-0.0263313,0.300632,-0.014498,0,0,4.15889,5
1777253782051,0.129084,1.03213,-0.045511,-0.0260918,0.283225,-0.0148366,0,0,3.48682,5
1777253782065,0.124377,1.0312,-0.047984,-0.0258314,0.266692,-0.014317,0,0,3.40806,5
1777253782079,0.119386,1.03022,-0.0503731,-0.0257227,0.251005,-0.0128716,0,0,3.95173,5
1777253782093,0.11488,1.02881,-0.0526556,-0.0254788,0.236326,-0.0111048,0,0,3.43684,5
1777253782106,0.110395,1.02785,-0.054947,-0.0254113,0.222586,-0.00918025,0,0,3.51157,5
1777253782120,0.107147,1.02685,-0.0569866,-0.0252276,0.209677,-0.0075092,0,0,3.42238,5
1777253782133,0.105491,1.0253,-0.0588296,-0.0253797,0.197401,-0.0063301,0,0,3.47327,5
1777253782147,0.101916,1.02445,-0.060761,-0.0254034,0.185644,-0.0052728,0,0,3.46614,5
1777253782162,0.0985957,1.02372,-0.0618035,-0.0256269,0.174648,-0.00408641,0,0,4.77896,5
1777253782176,0.0958726,1.02276,-0.0632257,-0.0259065,0.164214,-0.00299226,0,0,3.46677,1
1777253782189,0.0940143,1.022,-0.0643079,-0.0260248,0.154283,-0.00211791,0,0,3.45736,1
1777253782203,0.0916577,1.02177,-0.0651925,-0.0257339,0.145051,-0.00166941,0,0,3.47058,1
1777253782216,0.090077,1.02163,-0.0660823,-0.0251982,0.136063,-0.00149441,0,0,3.36362,1
1777253782231,0.0885027,1.02169,-0.0661415,-0.0241958,0.127784,-0.0015262,0,0,3.48866,1
1777253782244,0.0864827,1.02181,-0.0662933,-0.0228686,0.119602,-0.00185593,0,0,3.38751,1
1777253782259,0.0853429,1.02058,-0.06745,-0.0212861,0.111925,-0.00299785,0,0,4.91535,1
1777253782273,0.0837877,1.01911,-0.0684185,-0.019878,0.104452,-0.00412281,0,0,3.38808,1
1777253782287,0.0815528,1.01823,-0.0694012,-0.0189343,0.09748,-0.00518468,0,0,4.15656,1
1777253782301,0.0787997,1.01829,-0.0699864,-0.0182533,0.0909973,-0.00598145,0,0,3.44888,1
1777253782314,0.0771048,1.01818,-0.0708537,-0.017769,0.0850067,-0.00694762,0,0,3.35292,1
1777253782328,0.0752859,1.01813,-0.0716314,-0.0172176,0.0797247,-0.00781678,0,0,3.45334,1
1777253782341,0.0729528,1.01809,-0.0725571,-0.0166586,0.0748588,-0.00785789,0,0,3.36649,1
1777253782355,0.070819,1.01829,-0.0728694,-0.0160838,0.0704671,-0.00747278,0,0,3.48003,1
1777253782369,0.0696676,1.01809,-0.0737394,-0.0153658,0.0663646,-0.00693801,0,0,3.39251,1
1777253782382,0.0681563,1.01798,-0.0740949,-0.0147265,0.0624493,-0.00606071,0,0,3.50099,5
1777253782396,0.0669352,1.01728,-0.0749372,-0.014273,0.0588394,-0.0050228,0,0,3.45584,5
1777253782409,0.066303,1.01594,-0.0754995,-0.0139691,0.0554447,-0.00468112,0,0,3.43588,5
1777253782423,0.0658158,1.01475,-0.0764547,-0.0139477,0.0521163,-0.00512077,0,0,3.44666,5
1777253782437,0.0645205,1.01362,-0.0769866,-0.0137306,0.0490902,-0.00564708,0,0,3.40105,5
1777253782450,0.063654,1.01276,-0.0778174,-0.0137054,0.0463152,-0.00677759,0,0,3.44329,5
1777253782464,0.0628909,1.0121,-0.0781222,-0.0136003,0.0438286,-0.00817011,0,0,3.39419,5
1777253782477,0.0617186,1.0116,-0.0781224,-0.0134155,0.0415757,-0.00975856,0,0,3.57219,5
1777253782491,0.060215,1.01148,-0.0783827,-0.0130655,0.0395176,-0.0108297,0,0,3.44145,5
1777253782504,0.0589326,1.01099,-0.0780807,-0.0127565,0.0373995,-0.0114212,0,0,3.49473,5
1777253782518,0.0576537,1.01052,-0.0782886,-0.0123664,0.0351989,-0.0117996,0,0,3.44866,5
1777253782532,0.0563918,1.01021,-0.0782657,-0.0121694,0.0329719,-0.0117372,0,0,3.38853,5
1777253782545,0.0555019,1.01015,-0.0779428,-0.0119878,0.0306129,-0.011567,0,0,3.44734,5
1777253782559,0.0543607,1.01034,-0.0775422,-0.0117821,0.0282192,-0.0109567,0,0,3.38536,5
1777253782572,0.0536258,1.01059,-0.0777666,-0.0113567,0.0256044,-0.00998243,0,0,3.49312,5
1777253782586,0.0526446,1.01094,-0.0778689,-0.0109167,0.0232304,-0.00872883,0,0,3.46447,5
1777253782599,0.0513897,1.01241,-0.0771301,-0.00966204,0.0210667,-0.00684761,0,0,3.42895,5
1777253782613,0.0508078,1.0123,-0.0772544,-0.00832364,0.0191229,-0.00520892,0,0,3.44443,5
1777253782626,0.0495328,1.01196,-0.0776729,-0.006949,0.0174765,-0.00331532,0,0,3.3754,5
1777253782640,0.0492741,1.01153,-0.0780544,-0.00558723,0.0162307,-0.00149797,0,0,3.46606,5
1777253782653,0.04903,1.01113,-0.0787978,-0.00414341,0.0151233,3.35293e-06,0,0,3.39945,5
1777253782667,0.048375,1.01048,-0.0793626,-0.00277202,0.0140737,0.00122778,0,0,3.49604,5
1777253782681,0.0481129,1.01037,-0.0794438,-0.00146899,0.0130788,0.00235355,0,0,3.40299,5
1777253782694,0.0482488,1.01026,-0.079589,-8.49086e-05,0.0119341,0.00284668,0,0,3.53525,5
1777253782708,0.0479116,1.01004,-0.0792878,0.00119585,0.0107808,0.00328219,0,0,3.43295,5
1777253782721,0.0483327,1.00999,-0.0796197,0.00245615,0.00976934,0.0033764,0,0,3.39457,5
1777253782735,0.0481551,1.01053,-0.0794674,0.00413817,0.00867328,0.00347818,0,0,3.45608,5
1777253782748,0.0486448,1.0106,-0.0795701,0.00611549,0.00750596,0.0032317,0,0,3.38406,5
1777253782762,0.0473541,1.01036,-0.0799273,0.00821312,0.0065497,0.00344864,0,0,3.48938,5
1777253782775,0.0462727,1.01187,-0.0791688,0.0106727,0.00563851,0.00407731,0,0,3.40329,5
1777253782789,0.0461285,1.01226,-0.0789049,0.0137992,0.00476987,0.00456796,0,0,3.49518,5
1777253782803,0.0452665,1.01263,-0.0797786,0.016866,0.00365023,0.00569905,0,0,3.44166,5
1777253782816,0.0445488,1.01204,-0.0814799,0.0194097,0.00270044,0.00770871,0,0,3.43905,5
1777253782830,0.0437344,1.01179,-0.082757,0.0211427,0.00172684,0.0104791,0,0,3.45544,5
1777253782843,0.0438968,1.01151,-0.0836749,0.022543,0.000632307,0.0132997,0,0,3.38592,5
1777253782857,0.0443378,1.01176,-0.0846509,0.0236935,-0.000499318,0.0163817,0,0,3.45262,5
1777253782870,0.0447403,1.01119,-0.0858323,0.0245568,-0.00166167,0.0187984,0,0,3.39008,5
1777253782884,0.0449696,1.01058,-0.0869474,0.0256029,-0.00255757,0.0205143,0,0,3.57906,5
1777253782897,0.0460899,1.01019,-0.0880685,0.0266845,-0.00334328,0.021239,0,0,3.44947,5
1777253782911,0.0474075,1.00985,-0.0881407,0.0275812,-0.00417911,0.0211824,0,0,3.46638,5
1777253782925,0.0475009,1.00935,-0.0889483,0.0283977,-0.00486101,0.0208292,0,0,3.46882,5
1777253782938,0.0476027,1.01001,-0.0900804,0.0293354,-0.00556461,0.0205686,0,0,3.38321,5
1777253782952,0.0478768,1.00997,-0.0907108,0.0303104,-0.00608744,0.0200015,0,0,3.49514,5
1777253782965,0.0482863,1.01012,-0.0919631,0.0309353,-0.00664946,0.0192991,0,0,3.41512,5
1777253782979,0.0487686,1.00991,-0.0932,0.0314009,-0.00697013,0.0183622,0,0,3.5419,5
1777253782993,0.0494292,1.00985,-0.0937649,0.0316306,-0.00729851,0.0168141,0,0,3.46286,5
1777253783006,0.0487519,1.00931,-0.09538,0.0315435,-0.0074372,0.0153015,0,0,3.43649,5
1777253783020,0.0486466,1.00831,-0.0968361,0.0311743,-0.00755955,0.0138694,0,0,3.45919,5
1777253783033,0.0483007,1.00703,-0.0978407,0.0302863,-0.00751232,0.0128688,0,0,3.39836,5
1777253783047,0.0484262,1.00598,-0.0990765,0.0288786,-0.00742492,0.0120699,0,0,3.46051,5
1777253783060,0.0488869,1.00596,-0.099572,0.0274215,-0.00763787,0.0112687,0,0,3.38299,5
1777253783074,0.0498012,1.00597,-0.100629,0.0259775,-0.00799302,0.0104396,0,0,3.50495,5
1777253783087,0.0496644,1.00628,-0.101201,0.0244776,-0.00876501,0.0097898,0,0,3.41138,5
1777253783101,0.0486315,1.00665,-0.101947,0.0230575,-0.0093267,0.00998143,0,0,3.50692,5
1777253783115,0.0482728,1.00654,-0.10309,0.0216014,-0.0098526,0.010933,0,0,3.45781,5
1777253783128,0.047359,1.00644,-0.103497,0.0202227,-0.0105288,0.0123023,0,0,3.39901,5
1777253783142,0.0472223,1.00623,-0.10395,0.0188829,-0.0110301,0.0136161,0,0,3.46714,5
1777253783155,0.047463,1.00623,-0.104624,0.0176267,-0.0114348,0.0145523,0,0,3.39716,0
1777253783169,0.0477998,1.0053,-0.105822,0.0163511,-0.0118382,0.0149092,0,0,3.4791,0
1777253783182,0.0477616,1.00499,-0.106473,0.014933,-0.0120776,0.0148651,0,0,3.43434,0
1777253783196,0.0500126,1.00372,-0.107882,0.013513,-0.0122736,0.0146136,0,0,3.4951,0
1777253783210,0.0499598,1.00374,-0.108226,0.0120185,-0.0123259,0.0144447,0,0,3.45312,0
1777253783223,0.0498005,1.00372,-0.108647,0.0104666,-0.0121312,0.0141826,0,0,3.44153,0
1777253783237,0.048979,1.00388,-0.108728,0.00909165,-0.0118447,0.014252,0,0,3.46101,0
1777253783250,0.0488336,1.00417,-0.10908,0.00797793,-0.0115229,0.0142618,0,0,3.38438,0
1777253783264,0.0491346,1.00478,-0.109014,0.00717932,-0.0110521,0.0140784,0,0,3.48823,0
1777253783277,0.0498569,1.00557,-0.108528,0.00660105,-0.0105477,0.0137555,0,0,3.41429,0
1777253783291,0.0495801,1.00608,-0.108671,0.00605951,-0.0100631,0.0136219,0,0,3.60569,0
1777253783305,0.0496338,1.00704,-0.108601,0.00584379,-0.00961,0.0137142,0,0,3.4691,0
1777253783319,0.0496297,1.00789,-0.108412,0.00580288,-0.00916087,0.0138655,0,0,4.1541,0
1777253783333,0.050379,1.00883,-0.107932,0.00622671,-0.00874122,0.014034,0,0,3.48758,0
1777253783346,0.0507576,1.00955,-0.10804,0.00707208,-0.00838792,0.0141246,0,0,3.40482,0
1777253783360,0.0510054,1.01039,-0.108074,0.00873069,-0.00794311,0.0140474,0,0,3.48916,0
1777253783374,0.0512394,1.01127,-0.108065,0.0108015,-0.00757036,0.0141843,0,0,3.4184,0
1777253783387,0.0518573,1.01173,-0.108165,0.0130645,-0.00717141,0.0142108,0,0,3.50436,0
1777253783401,0.0517969,1.01175,-0.108096,0.0152861,-0.00678199,0.0146811,0,0,3.46484,0
1777253783415,0.0510005,1.01298,-0.108058,0.0182053,-0.00644011,0.015823,0,0,3.47256,0
1777253783428,0.0530149,1.01351,-0.107653,0.0226521,-0.00648993,0.0165283,0,0,3.46643,0
1777253783442,0.0537113,1.01563,-0.106873,0.0277015,-0.00705934,0.0178963,0,0,3.82715,0
1777253783456,0.0565597,1.01942,-0.106384,0.0333112,-0.00844034,0.0190462,0,0,3.49345,0
1777253783469,0.0606041,1.02519,-0.105223,0.0407258,-0.0113025,0.0210308,0,0,3.40384,0
1777253783483,0.060286,1.03326,-0.10169,0.0495871,-0.0155969,0.0248395,0,0,3.48884,0
1777253783497,0.0580547,1.05084,-0.0999025,0.0631495,-0.0191795,0.0342194,0,0,3.56369,0
1777253783510,0.0632751,1.06646,-0.0972567,0.0835258,-0.025006,0.0481899,0,0,3.54029,0
1777253783524,0.0599861,1.08535,-0.093609,0.110205,-0.0294267,0.0581098,0,0,3.45053,0
1777253783538,0.0597436,1.11187,-0.0883857,0.144723,-0.0335395,0.0668052,0,0,4.03538,0
1777253783552,0.0593779,1.13392,-0.0843591,0.187872,-0.0374772,0.0755824,0,0,3.4906,0
1777253783565,0.0606896,1.16071,-0.0779839,0.240431,-0.0412626,0.0831436,0,0,3.38366,0
1777253783579,0.0639272,1.18768,-0.0703777,0.303076,-0.0469509,0.0897155,0,0,3.48558,0
1777253783592,0.0687771,1.21583,-0.0618013,0.378097,-0.0550391,0.0948269,0,0,3.41008,0
1777253783607,0.0771073,1.23825,-0.05487,0.462583,-0.0658336,0.0979217,0,0,3.49605,0
1777253783620,0.087668,1.27763,-0.0456708,0.557075,-0.0808569,0.101434,0,0,3.42606,0
1777253783635,0.107715,1.311,-0.0354402,0.664898,-0.104046,0.110088,0,0,4.94283,0
1777253783649,0.122023,1.33426,-0.0291522,0.767906,-0.134084,0.121058,0,0,3.42401,0
1777253783663,0.120492,1.32507,-0.0371715,0.865137,-0.161888,0.118729,0,0,4.03823,0
1777253783677,0.12536,1.29928,-0.0427417,0.9552,-0.186476,0.114026,0,0,3.49186,0
1777253783690,0.118945,1.27452,-0.0575033,1.04192,-0.208725,0.0867517,0,0,3.41818,0
1777253783704,0.117751,1.22305,-0.0828034,1.11298,-0.221899,0.0693569,0,0,3.51375,0
1777253783717,0.121471,1.1942,-0.0999739,1.17315,-0.237794,0.0625291,0,0,3.40627,0
1777253783731,0.120601,1.16667,-0.113401,1.22759,-0.255173,0.0652176,0,0,3.50149,0
1777253783745,0.122025,1.1421,-0.121803,1.28119,-0.27476,0.0763104,0,0,3.42306,0
1777253783760,0.118604,1.11365,-0.133184,1.33112,-0.295487,0.087419,0,0,4.83494,0
1777253783773,0.105693,1.0692,-0.140312,1.38346,-0.313912,0.0903684,0,0,3.42938,0
1777253783787,0.0875218,0.952793,-0.152394,1.39746,-0.321057,0.0686173,0,0,4.15165,5
1777253783801,0.0589348,0.842516,-0.158773,1.37477,-0.310525,0.0250412,0,0,3.73314,5
1777253783815,0.0309653,0.766431,-0.170272,1.2887,-0.28465,-0.0234639,0,0,3.42344,5
1777253783828,0.00967274,0.677605,-0.167691,1.15871,-0.245077,-0.0652319,0,0,3.49555,5
1777253783842,0.000817651,0.616603,-0.162626,0.99253,-0.202912,-0.0902014,0,0,3.41142,4
1777253783856,-0.00156996,0.57547,-0.154833,0.801652,-0.161056,-0.0989422,0,0,3.50545,4
1777253783869,-0.000495899,0.544492,-0.139807,0.616378,-0.120413,-0.0976571,0,0,3.43916,4
1777253783884,7.96947e-05,0.537121,-0.12038,0.441495,-0.0828079,-0.0894431,0,0,5.04424,4
1777253783898,-0.00043147,0.552061,-0.100645,0.276423,-0.0482542,-0.0772282,0,0,3.43006,4
1777253783912,0.00222206,0.577461,-0.0850436,0.120609,-0.0166621,-0.066268,0,0,4.26043,4
1777253783926,0.00845164,0.603942,-0.071906,-0.0264639,0.0104304,-0.0644092,0,0,3.50156,4
1777253783939,0.0138799,0.630869,-0.0598066,-0.165288,0.0310534,-0.0717493,0,0,3.42497,4
1777253783953,0.020332,0.659079,-0.0488241,-0.296324,0.0446278,-0.0847922,0,0,3.50573,4
1777253783967,0.0266413,0.678462,-0.0390465,-0.420011,0.0506026,-0.0960117,0,0,3.40982,4
1777253783980,0.0332814,0.697785,-0.0252982,-0.53676,0.0508429,-0.105608,0,0,3.50834,4
1777253783994,0.0333318,0.728103,-0.0119239,-0.64696,0.048933,-0.114448,0,0,3.41703,4
1777253784009,0.0285863,0.767032,0.000974091,-0.750978,0.0453104,-0.124934,0,0,4.8194,4
1777253784022,0.0203547,0.811241,0.0101495,-0.849162,0.0474147,-0.134497,0,0,3.44584,4
1777253784036,0.0125301,0.850656,0.0172491,-0.941839,0.0567272,-0.137674,0,0,3.58192,4
1777253784049,0.00834886,0.896117,0.0233068,-1.02932,0.0730105,-0.134169,0,0,3.47412,4
1777253784063,0.0128516,0.953381,0.0267925,-1.11189,0.0938228,-0.1255,0,0,3.38768,4
1777253784077,0.0225385,1.00505,0.0249062,-1.18983,0.115069,-0.113065,0,0,3.49303,5
1777253784090,0.0356124,1.04894,0.0185655,-1.2538,0.133663,-0.0963611,0,0,3.43192,5
1777253784104,0.0502124,1.08011,0.0120463,-1.31036,0.14719,-0.0734475,0,0,4.13658,5
1777253784118,0.063213,1.11927,0.00434535,-1.35449,0.155693,-0.0504831,0,0,3.4129,5
1777253784131,0.0749639,1.16072,-0.00937372,-1.37579,0.158859,-0.035765,0,0,3.46871,5
1777253784145,0.083933,1.18383,-0.0283762,-1.37899,0.156846,-0.0245999,0,0,3.48099,5
1777253784158,0.0900436,1.19866,-0.0499966,-1.37168,0.149757,-0.0134103,0,0,3.43956,5
1777253784172,0.0945242,1.21418,-0.0711711,-1.34989,0.137649,-0.00195771,0,0,3.47258,5
1777253784186,0.0936317,1.22423,-0.0923082,-1.31364,0.122143,0.00721253,0,0,3.3871,5
1777253784199,0.0853669,1.22752,-0.111945,-1.26531,0.107816,0.0101649,0,0,3.47601,5
1777253784213,0.0731698,1.22855,-0.12807,-1.20651,0.0976403,0.00758657,0,0,3.47168,5
1777253784226,0.0608078,1.22675,-0.138374,-1.13789,0.0929941,0.00274214,0,0,3.6323,5
1777253784240,0.0502758,1.22033,-0.142677,-1.06244,0.0940422,-0.00297381,0,0,3.43595,5
1777253784254,0.0415397,1.21322,-0.14263,-0.981168,0.0993776,-0.00847191,0,0,3.45862,5
1777253784267,0.0330335,1.20245,-0.140915,-0.896733,0.108297,-0.01382,0,0,3.50016,5
1777253784281,0.0249496,1.18918,-0.13853,-0.813257,0.120065,-0.0196817,0,0,3.40071,5
1777253784294,0.0212768,1.30835,0.0936033,-0.769185,0.109605,0.00981103,0,0,3.52292,5
1777253784308,0.0624539,1.21777,0.170848,-0.684193,0.0995308,0.00649034,0,0,3.51919,5
1777253784322,0.0581702,1.26842,0.19242,-0.553729,0.0933441,-0.00665509,0,0,3.5644,5
1777253784335,0.0403364,1.21318,0.209385,-0.442388,0.081831,0.0046755,0,0,3.46995,5
1777253784349,0.0543839,1.21189,0.214676,-0.326944,0.0619333,0.00017848,0,0,3.50856,5
1777253784363,0.0529082,1.18376,0.211152,-0.233899,0.0359966,-0.00584755,0,0,3.48344,5
1777253784376,0.0441614,1.17099,0.212386,-0.150608,0.0134074,-0.00528833,0,0,3.42612,5
1777253784390,0.0384387,1.15641,0.211251,-0.0751574,-0.00218131,-0.00219135,0,0,3.50019,5
1777253784403,0.0332561,1.14351,0.206467,-0.0101092,-0.0115347,0.00276579,0,0,3.40786,5
1777253784417,0.031555,1.12909,0.201035,0.043463,-0.0185993,0.00817707,0,0,3.50093,1
1777253784430,0.0338112,1.12145,0.196825,0.0878943,-0.0265822,0.0128609,0,0,3.42394,1
1777253784444,0.0340373,1.1138,0.191714,0.127371,-0.0339718,0.0175646,0,0,3.4846,1
1777253784458,0.0350998,1.10694,0.18589,0.161517,-0.0400476,0.0205701,0,0,3.5126,1
1777253784471,0.0322682,1.10035,0.180311,0.190137,-0.0439928,0.0269523,0,0,3.44729,1
1777253784485,0.033156,1.09485,0.173785,0.216099,-0.0481363,0.0303261,0,0,3.50877,1
1777253784498,0.0324739,1.08729,0.167283,0.238429,-0.0505231,0.0333865,0,0,3.40932,1
1777253784512,0.0321451,1.08388,0.162473,0.260201,-0.0522194,0.0361896,0,0,3.4991,1
1777253784525,0.0320538,1.07894,0.155674,0.281556,-0.0534865,0.0387369,0,0,3.40894,1
1777253784539,0.0288727,1.07379,0.148845,0.30063,-0.0546654,0.0443314,0,0,3.51647,1
1777253784553,0.0246649,1.06892,0.139839,0.316716,-0.0547505,0.0527934,0,0,3.41555,1
1777253784566,0.0265817,1.0624,0.129585,0.325618,-0.0538932,0.0592694,0,0,3.43388,1
1777253784580,0.025433,1.05452,0.115757,0.329337,-0.0513883,0.0691543,0,0,3.4881,1
1777253784593,0.0269918,1.05033,0.103197,0.32701,-0.0485957,0.0802661,0,0,3.41358,1
1777253784607,0.0260256,1.04832,0.0913964,0.324082,-0.0455016,0.0911057,0,0,3.49514,1
1777253784620,0.028811,1.04243,0.0814904,0.317011,-0.0423755,0.0994361,0,0,3.48564,1
1777253784634,0.0311389,1.0383,0.0714143,0.307223,-0.0374937,0.104919,0,0,3.50432,1
1777253784648,0.0365545,1.03552,0.0637931,0.297355,-0.0325817,0.10639,0,0,3.44366,1
1777253784661,0.0437067,1.0313,0.0553807,0.286901,-0.0275555,0.10404,0,0,3.49105,1
1777253784675,0.0494033,1.02788,0.0478783,0.274632,-0.0226187,0.0987824,0,0,3.50253,1
1777253784688,0.0542325,1.02674,0.0414541,0.262644,-0.0181043,0.091062,0,0,3.48119,1
1777253784702,0.0569285,1.02581,0.0353355,0.250511,-0.0143312,0.083188,0,0,3.50717,1
1777253784716,0.0589117,1.02399,0.0301216,0.238189,-0.0114464,0.0759955,0,0,3.48549,1
1777253784729,0.0606194,1.02366,0.0252001,0.225955,-0.00998649,0.0698487,0,0,3.48405,5
1777253784743,0.0612589,1.02421,0.0211983,0.214758,-0.00893819,0.0644235,0,0,3.43386,5
1777253784756,0.0625748,1.02456,0.017558,0.204501,-0.00790159,0.0592812,0,0,3.50195,5
1777253784770,0.0635429,1.02441,0.014067,0.195432,-0.00695739,0.0539778,0,0,3.43066,5
1777253784783,0.0663328,1.02483,0.0111416,0.187005,-0.00595055,0.0474517,0,0,3.44753,5
1777253784797,0.0700892,1.02577,0.00895549,0.180502,-0.00478609,0.0384786,0,0,3.46262,5
1777253784811,0.0745387,1.02593,0.00727543,0.176055,-0.00310033,0.0251531,0,0,3.81138,5
1777253784824,0.0771912,1.02482,0.00388195,0.173065,-0.000425813,0.00780514,0,0,3.48206,5
1777253784838,0.0797223,1.02423,0.000733593,0.171831,0.00410259,-0.0134126,0,0,3.39588,4
1777253784852,0.0774963,1.02324,-0.00188211,0.171386,0.00975575,-0.0347503,0,0,3.47508,4
1777253784865,0.0776138,1.02095,-0.00745973,0.171364,0.0128652,-0.0502882,0,0,3.4027,4
1777253784879,0.0699325,1.02274,-0.0110401,0.170944,0.0147256,-0.0584804,0,0,3.48014,4
1777253784892,0.0637502,1.02412,-0.0146387,0.170626,0.0161904,-0.0615116,0,0,3.44918,4
1777253784906,0.0566001,1.0259,-0.0187065,0.170274,0.016995,-0.0586864,0,0,3.43142,4
1777253784919,0.054603,1.0266,-0.0219846,0.170126,0.0172877,-0.0535747,0,0,3.46882,4
1777253784933,0.0517593,1.02719,-0.0252295,0.169793,0.0172857,-0.0463777,0,0,3.39288,4
1777253784946,0.0524302,1.02699,-0.0285389,0.169916,0.0170397,-0.0404749,0,0,3.46505,4
1777253784960,0.0516393,1.027,-0.0321694,0.17002,0.0167305,-0.0347191,0,0,3.38566,4
1777253784973,0.0483319,1.02636,-0.0360618,0.170318,0.0168197,-0.0285155,0,0,3.51043,4
1777253784987,0.0473874,1.02632,-0.0387088,0.170484,0.0165057,-0.0220389,0,0,3.41912,4
1777253785001,0.0447704,1.02501,-0.0427274,0.170868,0.0163077,-0.0142557,0,0,3.45747,4
1777253785014,0.0421633,1.0214,-0.0465206,0.170999,0.0162708,-0.00681494,0,0,3.72264,4
1777253785028,0.0413457,1.02927,-0.0452532,0.175097,0.0154437,0.00227664,0,0,3.40805,4
1777253785041,0.0426966,1.03162,-0.0503016,0.1803,0.0134556,0.00974496,0,0,3.48406,4
1777253785055,0.0464231,1.04227,-0.0522731,0.187447,0.0104614,0.0174495,0,0,3.40114,4
1777253785069,0.0449284,1.05035,-0.0570373,0.196462,0.00666324,0.0221956,0,0,3.4941,4
1777253785082,0.046585,1.05904,-0.0621504,0.207759,0.00151092,0.0363781,0,0,3.43927,4
1777253785096,0.0494086,1.06336,-0.0635395,0.222769,-0.00414025,0.0487161,0,0,3.51821,4
1777253785109,0.0518411,1.07111,-0.0648095,0.241826,-0.00888782,0.057917,0,0,3.4723,4
1777253785123,0.0554381,1.07719,-0.0663781,0.262555,-0.0136731,0.064872,0,0,3.46888,4
1777253785136,0.0539033,1.08097,-0.0705154,0.28624,-0.0177404,0.068932,0,0,3.45829,4
1777253785150,0.0523724,1.08423,-0.0746397,0.310519,-0.0213911,0.0739631,0,0,3.38058,4
1777253785164,0.0525433,1.09001,-0.0784232,0.337757,-0.0250854,0.0791017,0,0,3.46125,4
1777253785177,0.0542659,1.09885,-0.0814055,0.368909,-0.0288508,0.0846928,0,0,3.40099,4
1777253785191,0.0549194,1.10148,-0.0864254,0.402832,-0.0322294,0.0892809,0,0,3.46818,4
1777253785204,0.0600418,1.0985,-0.0928618,0.437604,-0.0363049,0.0915607,0,0,3.45006,4
1777253785218,0.0646167,1.0939,-0.098855,0.47282,-0.0405328,0.0899531,0,0,3.77604,4
1777253785232,0.0728242,1.09455,-0.106498,0.50961,-0.0464419,0.0873695,0,0,3.45919,4
1777253785245,0.0776681,1.09347,-0.115081,0.547269,-0.0531456,0.0818179,0,0,3.39673,4
1777253785259,0.0838014,1.09537,-0.122841,0.584885,-0.0617127,0.0763165,0,0,3.47149,4
1777253785272,0.0883309,1.09368,-0.131316,0.624757,-0.0713279,0.0667861,0,0,3.41708,4
1777253785286,0.0903193,1.09334,-0.140424,0.663267,-0.0816969,0.0600298,0,0,3.52155,4
1777253785299,0.0906076,1.08289,-0.153267,0.703663,-0.0916855,0.0512246,0,0,3.42977,4
1777253785313,0.0890857,1.07302,-0.167293,0.740684,-0.101401,0.0446218,0,0,3.45849,4
1777253785327,0.0854581,1.06661,-0.181149,0.778206,-0.110991,0.0390188,0,0,3.47684,4
1777253785340,0.0824859,1.05909,-0.194665,0.814326,-0.120077,0.0359309,0,0,3.39523,4
1777253785354,0.0745724,1.05672,-0.209724,0.849006,-0.128285,0.0360222,0,0,3.50625,4
1777253785367,0.0684312,1.06591,-0.218297,0.886986,-0.134483,0.0380779,0,0,3.40736,4
1777253785381,0.0562802,1.08885,-0.226731,0.930552,-0.14259,0.0469892,0,0,3.50308,4
1777253785394,0.0336087,1.11206,-0.234322,0.982974,-0.14882,0.0630952,0,0,3.41093,4
1777253785408,0.00649838,1.14541,-0.242171,1.0427,-0.14618,0.0892208,0,0,3.50671,4
1777253785421,-0.0140654,1.17127,-0.260482,1.11962,-0.13807,0.123892,0,0,3.52819,4
1777253785435,-0.0304356,1.18212,-0.274478,1.19712,-0.12115,0.155064,0,0,3.48069,4
1777253785449,-0.0356441,1.20124,-0.289237,1.27028,-0.102909,0.188791,0,0,3.48295,4
1777253785463,-0.0582399,1.22134,-0.303415,1.33933,-0.076031,0.212721,0,0,3.38856,4
1777253785476,-0.0439354,1.24457,-0.321097,1.4045,-0.0470043,0.271299,0,0,3.4766,4
1777253785490,-0.0312001,1.24042,-0.341828,1.46603,-0.0288673,0.307755,0,0,3.41758,4
1777253785503,-0.00537521,1.24942,-0.353508,1.5241,-0.012921,0.340855,0,0,3.52706,4
1777253785517,0.032764,1.24584,-0.357726,1.57891,-0.0108603,0.390271,0,0,3.42927,4
1777253785530,0.0655321,1.21418,-0.353039,1.63065,-0.0256016,0.429195,0,0,3.52132,4
1777253785544,0.0854654,1.1534,-0.329457,1.67848,-0.0450696,0.446762,0,0,3.49788,4
1777253785558,0.0962831,1.04874,-0.273289,1.67962,-0.0690206,0.436222,0,0,3.44042,4
1777253785571,0.150481,0.809656,-0.313231,1.64919,-0.104084,0.375627,0,0,3.49249,4
1777253785585,0.138082,0.677719,-0.306329,1.46148,-0.131499,0.307067,0,0,3.43164,4
1777253785598,0.143141,0.642005,-0.292844,1.27578,-0.160822,0.218293,0,0,3.54082,4
1777253785612,0.143931,0.578084,-0.273829,1.06391,-0.192929,0.120505,0,0,3.41614,4
1777253785626,0.143184,0.528677,-0.247993,0.863925,-0.23402,0.0170228,0,0,3.91588,4
1777253785640,0.134441,0.494667,-0.211624,0.675157,-0.283302,-0.0704557,0,0,3.5014,4
1777253785654,0.117067,0.481642,-0.170995,0.496978,-0.335659,-0.12973,0,0,3.59603,4
1777253785667,0.09393,0.510498,-0.128482,0.328793,-0.3829,-0.157269,0,0,3.47986,4
1777253785681,0.0811978,0.567139,-0.0943107,0.170042,-0.425796,-0.158385,0,0,3.41642,4
1777253785694,0.0693166,0.610125,-0.0714369,0.0201961,-0.463199,-0.140274,0,0,3.50008,4
1777253785708,0.0440926,0.651509,-0.0586654,-0.121245,-0.488158,-0.118498,0,0,3.40101,4
1777253785721,0.0156136,0.681492,-0.0554569,-0.254752,-0.489238,-0.113778,0,0,3.51153,4
1777253785735,-0.000928654,0.698098,-0.0520997,-0.38077,-0.471237,-0.12702,0,0,3.49714,4
1777253785749,-0.00216384,0.738053,-0.0461235,-0.49972,-0.445968,-0.140533,0,0,3.49458,5
1777253785762,0.00587292,0.778478,-0.0431117,-0.611998,-0.419977,-0.137759,0,0,3.48986,5
1777253785776,0.011391,0.816553,-0.0437611,-0.717978,-0.392698,-0.116295,0,0,3.43182,5
1777253785789,0.00736954,0.855067,-0.0447163,-0.818013,-0.35899,-0.0817858,0,0,3.4981,5
1777253785803,-0.00245191,0.891229,-0.0488499,-0.912436,-0.314181,-0.0474521,0,0,3.42021,5
1777253785817,-0.0128728,0.926514,-0.0520942,-1.00156,-0.258659,-0.0199556,0,0,3.51021,5
1777253785831,-0.0171218,0.96064,-0.0527053,-1.08569,-0.196326,0.00169531,0,0,4.00528,5
1777253785844,-0.01219,0.992318,-0.0512827,-1.1651,-0.134214,0.0251719,0,0,3.54436,5
1777253785858,-0.00109847,1.03218,-0.0511861,-1.24006,-0.0765794,0.0513779,0,0,3.44882,5
1777253785871,0.0114662,1.07406,-0.0548609,-1.31081,-0.0256458,0.0764866,0,0,3.47197,5
1777253785885,0.0219977,1.10218,-0.0625474,-1.37759,0.0176008,0.0990692,0,0,3.49927,5
1777253785899,0.0297884,1.13853,-0.0734729,-1.44062,0.0523971,0.115979,0,0,3.42381,5
1777253785912,0.0222152,1.29903,-0.210445,-1.50012,0.0928376,0.156921,0,0,3.47458,5
1777253785926,-0.00194171,1.21972,-0.27292,-1.52955,0.122407,0.172076,0,0,3.40349,5
1777253785939,-0.0284137,1.24795,-0.292189,-1.53548,0.152695,0.167258,0,0,3.51373,5
1777253785953,-0.0312706,1.25916,-0.331851,-1.54016,0.182324,0.156788,0,0,3.41801,5
1777253785966,-0.0257369,1.31653,-0.371945,-1.51144,0.21048,0.154014,0,0,3.45701,5
1777253785980,-0.0196234,1.36516,-0.419403,-1.46046,0.234812,0.165106,0,0,3.50923,5
1777253785994,-0.0157017,1.41178,-0.472019,-1.37367,0.252291,0.193388,0,0,3.4766,5
1777253786007,-0.0084667,1.47561,-0.524874,-1.24301,0.260786,0.232775,0,0,3.48553,5
1777253786021,0.00418257,1.50081,-0.551635,-1.0683,0.259102,0.276081,0,0,3.39471,5
1777253786034,0.056918,1.44049,-0.494522,-0.927991,0.237019,0.275033,0,0,3.52895,5
1777253786048,0.0650918,1.41767,-0.429918,-0.797742,0.200208,0.25347,0,0,3.43071,5
1777253786061,0.0551412,1.4002,-0.394327,-0.666189,0.16363,0.233103,0,0,3.5156,5
1777253786075,0.0459952,1.36811,-0.363033,-0.55197,0.140959,0.221137,0,0,3.4211,5
1777253786089,0.0458392,1.34777,-0.335233,-0.451891,0.125979,0.208026,0,0,3.46436,5
1777253786102,0.0487046,1.33097,-0.307829,-0.359943,0.112472,0.191832,0,0,3.50425,5
1777253786116,0.0475612,1.30848,-0.285345,-0.277709,0.101419,0.176173,0,0,3.37668,5
1777253786129,0.0408672,1.2872,-0.263642,-0.206647,0.0946213,0.164852,0,0,3.48056,5
1777253786143,0.0393144,1.26942,-0.242869,-0.142795,0.0907268,0.155143,0,0,3.48523,5
1777253786156,0.035233,1.25157,-0.224864,-0.0845851,0.085976,0.149219,0,0,3.4984,5
1777253786170,0.0360367,1.23405,-0.209758,-0.0343414,0.078186,0.145821,0,0,3.40882,1
1777253786184,0.0361927,1.21726,-0.197458,0.00826686,0.0680584,0.144347,0,0,3.49564,1
1777253786197,0.0301501,1.2045,-0.186122,0.0448284,0.0614576,0.145186,0,0,3.50366,1
1777253786211,0.0316223,1.18692,-0.182981,0.0707198,0.0565674,0.14427,0,0,3.47655,1
1777253786224,0.0284243,1.17301,-0.178113,0.0871474,0.0512577,0.146514,0,0,3.49258,1
1777253786238,0.0255427,1.16262,-0.171505,0.0992153,0.0452482,0.1507,0,0,3.48868,1
1777253786252,0.0254383,1.15153,-0.166267,0.106401,0.0431854,0.150802,0,0,3.53299,1
1777253786265,0.0256821,1.14011,-0.162103,0.111039,0.0452247,0.148347,0,0,3.4268,1
1777253786279,0.03139,1.13004,-0.156571,0.111533,0.0472995,0.141293,0,0,3.53651,1
1777253786293,0.0347921,1.12328,-0.148104,0.111709,0.0514374,0.131535,0,0,3.43568,1
1777253786306,0.0355383,1.11658,-0.141166,0.111643,0.0561525,0.121442,0,0,3.46158,1
1777253786320,0.0368452,1.11095,-0.134576,0.110985,0.0606502,0.111594,0,0,3.47227,1
1777253786333,0.0379967,1.10511,-0.128342,0.109954,0.0603568,0.102427,0,0,3.41392,1
1777253786347,0.0374539,1.09942,-0.123087,0.108025,0.0585255,0.0954529,0,0,3.50323,1
1777253786360,0.0350655,1.09613,-0.117552,0.106081,0.0564416,0.0912206,0,0,3.41097,1
1777253786374,0.0338518,1.08905,-0.113451,0.10231,0.0531644,0.0894394,0,0,3.5086,1
1777253786388,0.033473,1.08689,-0.108046,0.0990803,0.0495699,0.0895607,0,0,3.42656,1
1777253786401,0.0350601,1.08345,-0.102971,0.0965242,0.0460658,0.0892471,0,0,3.47679,1
1777253786415,0.035805,1.08072,-0.0981541,0.0948052,0.0429809,0.0886428,0,0,3.5118,1
1777253786428,0.0367957,1.07776,-0.0934427,0.0938334,0.040266,0.0872374,0,0,3.47484,1
1777253786442,0.0375802,1.07659,-0.0884888,0.0948002,0.0382,0.0850416,0,0,3.49242,1
1777253786455,0.0385535,1.07328,-0.0854014,0.0968089,0.0367381,0.0819285,0,0,3.39936,1
1777253786469,0.038226,1.06946,-0.0825967,0.098311,0.0355894,0.0791827,0,0,3.48579,1
1777253786483,0.0394369,1.06654,-0.0791414,0.100285,0.0341455,0.076471,0,0,3.43214,1
1777253786496,0.0408538,1.06336,-0.0776191,0.101978,0.0327569,0.0734747,0,0,3.53827,1
1777253786510,0.0396441,1.06108,-0.0777159,0.103267,0.0313733,0.0709119,0,0,3.40692,4
1777253786523,0.0399265,1.05706,-0.0771637,0.103842,0.0296777,0.0688183,0,0,3.43497,4
1777253786537,0.0400697,1.05418,-0.0761905,0.103515,0.0279188,0.0671633,0,0,3.52784,4
1777253786550,0.0406432,1.05158,-0.0753815,0.103275,0.0260959,0.0650787,0,0,3.47903,4
1777253786564,0.0414994,1.04862,-0.072687,0.102034,0.0243881,0.0628713,0,0,3.47614,4
1777253786578,0.0428417,1.04515,-0.0715678,0.101646,0.0231314,0.0600255,0,0,3.42918,4
1777253786591,0.0445059,1.04318,-0.0712509,0.101682,0.0220737,0.0562903,0,0,3.47423,4
1777253786605,0.0446114,1.04116,-0.0704587,0.10232,0.0211995,0.0520153,0,0,3.42271,4
1777253786618,0.0467925,1.03915,-0.0703684,0.102776,0.020567,0.0469053,0,0,3.46858,4
1777253786632,0.046222,1.03719,-0.0700503,0.103772,0.0199314,0.0420648,0,0,3.48234,4
1777253786645,0.0458067,1.03554,-0.070914,0.103993,0.0193872,0.0387847,0,0,3.48106,4
1777253786659,0.0458255,1.03533,-0.0719758,0.105507,0.0186979,0.0362709,0,0,3.46899,4
1777253786673,0.0428031,1.034,-0.0728138,0.106072,0.0174308,0.0339538,0,0,3.40914,4
1777253786686,0.0415389,1.03468,-0.0725502,0.106348,0.0158621,0.0343572,0,0,3.46073,4
1777253786700,0.0415917,1.03561,-0.0726164,0.106754,0.0140475,0.0354401,0,0,3.39853,4
1777253786713,0.0427508,1.037,-0.0733362,0.108281,0.0120135,0.037019,0,0,3.51438,4
1777253786727,0.0429273,1.03672,-0.0739472,0.110304,0.00999515,0.0389246,0,0,3.40912,4
1777253786740,0.0429297,1.0364,-0.0753593,0.114209,0.00800007,0.0414171,0,0,3.45875,4
1777253786754,0.0411516,1.03737,-0.0759389,0.117878,0.00637382,0.0455466,0,0,3.4913,4
1777253786767,0.0409659,1.03941,-0.0755823,0.122818,0.00481309,0.0512087,0,0,3.40542,4
1777253786781,0.0422012,1.03787,-0.0763137,0.129254,0.00355828,0.0565446,0,0,3.47486,4
1777253786794,0.0452844,1.03906,-0.0774287,0.136241,0.0024595,0.0611145,0,0,3.39984,4
1777253786808,0.0470581,1.03904,-0.079029,0.145157,0.00115687,0.06643,0,0,3.52069,4
1777253786822,0.048609,1.0401,-0.081498,0.154365,6.43347e-05,0.0706552,0,0,3.4051,4
1777253786835,0.0513875,1.04258,-0.0836643,0.163429,-0.00138226,0.0767801,0,0,3.45892,4
1777253786849,0.0563383,1.04564,-0.0841615,0.174776,-0.00359981,0.0825913,0,0,3.47968,4
1777253786862,0.0580671,1.04895,-0.0865207,0.188031,-0.00611259,0.0875114,0,0,3.44606,4
1777253786876,0.0616708,1.056,-0.0864469,0.204215,-0.00937933,0.0925666,0,0,3.48621,4
1777253786889,0.0646891,1.06298,-0.0881575,0.222532,-0.0128867,0.0971027,0,0,3.40849,4
1777253786903,0.0663465,1.06555,-0.0930863,0.243191,-0.0162402,0.100014,0,0,3.46855,4
1777253786916,0.0673359,1.073,-0.0951777,0.265595,-0.0196283,0.101208,0,0,3.39029,4
1777253786930,0.070858,1.08918,-0.0948922,0.290981,-0.0231217,0.101294,0,0,3.52134,4
1777253786944,0.076894,1.10846,-0.0950335,0.32402,-0.0276695,0.100961,0,0,3.72838,4
1777253786958,0.0796609,1.12429,-0.093866,0.367624,-0.0326558,0.0964707,0,0,3.46362,4
1777253786971,0.0820397,1.13939,-0.0936814,0.417401,-0.0393407,0.0933802,0,0,3.46118,4
1777253786985,0.0836963,1.15477,-0.0946439,0.473691,-0.0467254,0.0912638,0,0,3.78649,4
1777253786999,0.0773582,1.16439,-0.096374,0.532565,-0.0534603,0.0926658,0,0,3.47142,4
1777253787012,0.0737996,1.1829,-0.0985412,0.599342,-0.0608366,0.0990547,0,0,3.39451,4
1777253787026,0.0720565,1.20075,-0.0947256,0.668908,-0.0674822,0.107136,0,0,3.4871,4
1777253787040,0.0749989,1.22567,-0.0905488,0.748291,-0.0764526,0.115638,0,0,3.4147,4
1777253787053,0.0758179,1.25289,-0.0865242,0.83837,-0.0864057,0.123526,0,0,3.53953,4
1777253787067,0.0794393,1.28236,-0.0826021,0.931648,-0.0983182,0.131742,0,0,3.41936,4
1777253787081,0.0804338,1.30987,-0.075805,1.01969,-0.115155,0.142961,0,0,4.04226,4
1777253787095,0.0739911,1.32256,-0.0784686,1.1028,-0.12837,0.158916,0,0,3.46712,4
1777253787108,0.0693341,1.33175,-0.0888982,1.18124,-0.136062,0.176939,0,0,3.40138,4
1777253787122,0.0898622,1.33209,-0.0943195,1.25529,-0.145703,0.219964,0,0,3.50271,4
1777253787135,0.0931478,1.30701,-0.105134,1.32518,-0.167212,0.251211,0,0,3.43443,4
1777253787149,0.0834585,1.29904,-0.124694,1.39115,-0.18361,0.29832,0,0,3.50942,4
1777253787163,0.0935534,1.27154,-0.145404,1.45342,-0.203361,0.361516,0,0,3.43612,4
1777253787176,0.0983849,1.26161,-0.157488,1.5122,-0.230135,0.425775,0,0,3.4881,4
1777253787190,0.0996998,1.26483,-0.159363,1.56768,-0.261693,0.488758,0,0,3.48697,4
1777253787204,0.0965176,1.24384,-0.149041,1.62005,-0.299716,0.544441,0,0,3.88215,4
1777253787218,0.115562,1.12524,-0.137531,1.66948,-0.346905,0.568727,0,0,3.52827,4
1777253787231,0.102041,0.971627,-0.19062,1.67539,-0.373001,0.568327,0,0,3.4359,4
1777253787247,0.0677506,0.872524,-0.207015,1.57577,-0.371625,0.530518,0,0,3.60338,4
1777253787261,0.0441618,0.787949,-0.216424,1.44866,-0.34446,0.465871,0,0,3.44988,4
1777253787278,0.039206,0.744709,-0.217924,1.28922,-0.306983,0.37913,0,0,7.14546,4
1777253787292,0.0522761,0.707538,-0.218614,1.11906,-0.275805,0.287371,0,0,3.41945,4
1777253787305,0.0671877,0.67856,-0.21439,0.940737,-0.258861,0.203564,0,0,3.53038,4
1777253787319,0.0774284,0.645469,-0.207116,0.752872,-0.25642,0.136045,0,0,3.42551,4
1777253787333,0.0824522,0.611495,-0.196841,0.570333,-0.265048,0.0837024,0,0,3.4918,4
1777253787346,0.0820178,0.575127,-0.182513,0.398034,-0.282106,0.0440416,0,0,3.47727,4
1777253787360,0.0821555,0.552302,-0.354973,0.235399,-0.286989,0.0121292,0,0,3.85847,4
1777253787374,-0.0182043,0.745685,-0.415503,0.362499,-0.217865,-0.128859,0,0,3.4873,4
1777253787387,-0.0789177,0.479488,-0.514734,0.482469,-0.155122,-0.228862,0,0,3.40914,4
1777253787401,0.13135,0.228223,-0.481712,0.59571,-0.212692,-0.0757207,0,0,3.50458,4
1777253787415,0.0621519,-0.00894845,-0.408158,0.421987,-0.212742,0.0688304,0,0,3.4284,4
1777253787429,0.17248,-0.0548022,-0.301823,0.258009,-0.220497,0.169306,0,0,3.68425,4
1777253787442,0.153794,0.129764,-0.229006,0.103228,-0.240611,0.200067,0,0,3.46768,4
1777253787457,0.105016,0.32808,-0.233525,-0.04287,-0.252955,0.229745,0,0,4.16691,4
1777253787470,0.0620268,0.42597,-0.248842,-0.180773,-0.246251,0.226938,0,0,3.35588,4
1777253787484,0.0766653,0.398448,-0.252947,-0.310942,-0.230447,0.151899,0,0,3.48569,4
1777253787497,0.108012,0.479545,-0.234171,-0.433808,-0.229857,0.0716484,0,0,3.46908,4
1777253787511,0.162962,0.559943,-0.204917,-0.498756,-0.273775,0.0348261,0,0,3.50655,4
1777253787525,0.172185,0.541503,-0.164843,-0.556588,-0.334345,0.0541364,0,0,3.48597,4
1777253787538,0.138644,0.518181,-0.12766,-0.640036,-0.378602,0.0879109,0,0,3.50447,4
1777253787552,0.0830047,0.522858,-0.0967801,-0.73015,-0.386756,0.104423,0,0,3.57953,4
1777253787566,0.0417298,0.523069,-0.0646336,-0.829502,-0.362206,0.108491,0,0,3.51562,4
1777253787580,0.0258864,0.554107,-0.0347422,-0.923282,-0.322201,0.137068,0,0,3.90654,4
1777253787593,0.0300491,0.577968,-0.0129639,-1.0118,-0.281079,0.188687,0,0,3.51312,5
1777253787607,0.0392643,0.616869,-0.00100731,-1.09535,-0.244695,0.236889,0,0,3.42919,5
1777253787620,0.0409511,0.661353,-0.00203267,-1.17195,-0.214904,0.272774,0,0,3.48581,5
1777253787634,0.033368,0.697138,-0.0106283,-1.24652,-0.184909,0.296631,0,0,3.42514,5
1777253787648,0.0184318,0.750827,-0.0196319,-1.31691,-0.150473,0.311905,0,0,3.6234,5
1777253787661,0.00173151,0.821622,-0.0318143,-1.37527,-0.109507,0.318632,0,0,3.46329,5
1777253787676,-0.0166614,0.880996,-0.0517218,-1.42152,-0.0636634,0.320811,0,0,4.09069,5
1777253787689,-0.0280929,0.908446,-0.0731967,-1.48069,-0.0132916,0.323275,0,0,3.4654,5
1777253787703,-0.0248601,0.957869,-0.101738,-1.53795,0.0368153,0.31794,0,0,3.38581,5
1777253787716,-0.0123457,1.02217,-0.13428,-1.58272,0.0823303,0.302444,0,0,3.50067,5
1777253787730,0.00968272,1.08914,-0.180649,-1.5947,0.118835,0.282418,0,0,3.40053,5
1777253787744,0.0338307,1.12399,-0.232949,-1.58361,0.143324,0.268285,0,0,3.48795,5
1777253787757,0.0531183,1.15854,-0.285246,-1.55039,0.15612,0.26329,0,0,3.47801,5
1777253787771,0.0641071,1.1846,-0.340211,-1.48927,0.159836,0.259436,0,0,3.46843,5
