timestamp,ax,ay,az,gx,gy,gz,roll_k,pitch_k,delay_ms,classe_prevista
1774391544666,0.0183594,0.801758,-0.115039,0.292068,-0.889479,0.610687,0,0,3.22479,-1
1774391544680,0.0159848,0.950709,-0.135511,0.247294,-0.954092,0.542857,0,0,3.24681,-1
1774391544693,0.0150061,0.988598,-0.152488,0.189523,-0.886541,0.628237,0,0,3.23598,-1
1774391544706,0.0117059,1.00106,-0.154706,0.165991,-0.793478,0.638695,0,0,3.23372,-1
1774391544720,0.01386,1.00028,-0.14976,0.1983,-1.05203,0.702211,0,0,3.22333,-1
1774391544733,0.0153308,0.999182,-0.149328,0.241476,-0.825683,0.622349,0,0,3.22498,-1
1774391544746,0.0160823,0.998172,-0.152429,0.274471,-1.10748,0.711326,0,0,3.22637,-1
1774391544760,0.0182497,1.00237,-0.144682,0.31778,-0.87951,0.611827,0,0,3.23053,-1
1774391544773,0.0131113,1.00385,-0.15172,0.0925806,-0.927368,0.586317,0,0,3.22616,-1
1774391544786,0.0153089,1.003,-0.152534,0.122534,-0.985866,0.599796,0,0,3.30926,0
1774391544800,0.0135743,1.00188,-0.153825,0.183695,-1.07103,0.63316,0,0,3.25588,0
1774391544813,0.0143606,1.00497,-0.14863,0.257078,-1.11834,0.535135,0,0,3.50076,0
1774391544827,0.0168947,1.00026,-0.147417,0.216026,-0.930808,0.565244,0,0,3.24624,0
1774391544840,0.0150716,0.998461,-0.149772,0.121964,-0.949647,0.780138,0,0,3.2557,5
1774391544853,0.0122597,1.00084,-0.150582,0.103659,-1.04553,0.674403,0,0,3.24881,5
1774391544867,0.0138297,1.00237,-0.144723,0.204615,-0.910492,0.690715,0,0,3.24351,5
1774391544880,0.0128205,1.00296,-0.150838,0.224261,-0.945693,0.46641,0,0,3.24696,5
1774391544893,0.0168395,1.00276,-0.152834,0.191195,-1.14928,0.662536,0,0,3.23662,5
1774391544907,0.0148781,1.00056,-0.158909,0.141724,-1.20734,0.571592,0,0,3.24531,5
1774391544920,0.0141738,0.999614,-0.151243,0.285799,-1.13257,0.652264,0,0,3.2674,5
1774391544933,0.0113042,1.00204,-0.145972,0.178578,-0.958169,0.569593,0,0,3.25644,5
1774391544947,0.0108928,1.00001,-0.154926,0.157713,-1.12097,0.608838,0,0,3.25724,5
1774391544960,0.0113187,1.00197,-0.153214,0.215134,-1.10961,0.659512,0,0,3.25909,5
1774391544973,0.0125052,1.00053,-0.154543,0.214012,-1.00289,0.626336,0,0,3.23618,5
1774391544987,0.0203295,1.003,-0.15329,0.0416468,-0.803823,0.564548,0,0,3.24659,5
1774391545000,0.0184941,1.00045,-0.152955,0.0880296,-0.937231,0.583264,0,0,3.24759,5
1774391545014,0.0135342,1.00512,-0.153937,0.103204,-0.963193,0.660683,0,0,3.58676,5
1774391545027,0.0181031,1.00405,-0.154915,0.106157,-1.14039,0.669601,0,0,3.25738,5
1774391545040,0.0139656,1.00323,-0.155892,0.0944352,-0.959691,0.462301,0,0,3.23398,5
1774391545054,0.0119633,1.00194,-0.153831,0.141339,-0.97986,0.692477,0,0,3.26368,5
1774391545067,0.0182183,1.00338,-0.156495,0.132022,-0.989933,0.608159,0,0,3.23646,5
1774391545080,0.0181071,1.00359,-0.153814,0.0871724,-0.942708,0.53027,0,0,3.23459,5
1774391545094,0.0196858,0.998459,-0.148448,0.207555,-1.02574,0.595038,0,0,3.24233,5
1774391545107,0.0120663,1.00406,-0.146832,0.194092,-1.05419,0.601494,0,0,3.23929,5
1774391545120,0.0150289,1.00216,-0.153548,0.0869552,-1.07818,0.60275,0,0,3.28044,5
1774391545134,0.0120695,1.0004,-0.149271,0.18292,-1.13817,0.719808,0,0,3.23057,5
1774391545147,0.016817,1.00243,-0.147231,0.201595,-1.11911,0.588885,0,0,3.25522,5
1774391545160,0.0130848,1.00083,-0.149901,-0.0222505,-0.980142,0.55726,0,0,3.23585,5
1774391545174,0.0135146,1.00076,-0.148651,0.12478,-1.02073,0.649475,0,0,3.26614,5
1774391545187,0.016668,1.00592,-0.155644,0.0611708,-0.985589,0.66742,0,0,3.24122,5
1774391545200,0.0137598,1.00355,-0.153943,0.0610886,-1.09557,0.720097,0,0,3.24805,5
1774391545214,0.0126231,1.00059,-0.152236,-0.0987777,-1.28296,0.767236,0,0,3.24155,5
1774391545227,0.0103526,1.00159,-0.15714,0.0914434,-1.08581,0.880927,0,0,3.2632,5
1774391545240,0.0151059,0.999711,-0.152557,0.0485354,-0.887588,0.773941,0,0,3.25774,5
1774391545254,0.014771,1.00707,-0.15258,0.138555,-0.904348,0.88838,0,0,3.23518,5
1774391545267,0.0111068,1.00368,-0.153658,0.0884437,-0.932201,0.529468,0,0,3.25825,5
1774391545280,0.0144144,1.00367,-0.152696,0.0602478,-1.0114,0.637918,0,0,3.23572,5
1774391545294,0.0161942,1.00206,-0.146183,0.288388,-1.03296,0.615986,0,0,3.89739,5
1774391545308,0.0157775,1.00019,-0.151765,0.160638,-0.871156,0.482608,0,0,3.27392,5
1774391545321,0.020134,1.00363,-0.156836,0.0742968,-1.0487,0.542726,0,0,3.26063,5
1774391545335,0.0132587,1.00758,-0.155335,0.069791,-1.01563,0.579018,0,0,3.27429,5
1774391545348,0.0121314,1.00507,-0.151537,0.142691,-1.05837,0.543043,0,0,3.23968,5
1774391545362,0.0157612,0.998678,-0.156238,0.0585082,-0.943731,0.622116,0,0,3.3054,5
1774391545375,0.0161977,1.00268,-0.148383,0.140496,-0.85994,0.569874,0,0,3.25127,5
1774391545388,0.0104167,1.0009,-0.150568,0.0949695,-1.108,0.787188,0,0,3.27433,5
1774391545402,0.013872,1.0031,-0.150974,0.012333,-1.10709,0.645034,0,0,3.26874,5
1774391545415,0.0122957,1.00548,-0.160734,0.174546,-1.11921,0.697296,0,0,3.5944,5
1774391545429,0.0143755,1.00397,-0.159596,0.0524111,-1.00475,0.652134,0,0,3.27868,5
1774391545442,0.0174349,1.0016,-0.151606,0.065532,-0.95174,0.544975,0,0,3.25433,5
1774391545456,0.0155738,1.00633,-0.152861,0.184899,-1.08283,0.604048,0,0,3.27674,5
1774391545469,0.0163262,1.00455,-0.149623,0.251165,-1.10219,0.52947,0,0,3.2442,5
1774391545484,0.0174214,1.00176,-0.151793,0.368577,-0.952258,0.631771,0,0,4.76926,5
1774391545497,0.0128893,1.00351,-0.151124,0.213131,-1.11367,0.627086,0,0,3.25533,5
1774391545510,0.0147133,1.00505,-0.149872,0.170585,-1.06516,0.57699,0,0,3.26516,5
1774391545524,0.0114488,1.00403,-0.147571,0.15001,-0.938903,0.677907,0,0,3.27305,5
1774391545537,0.0123613,0.998579,-0.152673,0.225931,-0.908185,0.734434,0,0,3.24392,5
1774391545551,0.0154654,1.00194,-0.150824,0.222261,-0.920652,0.683953,0,0,3.27065,5
1774391545564,0.0177269,1.00195,-0.149077,0.0985849,-0.935374,1.01842,0,0,3.26592,5
1774391545577,0.0179754,0.997484,-0.15129,0.252812,-0.827573,0.874475,0,0,3.29957,5
1774391545591,0.0212591,1.00308,-0.144019,0.239788,-0.997186,0.698909,0,0,3.2592,5
1774391545604,0.0155261,1.00601,-0.147254,0.0774033,-0.937972,0.695484,0,0,3.29863,5
1774391545618,0.0104155,1.00215,-0.150801,0.21795,-0.852671,0.682521,0,0,3.27063,5
1774391545631,0.0119057,0.99986,-0.147641,0.226856,-1.03281,0.569333,0,0,3.27151,5
1774391545644,0.0114114,0.998175,-0.153943,0.0502943,-1.06172,0.47353,0,0,3.27581,5
1774391545658,0.00716831,0.99969,-0.151164,0.0343797,-0.993566,1.01436,0,0,3.24376,5
1774391545671,0.0130016,0.995449,-0.148811,0.209577,-0.795861,1.11346,0,0,3.31435,5
1774391545685,0.0129561,0.994134,-0.152112,0.151449,-0.726647,0.843785,0,0,3.25557,5
1774391545698,0.0245609,0.995926,-0.145133,0.152434,-0.73777,0.889675,0,0,3.27731,5
1774391545711,0.0226662,0.997657,-0.146658,0.0972927,-0.764527,0.769496,0,0,3.28981,5
1774391545725,0.0148308,0.997406,-0.151178,0.203376,-0.868104,0.500185,0,0,3.27905,5
1774391545738,0.00665476,1.00431,-0.147563,0.340833,-0.845223,0.490814,0,0,3.27044,5
1774391545751,0.00714484,1.00348,-0.148561,0.293806,-0.717809,0.439806,0,0,3.24537,5
1774391545765,0.00745488,1.00379,-0.149364,0.253914,-1.08034,0.423731,0,0,3.27157,5
1774391545778,0.0177252,1.00763,-0.146362,0.258447,-1.10171,0.531269,0,0,3.25664,5
1774391545792,0.0303069,1.00615,-0.146273,0.296217,-0.878386,0.669009,0,0,3.34901,5
1774391545805,0.0200952,1.00022,-0.148215,0.254383,-0.921001,0.468334,0,0,3.26998,5
1774391545818,0.0198611,0.99845,-0.154276,0.190909,-1.01537,0.527652,0,0,3.29737,5
1774391545832,0.018726,0.996546,-0.145891,0.172409,-0.855436,0.539196,0,0,3.27598,5
1774391545845,0.0155623,0.998181,-0.1499,-0.150892,-1.00261,0.572182,0,0,3.26592,5
1774391545859,0.0132848,0.99701,-0.153119,0.136635,-0.86525,0.504825,0,0,3.27859,5
1774391545872,0.0153554,1.00063,-0.155054,0.167995,-0.936889,0.504013,0,0,3.27218,5
1774391545885,0.0150166,1.00321,-0.154678,0.16795,-0.778684,0.602224,0,0,3.29988,5
1774391545899,0.0142109,0.998178,-0.147786,0.026535,-1.06145,0.658225,0,0,3.25537,5
1774391545912,0.0204291,0.99701,-0.144331,0.0666446,-1.14107,0.656826,0,0,3.27088,5
1774391545926,0.011908,0.997233,-0.147873,0.0375614,-1.0459,0.373742,0,0,3.32213,5
1774391545939,0.0123056,0.998544,-0.155435,0.105679,-1.14419,0.42932,0,0,3.26492,5
1774391545952,0.0195611,0.996393,-0.156568,0.211156,-0.948134,0.52006,0,0,3.279,5
1774391545966,0.022935,0.999927,-0.155978,0.127164,-1.0268,0.230314,0,0,3.25938,5
1774391545979,0.0229454,1.00141,-0.146347,-0.0305866,-1.01136,0.68422,0,0,3.32205,5
1774391545993,0.0152631,1.00252,-0.15038,-0.0366926,-1.3588,0.889364,0,0,3.25218,5
1774391546006,0.00909399,1.00139,-0.153783,-0.185435,-1.32804,1.09528,0,0,3.30513,5
1774391546020,0.0208452,1.00413,-0.152551,-0.146751,-1.30976,0.96321,0,0,3.26892,5
1774391546033,0.0177386,1.00414,-0.151148,-0.194556,-1.28776,1.09121,0,0,3.27735,5
1774391546046,0.00350199,1.0004,-0.156134,-0.271488,-1.11133,1.11612,0,0,3.2775,5
1774391546060,0.0125554,1.00636,-0.152287,-0.163497,-1.18766,1.0226,0,0,3.25342,5
1774391546073,0.0119429,1.00689,-0.150541,-0.27774,-1.15333,0.764622,0,0,3.30035,5
1774391546087,0.0153533,1.00613,-0.149359,-0.330712,-1.15895,0.861974,0,0,3.25516,5
1774391546100,0.0175182,1.00468,-0.153331,-0.297984,-1.11086,1.01618,0,0,3.27753,5
1774391546113,0.0136301,1.00411,-0.152608,-0.279319,-1.15068,1.13841,0,0,3.26496,5
1774391546127,0.014733,1.00557,-0.152593,-0.441685,-1.22606,1.01464,0,0,3.30314,5
1774391546140,0.0118115,1.00024,-0.1483,-0.540911,-1.09932,1.08892,0,0,3.26883,1
1774391546154,0.0217521,1.00203,-0.149473,-0.369629,-1.16073,0.937379,0,0,3.2647,1
1774391546167,0.0226285,1.00626,-0.144426,-0.348594,-1.1112,0.668113,0,0,3.2752,1
1774391546180,0.0196463,1.00811,-0.150043,-0.344501,-1.00934,0.640306,0,0,3.25416,5
1774391546194,0.0208131,1.00664,-0.150298,-0.282223,-1.14322,0.690228,0,0,3.33939,1
1774391546207,0.0202322,1.00786,-0.154834,-0.362325,-1.05861,0.638462,0,0,3.26605,1
1774391546221,0.0175744,1.00711,-0.154083,-0.29184,-0.974517,0.640684,0,0,3.2965,1
1774391546234,0.0156112,1.00476,-0.151559,-0.302716,-0.835191,0.573488,0,0,3.27344,1
1774391546247,0.012583,1.00181,-0.151955,-0.384757,-0.666672,0.443598,0,0,3.24968,1
1774391546261,0.0183844,1.00209,-0.145091,-0.296205,-0.603137,0.215434,0,0,3.27555,1
1774391546274,0.0156495,1.00682,-0.144502,-0.272825,-0.412479,0.164885,0,0,3.25685,1
1774391546288,0.0172401,1.00665,-0.147919,-0.335904,-0.84878,0.1489,0,0,3.29951,1
1774391546301,0.0180237,1.00625,-0.152945,-0.452697,-0.81687,0.373269,0,0,3.25168,1
1774391546314,0.0130507,1.00847,-0.150718,-0.58609,-0.730736,0.404635,0,0,3.27348,1
1774391546328,0.0142203,1.00352,-0.153874,-0.685826,-0.750862,0.349258,0,0,3.29114,1
1774391546341,0.0134614,1.00398,-0.152575,-0.674494,-0.570336,0.399963,0,0,3.235,1
1774391546354,0.0202282,1.00714,-0.15598,-0.936656,-0.719648,0.520495,0,0,3.28148,5
1774391546368,0.0152499,1.00602,-0.147778,-0.981525,-0.490485,0.875948,0,0,3.2469,5
1774391546381,0.0121288,1.00358,-0.143614,-1.24848,-0.396705,1.3386,0,0,3.29368,5
1774391546394,0.0137946,1.00167,-0.149468,-1.6939,-0.562898,1.88359,0,0,3.24285,5
1774391546408,0.0247856,1.00116,-0.154075,-2.28473,-0.386204,1.75601,0,0,3.28685,5
1774391546421,0.0245136,0.999954,-0.147625,-2.58414,0.00476962,1.44838,0,0,3.26609,5
1774391546435,0.0228322,0.99409,-0.151258,-2.71004,0.732551,1.30244,0,0,3.29311,5
1774391546448,0.0232753,1.01754,-0.139185,-1.95988,1.20617,0.776042,0,0,3.27787,5
1774391546461,0.0326877,1.04491,-0.124869,-0.58428,1.7533,0.101834,0,0,3.25344,5
1774391546475,0.0405714,1.05957,-0.11031,1.81065,2.80043,-2.0275,0,0,3.29292,5
1774391546488,0.0771774,1.12534,-0.0874637,6.25452,1.35036,-6.8316,0,0,3.24942,5
1774391546501,0.223709,1.30739,-0.012355,17.1776,-4.03473,-21.5505,0,0,3.30788,5
1774391546515,0.467968,1.38691,0.0124171,39.7149,-17.508,-57.5345,0,0,3.26857,5
1774391546528,0.474796,1.66308,0.357378,51.8165,-32.3031,-45.1644,0,0,3.26461,5
1774391546541,0.455,1.14443,0.544891,57.061,-49.7778,-25.1245,0,0,3.28087,5
1774391546555,0.222896,0.991338,0.865901,59.7109,-50.301,-9.57408,0,0,3.26072,5
1774391546568,-0.125611,0.724768,1.12027,42.2803,-28.3558,-5.37368,0,0,3.3054,5
1774391546582,-0.284943,0.377035,1.24276,4.40365,2.96015,8.34856,0,0,3.25001,5
1774391546595,-0.132648,0.376618,1.34153,-37.4702,24.5905,18.0831,0,0,3.30353,3
1774391546608,0.0563209,0.55505,1.34655,-63.0672,32.0152,23.1867,0,0,3.28726,2
1774391546622,0.223661,0.684359,1.20116,-82.0476,26.6357,29.5349,0,0,3.29661,3
1774391546635,0.269572,0.807118,0.99814,-97.9082,15.881,35.0185,0,0,3.28603,3
1774391546648,0.227006,0.931875,0.783783,-112.258,7.70766,30.5831,0,0,3.24453,3
1774391546662,0.165558,1.07039,0.60249,-118.426,3.42427,20.0982,0,0,3.27557,3
1774391546675,0.112633,1.16327,0.426305,-120.843,3.23012,14.8363,0,0,3.24735,3
1774391546689,0.0871928,1.19727,0.287232,-122.728,6.38319,17.8946,0,0,3.29329,3
1774391546702,0.0873462,1.16331,0.186342,-127.281,11.5095,22.9471,0,0,3.25526,3
1774391546715,0.136715,1.18138,0.129283,-132.244,15.2921,25.2338,0,0,3.27633,3
1774391546729,0.193552,1.25502,0.0736031,-131.556,14.9769,26.6317,0,0,3.2725,3
1774391546742,0.251675,1.26922,0.019007,-127.155,10.2553,28.9756,0,0,3.26688,3
1774391546755,0.259385,1.26534,-0.0342262,-122.142,2.74576,31.9771,0,0,3.27833,5
1774391546769,0.207655,1.25447,-0.0667198,-116.624,-4.09518,33.0899,0,0,3.24394,5
1774391546782,0.110509,1.22028,-0.0924052,-110.686,-7.80574,32.8331,0,0,3.30168,5
1774391546796,0.0290747,1.17823,-0.109475,-107.053,-8.27575,30.4775,0,0,3.24535,5
1774391546809,-0.0242009,1.13033,-0.125487,-103.334,-6.68879,28.4821,0,0,3.30118,5
1774391546822,-0.0356165,1.07674,-0.132994,-100.022,-4.07443,26.2064,0,0,3.32014,5
1774391546836,-0.0577987,1.07472,-0.159134,-96.2662,-0.473185,26.1693,0,0,3.33605,5
1774391546849,-0.0680318,1.05719,-0.20224,-90.8382,3.51685,25.5595,0,0,3.31653,5
1774391546863,-0.0759567,1.06269,-0.245603,-83.351,7.76698,25.5946,0,0,3.28576,5
1774391546876,-0.0666419,1.05933,-0.312626,-74.1105,11.5513,25.6198,0,0,3.39613,5
1774391546890,-0.0460949,1.03341,-0.35221,-65.3035,15.2081,24.3152,0,0,3.30227,5
1774391546903,-0.00287876,1.01735,-0.379617,-57.6814,17.801,21.6882,0,0,3.32079,5
1774391546916,0.0437308,1.01037,-0.398399,-49.5704,17.8998,21.7118,0,0,3.29435,5
1774391546930,0.059258,0.991161,-0.424699,-42.2374,17.0767,25.1717,0,0,3.2534,5
1774391546943,0.0258866,0.99513,-0.454087,-34.1951,17.6236,25.1994,0,0,3.28363,5
1774391546957,-0.0414977,1.03551,-0.468038,-25.7196,22.1136,17.3906,0,0,3.32966,5
1774391546970,-0.0466852,1.08923,-0.473385,-13.0959,27.6661,8.31498,0,0,3.28309,5
1774391546983,-0.0121518,1.10684,-0.490366,0.900602,31.5501,6.46279,0,0,3.24851,5
1774391546997,-0.00129011,1.09297,-0.487946,13.1354,34.5131,6.32984,0,0,3.27377,5
1774391547010,-0.025367,1.13483,-0.457987,26.1095,38.5818,2.19089,0,0,3.27044,5
1774391547023,-0.017163,1.14461,-0.411534,38.7048,42.7919,-3.7482,0,0,3.26816,5
1774391547037,0.056882,1.13365,-0.340823,50.1997,43.851,-6.62542,0,0,3.35307,5
1774391547050,-0.720205,3.23187,2.83679,38.4682,71.9755,-48.6788,0,0,3.43268,5
1774391547064,-0.26411,-2.06223,1.78938,132.52,45.8228,-51.741,0,0,3.28688,5
1774391547077,-0.316155,1.48487,0.889991,227.243,60.7148,-49.6994,0,0,3.24175,5
1774391547091,-0.49256,0.967641,0.173953,214.683,57.1942,-23.2957,0,0,3.34781,5
1774391547104,-0.272994,0.780436,0.0646617,223.435,62.7617,10.1606,0,0,3.27396,5
1774391547117,0.133813,1.13008,0.122237,203.817,35.6192,-1.20746,0,0,3.30826,5
1774391547131,0.0814296,1.00233,-0.0208638,176.396,13.7928,2.31648,0,0,3.27005,5
1774391547144,-0.0412703,0.948972,-0.167156,145.195,-3.55623,14.1426,0,0,3.27194,5
1774391547157,-0.0627094,0.930744,-0.172219,114.82,-10.363,23.0962,0,0,3.2687,5
1774391547171,-0.00179017,0.899588,-0.145695,89.1492,-9.36976,21.7092,0,0,3.24881,5
1774391547184,0.0479544,0.924303,-0.133226,74.7716,-2.12462,13.5082,0,0,3.2975,5
1774391547198,0.0625344,0.946832,-0.113621,61.565,5.15057,4.9035,0,0,3.24903,5
1774391547211,0.0782369,0.916766,-0.106581,52.767,7.96809,-0.613539,0,0,3.30031,5
1774391547224,0.0945975,0.966259,-0.122031,44.169,6.73343,-3.19959,0,0,3.26846,5
1774391547238,0.0534069,0.952176,-0.1444,36.815,6.66531,-5.00623,0,0,3.672,5
1774391547251,0.0495188,0.960913,-0.126624,30.5823,5.88969,-4.31877,0,0,3.26846,5
1774391547265,0.0681366,0.986488,-0.113461,26.8425,3.86974,-2.05776,0,0,3.24781,5
1774391547278,0.0434571,0.981009,-0.134955,23.8031,-0.427379,-0.566439,0,0,3.29724,5
1774391547291,0.0543592,0.993124,-0.149293,20.6909,-0.728717,-0.927925,0,0,3.24805,5
1774391547305,0.0576378,0.99226,-0.160462,18.7081,-0.307807,-2.61522,0,0,3.27696,5
1774391547318,0.0452908,0.989526,-0.146655,16.9143,0.702463,-5.26139,0,0,3.27487,5
1774391547332,0.0537782,0.980036,-0.156896,14.2782,3.25993,-9.25616,0,0,3.26729,5
1774391547345,0.0508694,0.995187,-0.14284,13.0704,4.51998,-11.4722,0,0,3.28255,5
1774391547358,0.0516985,1.00497,-0.150155,12.9153,5.4968,-12.2785,0,0,3.23764,5
1774391547372,0.0351206,0.996505,-0.164089,10.8563,5.77297,-9.47199,0,0,3.298,5
1774391547385,0.00833821,0.991915,-0.148163,8.53124,5.1996,-6.13462,0,0,3.24701,5
1774391547398,0.00545124,1.02518,-0.143538,7.91279,4.51011,-3.58541,0,0,3.30966,5
1774391547412,-0.0269564,0.996738,-0.151772,5.87423,3.59512,-0.648537,0,0,3.27824,5
1774391547425,0.000104723,0.997517,-0.136642,5.62508,2.16901,1.72437,0,0,3.28922,5
1774391547439,0.0286238,1.01488,-0.14903,7.31036,1.39349,2.77021,0,0,3.27075,5
1774391547452,0.0253633,1.05975,-0.153064,8.78186,1.24257,4.1849,0,0,3.26763,5
1774391547465,0.00393651,1.05944,-0.140384,11.4598,1.48372,6.12633,0,0,3.277,5
1774391547479,0.00695266,1.06597,-0.165582,15.5899,1.42613,7.94894,0,0,3.33226,5
1774391547492,0.0331395,1.24894,-0.151959,24.3123,0.818557,14.0336,0,0,3.2795,5
1774391547506,0.0635691,1.10173,-0.168147,32.9878,1.97298,15.3468,0,0,3.28351,5
1774391547519,0.0179269,1.23065,-0.137455,35.9057,3.48873,28.2428,0,0,3.28976,5
1774391547532,0.0321482,1.09987,-0.162116,42.0375,2.99059,31.0229,0,0,3.27155,5
1774391547546,0.0497204,1.1642,-0.173549,45.647,2.20507,31.9267,0,0,3.27783,5
1774391547559,0.0767693,1.10548,-0.170179,48.6979,2.16902,32.7358,0,0,3.27118,5
1774391547572,0.10886,1.09922,-0.179642,53.1158,1.23979,31.4669,0,0,3.2505,5
1774391547586,0.131935,1.0802,-0.189684,55.6416,0.376521,28.2258,0,0,3.296,5
1774391547599,0.134543,1.00844,-0.211319,55.2109,-0.609167,22.9595,0,0,3.25037,5
1774391547613,0.133455,0.987428,-0.228733,56.6641,-1.35431,20.5329,0,0,3.32225,5
1774391547626,0.127266,1.01522,-0.238225,57.8569,-2.29242,17.5031,0,0,3.27003,5
1774391547639,0.116492,1.00712,-0.262036,57.9476,-2.17987,14.8477,0,0,3.25064,5
1774391547653,0.111103,1.00316,-0.266093,58.6538,-2.09648,13.5809,0,0,3.28253,5
1774391547666,0.10394,0.944906,-0.291129,58.4285,-1.97574,12.5597,0,0,3.25416,5
1774391547679,0.115425,0.92751,-0.312493,57.2165,-2.0752,11.4572,0,0,3.29888,5
1774391547693,0.137268,0.927496,-0.323043,54.9395,-2.64174,8.39611,0,0,3.25127,5
1774391547706,0.171896,0.951262,-0.323904,53.6848,-3.55739,4.99689,0,0,3.26972,5
1774391547719,0.167412,0.933145,-0.326815,52.4939,-4.10446,2.66927,0,0,3.26807,5
1774391547733,0.167462,0.949201,-0.355834,52.631,-5.07165,1.17729,0,0,3.27061,5
1774391547746,0.130122,0.962261,-0.367184,52.0306,-5.67179,0.579542,0,0,3.27833,5
1774391547759,0.0765087,0.949318,-0.380769,51.9937,-5.75784,0.905882,0,0,3.23729,5
1774391547773,0.0889515,0.972301,-0.39281,52.7119,-6.45087,3.10277,0,0,3.27261,5
1774391547786,0.0853153,1.01224,-0.394606,54.149,-6.59803,3.75162,0,0,3.25301,5
1774391547800,0.116511,1.04724,-0.405453,57.9761,-7.07548,4.26522,0,0,3.34557,5
1774391547813,0.142206,1.06985,-0.397458,62.0408,-8.36112,3.71961,0,0,3.26272,5
1774391547826,0.125321,1.08967,-0.409077,66.8342,-9.6073,4.24669,0,0,3.29372,5
1774391547840,0.10489,1.12965,-0.40808,72.9437,-10.4831,5.56044,0,0,3.27038,5
1774391547853,0.0877989,1.12714,-0.418715,79.9733,-11.09,7.67896,0,0,3.2655,5
1774391547867,0.0905469,1.15077,-0.423888,89.18,-12.9849,10.7595,0,0,3.27318,5
1774391547880,0.0889598,1.16944,-0.421521,97.5132,-13.243,12.6316,0,0,3.24607,3
1774391547893,0.0989005,1.16479,-0.420708,107.066,-14.8487,15.5474,0,0,3.27413,3
1774391547907,0.0697514,1.23807,-0.411018,118.909,-16.3354,19.3671,0,0,3.27514,3
1774391547920,0.204205,1.40104,-0.371604,135.324,-17.7314,19.2313,0,0,3.27824,3
1774391547933,0.319048,1.49457,-0.347996,155.456,-23.3396,18.2949,0,0,3.27313,3
1774391547947,0.375199,1.64814,-0.301994,180.677,-31.6919,17.9098,0,0,3.41007,3
1774391547960,0.20616,1.88856,-0.309506,212.544,-36.2068,13.7956,0,0,3.276,3
1774391547974,-0.00195111,2.07344,-0.324745,242.816,-30.2365,6.10297,0,0,3.25109,3
1774391547987,-0.175136,2.18124,-0.421406,248.706,-16.139,6.37048,0,0,3.30205,3
1774391548000,-0.217608,2.22711,-0.532022,249.853,-0.859725,9.85317,0,0,3.24655,3
1774391548014,-0.191457,1.68035,-0.649235,250.076,7.46862,12.0556,0,0,3.29683,3
1774391548027,0.00249502,1.62947,-0.485119,250.119,8.44377,21.8539,0,0,3.2679,3
1774391548040,0.308073,1.60475,-0.715842,250.128,7.18874,8.64252,0,0,3.24666,3
1774391548054,0.491109,0.997259,-0.680082,250.129,-3.28591,11.4081,0,0,3.27755,3
1774391548067,0.628265,0.896142,-0.370959,250.13,-16.3662,12.7763,0,0,3.2455,3
1774391548080,0.443398,0.816861,0.139555,225.771,-27.3407,18.1823,0,0,3.30383,5
1774391548094,2.64042,-2.70933,1.14065,140.227,-107.065,39.6829,0,0,3.24864,5
1774391548107,0.903914,-1.61046,0.72796,-164.2,-170.51,46.5967,0,0,3.2704,3
1774391548121,0.221292,-0.412935,0.809328,-232.27,-175.497,39.2794,0,0,3.26583,3
1774391548134,-0.34319,0.659295,0.743914,-246.66,-153.757,0.0386141,0,0,3.2689,3
1774391548147,-0.624732,1.07438,0.53694,-244.862,-112.588,-30.5977,0,0,3.27346,3
1774391548161,-0.607949,0.994731,0.350834,-224.451,-70.7317,-49.9009,0,0,3.2644,3
1774391548174,-0.581112,0.758384,0.240023,-218.936,-31.4832,-45.093,0,0,3.28135,3
1774391548187,-0.495104,0.505608,0.189956,-231.843,6.16953,-24.5142,0,0,3.2459,3
1774391548201,-0.341948,0.465758,0.180652,-246.577,34.9474,-6.78705,0,0,3.27272,3
1774391548214,-0.135769,0.731029,0.167614,-249.445,52.7823,0.683513,0,0,3.26309,3
1774391548228,0.0713909,0.942049,0.138742,-250.003,58.9766,4.95311,0,0,3.31409,3
1774391548241,0.211078,1.01146,0.0723842,-250.111,55.5833,16.8198,0,0,3.26261,3
1774391548254,0.311239,1.00593,0.00205914,-250.132,44.6618,30.2141,0,0,3.26516,3
1774391548268,0.319132,1.12634,-0.0382312,-250.136,31.3223,31.4004,0,0,3.2742,2
1774391548281,0.251188,1.28174,-0.0892397,-250.137,14.9055,23.9092,0,0,3.24477,2
1774391548294,0.156846,1.34733,-0.133469,-250.137,2.32271,16.8198,0,0,3.29038,2
1774391548308,0.0370225,1.33845,-0.149788,-250.137,-6.45845,17.4752,0,0,3.27177,2
1774391548321,-0.0374415,1.35502,-0.153446,-250.137,-11.85,19.7485,0,0,3.26998,2
1774391548334,-0.0659728,1.42827,-0.136554,-250.137,-15.0326,17.9775,0,0,3.27398,2
1774391548348,-0.0148178,1.54923,-0.146326,-250.137,-18.8366,14.7925,0,0,3.24489,2
1774391548361,0.0834253,1.65617,-0.187369,-250.137,-25.0302,16.2384,0,0,3.2787,5
1774391548374,0.178915,1.77258,-0.252342,-250.137,-32.7648,25.6005,0,0,3.24313,5
1774391548388,0.198247,1.8027,-0.34821,-250.137,-38.8748,38.4459,0,0,3.33737,5
1774391548401,0.11192,1.77163,-0.426264,-250.137,-38.6313,49.9095,0,0,3.26377,5
1774391548415,-0.0196962,1.67751,-0.489894,-250.137,-31.0587,53.0933,0,0,3.26683,5
1774391548428,-0.193295,1.69662,-0.541437,-250.137,-15.6105,53.5838,0,0,3.26998,5
1774391548441,-0.272159,1.83936,-0.666414,-250.137,4.05094,55.6159,0,0,3.2509,1
1774391548455,-0.248789,1.90048,-0.870403,-232.056,22.9153,58.0894,0,0,3.38777,1
1774391548468,-0.0700584,1.8779,-1.09932,-205.439,35.4887,56.1484,0,0,3.24077,1
1774391548482,0.0784534,1.70063,-1.30953,-178.925,38.8516,52.3769,0,0,3.30348,1
1774391548495,0.164536,1.61756,-1.41858,-151.676,32.7247,58.9223,0,0,3.24512,1
1774391548508,0.1935,1.61353,-1.48658,-118.319,20.9945,65.9999,0,0,3.26609,1
1774391548522,0.0588184,1.57063,-1.54806,-81.0383,11.2358,56.7594,0,0,3.26768,1
1774391548535,-0.125967,1.36916,-1.5858,-48.7607,11.7652,25.6594,0,0,3.26348,5
1774391548548,-0.25394,1.29176,-1.53782,-22.9901,20.4264,-6.49744,0,0,3.27414,5
1774391548562,-0.234613,1.39791,-1.44526,5.42454,30.8606,-21.8728,0,0,3.27601,5
1774391548575,0.66311,3.30268,-0.882677,0.274812,31.7783,-21.6863,0,0,3.28288,5
1774391548588,0.363909,-2.04325,1.37182,201.508,10.6168,-33.4543,0,0,3.25596,5
1774391548602,0.249603,2.38063,1.27406,240.668,-10.5683,-71.8644,0,0,3.26979,5
1774391548615,0.242387,0.291342,0.517963,245.676,-27.731,-95.1212,0,0,3.26735,5
1774391548629,-0.212431,1.2596,0.037809,249.263,-13.9976,-72.165,0,0,3.29374,5
1774391548642,-0.322504,0.973944,0.00566281,221.95,6.10471,-38.8632,0,0,3.26594,5
1774391548656,-0.346815,1.05611,-0.141819,190.789,17.9784,-16.2869,0,0,3.51046,5
1774391548669,-0.121167,0.872591,-0.190273,150.111,14.4361,2.10561,0,0,3.27363,5
1774391548682,0.00863978,0.844687,-0.166796,111.903,3.78681,15.866,0,0,3.24698,5
1774391548696,0.00124268,0.827022,-0.198216,85.0218,5.04672,19.7673,0,0,3.30927,5
1774391548709,0.0503755,0.88377,-0.199308,58.7827,8.92542,13.4562,0,0,3.24874,5
1774391548722,0.110187,0.889682,-0.16457,44.4728,10.2151,9.31385,0,0,3.27544,5
1774391548736,0.138546,0.908602,-0.121841,34.1813,9.85742,4.20409,0,0,3.26374,5
1774391548749,0.120944,0.97408,-0.152034,29.8484,9.75092,-0.884903,0,0,3.23857,5
1774391548762,0.137675,0.960527,-0.141537,24.2774,7.78125,-4.34675,0,0,3.2785,5
1774391548776,0.0754942,0.93527,-0.186801,17.2296,4.79117,-9.24417,0,0,3.24137,5
1774391548789,0.0731307,0.961388,-0.174445,13.7555,5.56187,-11.1932,0,0,3.31909,5
1774391548803,0.0515868,0.972139,-0.169883,10.5402,4.86957,-9.2485,0,0,3.25477,5
1774391548816,0.0509971,0.989139,-0.127018,8.00248,5.89683,-6.96416,0,0,3.27101,5
1774391548829,0.0669242,0.995481,-0.125362,7.25042,6.02911,-6.50118,0,0,3.27031,5
1774391548843,0.0629706,1.01416,-0.117054,6.58762,7.12462,-7.23493,0,0,3.25218,5
1774391548856,0.0619112,0.991641,-0.127875,7.04271,6.74144,-8.71185,0,0,3.27601,5
1774391548869,0.0591252,1.01349,-0.13149,7.08824,7.35546,-10.1305,0,0,3.27027,5
1774391548883,0.0571276,0.986457,-0.14479,7.26924,8.4279,-11.3964,0,0,3.29987,5
1774391548896,0.0633839,1.01138,-0.142456,7.22454,9.33133,-12.9093,0,0,3.2437,5
1774391548909,0.0899028,1.00001,-0.124316,8.18109,10.829,-17.3413,0,0,3.26564,5
1774391548923,0.0794936,1.02359,-0.135361,10.4699,12.4054,-21.6468,0,0,3.26994,5
1774391548936,0.066696,0.978978,-0.142253,10.7554,13.0687,-23.5175,0,0,3.26837,5
1774391548950,0.0278796,1.00473,-0.152678,10.6204,13.124,-22.3568,0,0,3.27431,5
1774391548963,-0.0227339,1.01163,-0.189072,10.8769,12.0404,-16.3886,0,0,3.35933,5
1774391548976,-0.0273596,1.02349,-0.143062,8.19712,7.4214,-9.79228,0,0,3.28125,5
1774391548990,-0.0439693,1.03078,-0.144852,8.43184,5.37898,-4.32793,0,0,3.25468,5
1774391549003,-0.00659855,1.04649,-0.13729,8.52055,4.04702,-2.66205,0,0,3.2707,5
1774391549016,0.0127085,1.03158,-0.149382,9.97647,3.33901,-3.0326,0,0,3.27883,5
1774391549030,0.0328946,1.06708,-0.142972,13.0818,2.92457,-4.28515,0,0,3.3,5
1774391549043,-0.00566251,1.04353,-0.137322,16.0777,3.3788,-5.70933,0,0,3.27005,5
1774391549057,0.026721,1.12998,-0.142599,24.5056,2.74787,-6.28158,0,0,3.24025,5
1774391549070,0.0225301,1.11436,-0.147946,27.695,2.55131,-6.90323,0,0,3.27864,5
1774391549083,0.0373135,1.1007,-0.149199,31.8693,2.71595,-7.37465,0,0,3.24688,5
1774391549097,0.0269768,1.1671,-0.135595,33.9604,2.77258,-3.71605,0,0,3.30709,5
1774391549110,-0.00260136,1.13092,-0.143924,37.3491,3.09715,4.7548,0,0,3.25479,5
1774391549123,-0.0166034,1.11747,-0.160275,43.8062,3.49846,11.3279,0,0,3.267,5
1774391549137,-0.0244659,1.11101,-0.147141,42.5236,3.66262,11.9922,0,0,3.27351,5
1774391549150,-0.00923646,1.08372,-0.181869,49.2644,3.54087,15.1279,0,0,3.24266,5
1774391549164,-0.0219557,1.10733,-0.201183,50.9697,3.67703,15.9963,0,0,3.71696,5
1774391549177,0.025751,1.07451,-0.222979,53.6562,3.09486,17.4871,0,0,3.24231,5
1774391549191,0.0708829,1.08341,-0.223994,56.9457,1.87492,16.855,0,0,3.31305,5
1774391549204,0.0445505,1.07811,-0.226947,59.4302,1.09648,16.1479,0,0,3.24703,5
1774391549217,0.0223032,1.07222,-0.243644,61.4938,0.440855,16.3854,0,0,3.28837,5
1774391549231,0.0324272,1.0794,-0.261701,64.8587,0.0058655,16.241,0,0,3.27751,5
1774391549244,0.0153016,1.09491,-0.264752,68.4093,-0.656704,15.6227,0,0,3.2565,5
1774391549257,0.0444915,1.09817,-0.276293,73.1703,-1.40045,14.7277,0,0,3.276,5
1774391549271,0.0378364,1.0776,-0.287071,76.6667,-2.59651,14.781,0,0,3.27692,5
1774391549284,0.0439169,1.09496,-0.285312,80.8822,-3.14281,14.8713,0,0,3.30075,5
1774391549298,0.0271377,1.10837,-0.293777,86.0738,-3.90082,15.2086,0,0,3.24666,5
1774391549311,0.0632119,1.15897,-0.309985,92.6727,-5.29639,15.3787,0,0,3.25696,5
1774391549324,0.0800269,1.17146,-0.306286,99.9697,-6.75455,14.8585,0,0,3.27755,5
1774391549338,0.105801,1.20429,-0.306188,108.171,-8.73518,14.6036,0,0,3.26824,5
1774391549351,0.128434,1.21577,-0.314741,117.827,-12.1885,14.7507,0,0,3.27381,5
1774391549365,0.137716,1.26442,-0.307381,128.062,-16.2051,15.1851,0,0,3.50003,5
1774391549378,0.0965945,1.42651,-0.284677,143.554,-19.5074,15.4541,0,0,3.27831,5
1774391549391,0.273414,1.51909,-0.243564,163.612,-25.3759,13.7973,0,0,3.26624,5
1774391549405,0.382453,1.62522,-0.208956,188.75,-36.1336,11.3722,0,0,3.2802,5
1774391549418,0.150733,1.7961,-0.177879,214.152,-38.35,10.0826,0,0,3.26309,5
1774391549432,0.168891,1.98736,-0.138633,243.129,-40.2384,3.68969,0,0,3.31772,5
1774391549445,0.0225563,2.20358,-0.245002,248.767,-39.118,0.871718,0,0,3.27305,5
1774391549458,-0.198773,2.08136,-0.436499,249.865,-23.3392,0.243414,0,0,3.25268,5
1774391549472,-0.153882,1.98945,-0.570559,250.078,-13.7332,-8.62758,0,0,3.27796,5
1774391549485,0.114435,1.54911,-0.640617,250.12,-12.7861,-16.4466,0,0,3.24227,5
1774391549498,0.247454,1.50476,-0.633474,250.128,-15.7926,-30.1107,0,0,3.30074,3
1774391549512,0.242169,1.42282,-0.675168,250.129,-11.4101,-33.7534,0,0,3.25287,3
1774391549525,0.488642,1.0032,-0.39806,250.13,-19.6564,-30.8595,0,0,3.27964,3
1774391549539,0.439408,0.757257,0.0386423,231.593,-27.2801,-3.3739,0,0,3.26385,3
1774391549552,2.04706,-2.02774,1.14328,203.64,-67.9024,35.1438,0,0,3.2487,3
1774391549565,0.801043,-2.13361,0.355669,-78.5932,-121.531,44.9879,0,0,3.27081,3
1774391549579,0.0516433,-0.103623,0.580356,-131.346,-113.32,31.4657,0,0,3.2785,3
1774391549592,-0.372562,0.327,0.512953,-186.634,-84.1293,-15.4934,0,0,3.29924,3
1774391549605,-0.585776,0.614496,0.385871,-188.103,-44.6344,-40.4446,0,0,3.24238,3
1774391549619,-0.461682,0.7657,0.327513,-183.335,-9.8663,-45.8719,0,0,3.30487,3
1774391549632,-0.301001,0.613015,0.24414,-184.178,12.9338,-35.3512,0,0,3.26814,3
1774391549645,-0.156432,0.501508,0.20357,-196.669,30.8965,-19.4645,0,0,3.25529,3
1774391549659,-0.0336945,0.385127,0.188768,-219.745,43.9339,-11.9156,0,0,3.28031,3
1774391549672,0.0853375,0.495671,0.204997,-243.83,49.4651,-13.4099,0,0,3.26362,3
1774391549686,0.174602,0.725819,0.19755,-248.91,49.0844,-11.4259,0,0,3.29453,3
1774391549699,0.292887,0.890074,0.157665,-249.899,42.2105,0.0820399,0,0,3.24798,3
1774391549712,0.350496,0.942843,0.100689,-250.091,31.5892,19.0443,0,0,3.26722,3
1774391549726,0.312136,0.988796,0.0423497,-250.128,24.1796,34.9691,0,0,3.26748,3
1774391549739,0.302751,1.19145,-0.0606779,-250.136,15.194,45.126,0,0,3.264,3
1774391549752,0.290586,1.22162,0.0959797,-250.137,13.3778,46.7214,0,0,3.27738,3
1774391549766,0.15793,1.4322,-0.0570312,-250.137,13.8113,35.6395,0,0,3.24192,3
1774391549779,0.186547,1.54099,-0.136635,-250.137,11.5717,32.1365,0,0,3.31053,5
1774391549793,0.118436,1.40232,-0.138662,-250.137,7.42854,41.925,0,0,3.24379,5
1774391549806,0.110016,1.4749,-0.138312,-250.137,4.09542,53.138,0,0,3.3425,5
1774391549819,0.163342,1.67146,-0.145367,-250.137,0.581788,52.91,0,0,3.26668,5
1774391549833,0.215878,1.83851,-0.214457,-250.137,-3.91378,46.4409,0,0,3.30181,5
1774391549846,0.274457,1.87041,-0.325191,-250.137,-9.11073,40.8107,0,0,3.2669,5
1774391549859,0.302485,1.81533,-0.412947,-250.137,-14.5364,38.215,0,0,3.24864,5
1774391549873,0.295697,1.89636,-0.485432,-250.137,-19.982,41.0052,0,0,3.64807,5
1774391549887,0.241155,2.09001,-0.587424,-250.137,-24.6875,51.4712,0,0,3.24468,5
1774391549900,0.175783,2.14047,-0.775425,-250.137,-25.2773,65.0847,0,0,3.29775,5
1774391549913,0.0790925,2.02137,-1.00774,-229.867,-21.4942,76.5257,0,0,3.25357,5
1774391549927,-0.0377859,1.8245,-1.21172,-205.972,-15.692,83.6706,0,0,3.27953,5
1774391549940,-0.153282,1.70509,-1.36378,-180.64,-8.00903,84.7782,0,0,3.27477,1
1774391549953,-0.218008,1.60714,-1.49192,-149.876,-1.49093,76.5401,0,0,3.24737,1
1774391549967,-0.224628,1.56606,-1.5922,-115.565,2.51954,55.2508,0,0,3.26979,1
1774391549980,-0.241772,1.51198,-1.68877,-78.1907,4.24064,28.4768,0,0,3.27259,1
1774391549994,-0.297659,1.36166,-1.73753,-44.7882,6.75199,2.30155,0,0,3.29063,1
1774391550007,-0.368217,1.39252,-1.69733,-16.9973,13.2105,-18.3837,0,0,3.2469,1
1774391550020,-0.435021,1.49372,-1.59881,16.4707,23.7817,-35.068,0,0,3.29179,1
1774391550034,-0.475619,1.47097,-1.05161,38.6797,41.6456,-46.2027,0,0,3.26066,1
1774391550047,0.724533,1.07294,0.793959,208.981,24.8578,-61.7417,0,0,3.26448,1
1774391550060,0.332648,0.677646,0.976604,145.179,-16.1645,-114.491,0,0,3.27127,3
1774391550074,0.466775,1.52075,0.463816,229.706,-32.1707,-145.426,0,0,3.5654,3
1774391550087,-0.324953,0.801032,0.0543984,237.794,-3.49995,-95.1912,0,0,3.33624,5
1774391550101,-0.295999,1.34345,0.0340569,245.301,13.7669,-63.0057,0,0,3.24177,5
1774391550114,-0.300036,0.951909,-0.121164,197.669,22.9001,-33.6563,0,0,3.27118,5
1774391550127,-0.232667,0.812501,-0.237461,156.94,16.0455,7.45581,0,0,3.272,5
1774391550141,-0.0410748,0.79016,-0.278989,100.487,3.20239,9.19135,0,0,3.26559,5
1774391550154,-0.0635506,0.747535,-0.269385,68.6474,7.69964,10.3837,0,0,3.26883,5
1774391550168,0.0249716,0.863365,-0.177986,42.8635,12.651,8.93727,0,0,3.25137,5
1774391550181,0.07264,0.916563,-0.160108,35.5035,11.7885,6.71915,0,0,3.2822,5
1774391550194,0.141174,0.949762,-0.17748,25.6299,8.06096,0.489854,0,0,3.25075,5
1774391550208,0.100738,0.935603,-0.164977,20.5607,7.10809,-7.92178,0,0,3.34875,5
1774391550221,0.107239,0.973809,-0.151797,15.4427,7.1317,-13.5304,0,0,3.27437,5
1774391550235,0.0710922,0.968139,-0.138436,12.5777,6.91496,-14.4681,0,0,3.29642,5
1774391550248,0.0312023,0.981276,-0.131996,10.1266,8.05937,-13.009,0,0,3.27431,5
1774391550261,0.024267,0.996413,-0.120798,8.28473,8.25748,-10.5425,0,0,3.24972,5
1774391550275,0.0236598,0.992426,-0.121014,7.5943,8.35136,-7.67093,0,0,3.31111,5
1774391550288,0.0352928,0.981171,-0.129115,5.76307,8.01919,-7.08753,0,0,3.26555,5
1774391550301,0.0335843,0.996384,-0.133609,4.9579,7.21678,-6.94326,0,0,3.30477,5
1774391550315,0.0476031,0.998316,-0.134992,5.6558,6.23679,-7.46236,0,0,3.25313,5
1774391550328,0.0568999,1.00831,-0.128213,5.13992,6.23052,-8.06752,0,0,3.30063,5
1774391550342,0.0359782,0.983996,-0.130865,5.50063,6.85641,-7.60122,0,0,3.27016,5
1774391550355,0.0671892,0.98481,-0.140333,5.14046,5.62563,-6.12101,0,0,3.24309,5
1774391550368,0.0721565,1.01809,-0.126249,4.26497,5.6013,-5.66696,0,0,3.27905,5
1774391550382,0.0457853,1.0279,-0.125871,5.26274,6.04537,-5.55401,0,0,3.27611,5
1774391550395,0.0344298,0.994966,-0.117906,4.90357,4.60707,-6.63868,0,0,3.30925,5
1774391550408,0.0453276,1.01706,-0.109874,6.31537,5.96871,-10.5017,0,0,3.25409,5
1774391550422,0.0598646,1.01136,-0.132564,8.50831,5.40369,-15.1391,0,0,3.29229,5
1774391550435,0.0528577,1.02074,-0.117912,10.4167,5.95159,-18.0704,0,0,3.26648,5
1774391550449,0.0316781,1.00895,-0.120241,12.1899,5.7631,-18.401,0,0,3.25344,5
1774391550462,0.0104541,1.02259,-0.123725,12.91,5.20998,-15.9815,0,0,3.30053,5
1774391550475,-0.00130948,1.04805,-0.144497,14.8023,3.74976,-12.824,0,0,3.23503,5
1774391550489,-0.0169721,1.02985,-0.144343,13.9963,2.3405,-9.85482,0,0,3.35568,5
1774391550502,-0.0206328,1.05089,-0.148234,16.2064,1.42071,-7.42644,0,0,3.26518,5
1774391550516,-0.0246519,1.05135,-0.148562,17.7985,0.28262,-6.61573,0,0,3.29638,5
1774391550529,0.0112669,1.07506,-0.134709,19.2457,-0.578255,-7.82899,0,0,3.26896,5
1774391550542,-0.0489895,1.14969,-0.130461,25.1344,0.963387,-8.5016,0,0,3.2822,5
1774391550556,-0.0272459,1.08961,-0.14934,31.3587,1.02362,-5.68756,0,0,3.27474,5
1774391550569,-0.0328579,1.12392,-0.155113,32.5699,1.7977,-1.11295,0,0,3.33281,5
1774391550583,-0.0475872,1.2264,-0.131103,38.8431,3.14106,2.94354,0,0,3.27938,5
1774391550596,-0.0263339,1.13394,-0.150763,42.1665,3.66685,13.8465,0,0,3.2462,5
1774391550609,-0.0351157,1.16671,-0.152278,47.3075,4.30405,14.2468,0,0,3.27361,5
1774391550623,-0.0163794,1.17174,-0.160726,52.2365,5.07975,15.2592,0,0,3.29955,5
1774391550636,-0.0190442,1.13663,-0.177109,56.0607,5.35981,16.4891,0,0,3.29687,5
1774391550650,0.00347585,1.14295,-0.192043,59.0182,5.22987,17.0358,0,0,3.26944,5
1774391550663,0.0161228,1.12927,-0.199798,62.2067,4.3623,15.7651,0,0,3.23979,5
1774391550676,0.030235,1.11775,-0.244948,66.1041,3.46799,17.1532,0,0,3.2775,5
1774391550690,0.0222206,1.147,-0.222732,70.8895,3.07877,14.7489,0,0,3.27435,5
1774391550703,0.0368731,1.15109,-0.224642,75.4789,2.06852,13.242,0,0,3.29731,5
1774391550716,0.055812,1.16255,-0.241776,82.0467,0.654607,12.3954,0,0,3.26177,5
1774391550730,0.0467675,1.17349,-0.241898,87.6223,-0.985417,11.5667,0,0,3.27255,5
1774391550743,0.0593568,1.19358,-0.248723,94.7693,-2.93996,10.643,0,0,3.27453,5
1774391550756,0.0441429,1.22398,-0.250551,102.487,-4.79585,10.949,0,0,3.24322,5
1774391550770,0.0602621,1.27949,-0.24979,113.432,-7.1121,11.0147,0,0,3.28257,5
1774391550783,0.100505,1.29847,-0.235288,124.366,-10.4033,10.9291,0,0,3.47933,5
1774391550797,0.122905,1.4267,-0.20656,138.79,-14.3883,12.4433,0,0,3.28622,5
1774391550810,0.205221,1.56007,-0.16562,157.514,-20.9553,12.6089,0,0,3.26272,5
1774391550824,0.245687,1.75791,-0.0994245,184.195,-28.2706,9.77606,0,0,3.29372,5
1774391550837,0.296742,1.92745,-0.0144875,217.6,-39.1192,10.768,0,0,3.27035,5
1774391550850,0.344201,2.18127,0.0647478,243.8,-48.8909,2.69182,0,0,3.24657,5
1774391550864,0.294543,2.30128,0.0815108,248.898,-55.8277,-5.75952,0,0,3.27505,5
1774391550877,0.163816,2.34971,-0.113453,249.89,-54.1405,-19.5897,0,0,3.24738,5
1774391550890,0.0782093,2.1139,-0.348348,250.083,-49.8712,-18.1679,0,0,3.29829,5
1774391550904,0.0947689,1.92311,-0.601271,250.121,-44.8659,-28.5951,0,0,3.24403,5
1774391550917,0.0747209,1.41088,-0.513553,250.128,-42.9881,-35.0324,0,0,3.27483,3
1774391550930,0.269698,1.63929,-0.48004,250.129,-39.9974,-42.341,0,0,3.26972,3
1774391550944,0.496912,1.06532,-0.249801,250.13,-45.5635,-44.2182,0,0,3.26329,3
1774391550957,0.493275,0.585706,0.810062,246.994,-60.3631,-28.0882,0,0,3.27937,3
1774391550970,0.868334,-2.77126,0.707293,111.347,-118.256,14.1587,0,0,3.24766,3
1774391550984,0.0564482,-0.914132,0.571093,-118.17,-118.917,45.0418,0,0,3.64811,3
1774391550998,-0.262075,0.217416,0.652734,-118.359,-97.6007,15.0178,0,0,3.24368,3
1774391551011,-0.49898,0.538129,0.532525,-148.46,-57.6462,-25.1436,0,0,3.33546,3
1774391551024,-0.500084,0.373672,0.419175,-156.445,-15.3372,-41.1236,0,0,3.26746,3
1774391551038,-0.391001,0.316202,0.378615,-173.984,17.261,-28.5004,0,0,3.30361,3
1774391551051,-0.230054,0.324751,0.348267,-195.638,40.1983,-6.825,0,0,3.27444,2
1774391551065,-0.0718299,0.363859,0.317973,-215.345,55.5379,6.79348,0,0,3.24063,2
1774391551078,0.0179277,0.425811,0.283584,-235.983,63.8596,11.4787,0,0,3.27259,2
1774391551091,0.0911271,0.434725,0.264182,-247.383,68.0243,14.7082,0,0,3.26444,2
1774391551105,0.163285,0.585812,0.253085,-249.601,66.8858,21.3864,0,0,3.29442,2
1774391551118,0.242671,0.721019,0.231525,-250.033,59.1205,30.408,0,0,3.25551,2
1774391551131,0.274487,0.925426,0.189645,-250.117,50.4653,40.5988,0,0,3.28131,2
1774391551145,0.175957,1.07063,0.106577,-250.133,38.9379,52.3389,0,0,3.26996,2
1774391551158,0.0929007,1.35707,0.0314168,-250.137,35.1823,65.2536,0,0,3.24637,2
1774391551171,0.0629608,1.5986,-0.0941691,-250.137,33.3386,76.8045,0,0,3.27976,2
1774391551185,0.0803171,1.55752,-0.169105,-250.137,30.3976,85.2311,0,0,3.24759,2
1774391551198,0.124287,1.53704,-0.197941,-250.137,25.4725,82.1369,0,0,3.30413,5
1774391551212,0.222392,1.64397,-0.246596,-250.137,17.3023,67.2098,0,0,3.28307,5
1774391551225,0.353053,1.70872,-0.335411,-250.137,5.18687,45.0798,0,0,3.3004,5
1774391551238,0.40397,1.7418,-0.403711,-250.137,-9.48542,27.9853,0,0,3.27222,5
1774391551252,0.34398,1.76478,-0.442029,-250.137,-20.3024,22.7651,0,0,3.25481,5
1774391551265,0.238543,1.80222,-0.452654,-250.137,-23.9813,23.7412,0,0,3.28062,5
1774391551278,0.163109,1.91251,-0.471586,-250.137,-21.4941,27.3127,0,0,3.28151,5
1774391551292,0.0887432,1.95654,-0.526701,-250.137,-15.1141,36.8609,0,0,3.292,5
1774391551305,0.0232425,1.93098,-0.626184,-243.35,-6.11362,49.9392,0,0,3.24601,5
1774391551319,-0.0663339,1.74148,-0.716645,-233.311,4.67556,61.8724,0,0,3.28333,5
1774391551332,-0.0511954,1.61403,-0.782169,-225.554,14.6447,65.8731,0,0,3.26661,5
1774391551345,0.0752865,1.5915,-0.832075,-214.232,17.968,60.3559,0,0,3.26229,5
1774391551359,0.231603,1.71271,-0.894775,-189.502,11.5321,48.8429,0,0,3.2814,5
1774391551372,0.24936,1.71392,-0.996469,-154.226,-2.01032,46.7008,0,0,3.26459,5
1774391551385,0.0852243,1.50406,-1.07841,-125.105,-11.1135,48.5833,0,0,3.30672,5
1774391551399,-0.175726,1.49322,-1.11538,-95.7309,-8.44603,32.3129,0,0,3.27227,5
1774391551412,-0.310166,1.57289,-1.15477,-60.3072,2.0391,4.8802,0,0,3.32105,5
1774391551426,-0.263441,1.47324,-1.17087,-24.9296,11.531,-11.3157,0,0,3.26705,5
1774391551439,-0.184614,1.30535,-1.13407,-3.75695,17.3744,-14.8425,0,0,3.30709,5
1774391551452,-0.190122,1.32613,-1.02538,11.2515,25.3297,-18.4246,0,0,3.27333,5
1774391551466,-0.175335,1.53813,-0.882767,38.6785,36.7947,-28.7619,0,0,3.25231,5
1774391551479,0.526006,3.34025,2.13852,208.981,43.1758,-55.7593,0,0,3.27672,5
1774391551493,0.752892,-0.624666,1.11973,174.266,24.8051,-89.1344,0,0,3.3905,5
1774391551506,0.318443,1.94084,0.767571,235.367,45.0356,-98.568,0,0,3.31442,5
1774391551519,-0.412418,0.490558,0.262683,247.257,66.7957,-68.8825,0,0,3.26961,5
1774391551533,-0.576618,1.05133,0.109347,236.924,92.0322,-11.4187,0,0,3.27001,5
1774391551546,-0.305525,0.888827,0.0925676,217.391,93.8199,16.007,0,0,3.27553,5
1774391551559,0.456092,1.17145,0.120063,186.957,63.9254,10.2467,0,0,3.24751,5
1774391551573,0.365273,1.01735,-0.051293,168.541,25.8796,15.8703,0,0,3.3104,5
1774391551586,0.224411,0.894911,-0.107752,128.518,0.646456,27.4655,0,0,3.24779,5
1774391551600,0.043152,0.851203,-0.129672,98.965,1.75504,26.445,0,0,3.29577,5
1774391551613,0.0821583,0.893466,-0.114456,77.813,9.67433,15.6533,0,0,3.24259,5
1774391551626,0.175716,0.906042,-0.0998344,64.985,10.1703,5.60989,0,0,3.28638,5
1774391551640,0.122504,0.885998,-0.0939505,50.3831,6.35657,2.05079,0,0,3.27153,5
1774391551653,0.0955568,0.929241,-0.129012,40.9262,4.16348,-1.9003,0,0,3.2434,5
1774391551666,0.0676044,0.938683,-0.133224,31.4684,7.59156,-5.91537,0,0,3.25696,5
1774391551680,0.0661911,0.970166,-0.120233,25.7362,6.38349,-8.58417,0,0,3.27579,5
1774391551693,0.091906,0.970202,-0.113178,21.688,5.02331,-6.41066,0,0,3.28018,5
1774391551706,0.0500049,0.982007,-0.156505,18.275,4.48195,-4.13097,0,0,3.27011,5
1774391551720,0.0459264,0.978558,-0.124327,14.2417,5.43407,-3.0049,0,0,3.26455,5
1774391551733,0.0743229,1.00105,-0.107126,12.6883,4.72788,-3.69569,0,0,3.25872,5
1774391551746,0.0788935,0.986161,-0.102517,10.806,5.13149,-5.59462,0,0,3.25225,5
1774391551760,0.0745777,0.994505,-0.0996736,10.0954,5.89247,-8.42338,0,0,3.24631,5
1774391551773,0.0680596,0.990842,-0.105167,9.10864,6.95662,-11.2241,0,0,3.24157,5
1774391551786,0.0681003,1.00023,-0.117899,8.75063,8.31955,-12.6298,0,0,3.28825,5
1774391551800,0.0620346,0.994163,-0.109157,7.61119,9.35943,-13.2845,0,0,3.27138,5
1774391551813,0.0562987,1.00987,-0.103419,8.18256,10.0413,-14.4817,0,0,3.28996,5
1774391551827,0.0433235,0.99782,-0.104562,7.40227,10.3216,-15.0406,0,0,3.2537,5
1774391551840,0.053251,1.01568,-0.0809194,7.48406,10.8126,-16.1576,0,0,3.26227,5
1774391551853,0.041792,1.01064,-0.087095,6.81139,10.8344,-15.754,0,0,3.24909,5
1774391551867,0.0467641,1.03788,-0.0810647,7.80558,12.0806,-16.0997,0,0,3.25361,5
1774391551880,0.0375517,1.04161,-0.121806,9.81889,9.26749,-15.1833,0,0,3.27874,5
1774391551893,0.0147087,0.988808,-0.10377,10.2906,8.75694,-14.5254,0,0,3.24583,5
1774391551907,0.0332518,1.01237,-0.115558,10.6837,7.07753,-13.4505,0,0,3.29824,5
1774391551920,0.0673523,1.04246,-0.114964,15.1683,4.66037,-13.5242,0,0,3.28016,5
1774391551933,0.0557576,1.06017,-0.124813,17.3998,2.3763,-15.3276,0,0,3.27351,5
1774391551947,0.0319189,1.06724,-0.114941,23.853,-0.140083,-16.6868,0,0,3.27698,5
1774391551960,-0.00360054,0.982271,-0.134994,22.6864,-0.70355,-15.5066,0,0,3.2925,5
1774391551974,-0.0186584,1.03814,-0.136793,22.2258,-0.419723,-11.7479,0,0,3.28283,5
1774391551987,-0.0019612,1.07277,-0.141564,26.6489,-1.64329,-7.51816,0,0,3.28092,5
1774391552001,-0.0103553,1.05864,-0.125685,28.0383,-2.31791,-6.69506,0,0,3.60835,5
1774391552014,-0.0544257,1.15601,-0.152528,34.881,-0.457215,-5.56964,0,0,3.27012,5
1774391552027,-0.0346003,1.08023,-0.1515,37.6144,0.206134,-2.34421,0,0,3.31864,5
1774391552041,-0.0321477,1.15,-0.147471,40.2182,1.5341,-0.997217,0,0,3.27883,5
1774391552054,-0.0246991,1.18835,-0.153898,44.3215,2.32741,4.66293,0,0,3.26531,5
1774391552068,-0.040933,1.15073,-0.163305,47.733,2.46949,12.6994,0,0,3.27522,5
1774391552081,-0.0106105,1.16335,-0.160106,52.2824,3.41935,18.0567,0,0,3.25733,5
1774391552094,0.000910112,1.12527,-0.170151,55.2827,3.84397,18.1647,0,0,3.32277,5
1774391552108,0.0107885,1.11077,-0.1816,57.6126,3.62534,18.9051,0,0,3.29442,5
1774391552121,0.00968227,1.11869,-0.195034,60.1994,3.7488,19.5595,0,0,3.29803,5
1774391552135,0.0167135,1.13778,-0.20757,64.9142,3.40394,19.8897,0,0,3.28442,5
1774391552148,0.0143082,1.13182,-0.212537,69.1333,3.01713,19.8556,0,0,3.27855,5
1774391552161,0.0240296,1.13451,-0.208328,73.8768,2.40697,20.1379,0,0,3.2735,5
1774391552175,0.029494,1.15221,-0.228825,78.8453,1.63653,20.2605,0,0,3.26403,5
1774391552188,0.054371,1.18001,-0.231994,84.5892,0.084843,19.4543,0,0,3.28687,5
1774391552202,0.0590708,1.19586,-0.241243,92.1748,-1.3914,17.8895,0,0,3.72663,5
1774391552215,0.0860662,1.21333,-0.244258,99.3441,-3.16652,16.2202,0,0,3.27022,5
1774391552229,0.0881167,1.2534,-0.239347,108.762,-6.01423,14.1861,0,0,3.24187,5
1774391552242,0.128879,1.28844,-0.243571,118.748,-8.50504,11.4417,0,0,3.2974,5
1774391552255,0.167682,1.33876,-0.218788,130.276,-13.8529,11.2274,0,0,3.26513,5
1774391552269,0.195058,1.45376,-0.17819,144.748,-17.445,8.25301,0,0,3.27744,5
1774391552282,0.323746,1.5784,-0.14515,165.27,-25.1467,5.73756,0,0,3.29974,5
1774391552295,0.254926,1.69723,-0.0630205,190.629,-34.1523,4.31968,0,0,3.29088,5
1774391552309,0.294214,1.99948,-0.00723523,219.787,-43.135,2.38993,0,0,3.30538,5
1774391552322,0.270783,2.20807,0.0482826,244.225,-52.3591,0.465082,0,0,3.2579,5
1774391552336,-0.0230609,2.37334,-0.0798201,248.981,-51.2829,2.99855,0,0,3.30385,5
1774391552349,-0.269975,2.20834,-0.301983,249.906,-37.1358,11.1767,0,0,3.26655,5
1774391552362,-0.240518,2.3173,-0.439257,250.086,-27.6875,8.21241,0,0,3.28401,5
1774391552376,-0.107162,1.73883,-0.332703,250.121,-17.5797,-1.22998,0,0,3.2725,5
1774391552389,0.022401,1.77328,-0.217292,250.128,-17.2849,-6.8547,0,0,3.27698,5
1774391552403,0.204207,1.61558,-0.108981,250.129,-20.2648,6.54792,0,0,3.66498,5
1774391552416,0.23487,1.11991,0.0303136,250.13,-26.3164,23.6287,0,0,3.29465,3
1774391552430,0.851997,-0.640543,0.527493,250.13,-49.2706,28.2068,0,0,3.28592,3
1774391552443,1.46917,-3.09984,0.335256,96.944,-98.0898,73.8988,0,0,3.28398,3
1774391552456,0.00118593,-1.63128,0.1447,-118.022,-89.8282,76.6855,0,0,3.2819,3
1774391552470,-0.338899,-0.373474,0.550636,-182.196,-66.2104,2.50389,0,0,3.28733,3
1774391552483,-0.554774,0.519919,0.489261,-213.719,-30.6956,-55.78,0,0,3.26853,3
1774391552496,-0.40637,0.70658,0.393821,-191.665,-2.58578,-74.924,0,0,3.27387,3
1774391552510,-0.208972,0.581804,0.333217,-192.537,12.3463,-60.654,0,0,3.29605,2
1774391552523,-0.0492023,0.475094,0.283736,-195.345,17.0658,-28.231,0,0,3.28076,2
1774391552537,0.0615226,0.362501,0.261006,-210.296,19.6196,-7.77471,0,0,3.28579,2
1774391552550,0.094587,0.338945,0.226319,-232.547,18.1369,-7.37824,0,0,3.27198,2
1774391552563,0.118817,0.420028,0.21774,-246.714,16.6187,-18.0172,0,0,3.30675,2
1774391552577,0.152118,0.501091,0.216156,-249.471,13.6796,-24.8831,0,0,3.2717,2
1774391552590,0.239143,0.710292,0.223774,-250.008,5.46559,-20.8703,0,0,3.27409,2
1774391552603,0.290878,0.999582,0.200973,-250.112,-6.43091,-5.14959,0,0,3.27731,2
1774391552617,0.235038,1.07817,0.120693,-250.132,-15.8716,17.645,0,0,3.30303,2
1774391552630,0.160383,1.12175,0.0600417,-250.136,-19.8053,37.6294,0,0,3.28818,2
1774391552644,0.0420808,1.21974,-0.00392888,-250.137,-17.9947,48.767,0,0,3.28472,3
1774391552657,-0.0178564,1.45154,-0.06164,-250.137,-12.1829,56.8857,0,0,3.2974,5
1774391552670,4.09225e-05,1.60676,-0.0860398,-250.137,-7.99015,60.8203,0,0,3.27325,5
1774391552684,0.0323599,1.66604,-0.119207,-250.137,-7.59846,68.6255,0,0,3.28644,5
1774391552697,0.0824835,1.54932,-0.166878,-250.137,-10.6455,74.276,0,0,3.27648,5
1774391552711,0.0987737,1.61705,-0.180187,-250.137,-14.5707,66.2887,0,0,3.40422,5
1774391552724,0.137454,1.77318,-0.214672,-250.137,-20.8432,43.837,0,0,3.28311,5
1774391552738,0.166762,1.97336,-0.260908,-250.137,-31.6795,26.3048,0,0,3.28576,5
1774391552751,0.142624,2.03915,-0.322268,-250.137,-43.6989,26.1208,0,0,3.26877,5
1774391552764,0.0655607,2.02157,-0.370164,-250.137,-51.6081,33.7701,0,0,3.2737,3
1774391552778,0.0130989,2.00381,-0.443228,-250.137,-51.2413,37.1707,0,0,3.2757,3
1774391552791,-0.0224051,2.0146,-0.582371,-250.137,-45.4768,42.7632,0,0,3.27803,3
1774391552804,-0.0210162,1.99444,-0.732429,-237.614,-37.6474,59.4062,0,0,3.27159,3
1774391552818,-0.0792653,1.90468,-0.897385,-214.55,-30.2401,88.4546,0,0,3.30485,3
1774391552831,-0.237673,1.82826,-1.02827,-187.117,-17.9104,115.294,0,0,3.28859,3
1774391552845,-0.387352,1.83352,-1.16789,-150.03,0.289552,112.721,0,0,3.28531,3
1774391552858,-0.372591,1.66068,-1.28716,-109.982,18.1194,74.5878,0,0,3.27448,3
1774391552871,-0.291784,1.42402,-1.34467,-82.0226,29.0099,38.9904,0,0,3.2775,3
1774391552885,-0.189349,1.54237,-1.37903,-51.3377,31.2029,21.3285,0,0,3.269,1
1774391552898,-0.173876,1.64808,-1.37947,-9.36325,31.267,8.11606,0,0,3.28144,1
1774391552912,-0.273569,1.56899,-1.32884,27.3444,39.3027,-11.971,0,0,3.79122,1
1774391552925,-0.387498,1.46415,-1.15585,49.8088,56.7408,-28.8709,0,0,3.28887,1
1774391552939,1.47126,3.32043,-0.773496,150.257,21.0878,12.4817,0,0,3.29772,1
1774391552952,1.09607,-0.731135,0.573585,214.359,19.4063,-46.4115,0,0,3.30772,1
1774391552966,0.391274,1.67372,0.485223,243.169,11.4985,-112.799,0,0,3.28946,1
1774391552979,-0.201133,0.75391,0.0454791,248.775,14.8227,-98.9187,0,0,3.27738,5
1774391552993,-0.148259,0.627192,0.100654,216.814,28.6266,-77.4351,0,0,3.31114,5
1774391553006,-0.194143,1.23039,0.0616425,198.987,35.9054,-50.5372,0,0,3.27244,5
1774391553019,-0.15711,1.12625,-0.0202999,182.908,34.2232,-21.768,0,0,3.33342,5
1774391553033,0.0167025,0.915514,-0.115533,149.118,17.3083,0.436481,0,0,3.29366,5
1774391553046,0.055769,0.915166,-0.100659,116.826,1.00735,14.7481,0,0,3.3,5
1774391553060,-0.00453758,0.867533,-0.0739758,91.9741,4.48125,12.0552,0,0,3.29968,5
1774391553073,0.0400693,0.893731,-0.0507409,73.5507,16.5189,6.43443,0,0,3.2934,5
1774391553087,0.120294,0.926666,-0.0164556,62.723,18.3635,1.5534,0,0,3.3125,5
1774391553100,0.140896,0.957116,-0.0145965,56.0479,10.7053,-0.287924,0,0,3.27535,5
1774391553114,0.0892254,0.937931,-0.0262515,48.9144,8.20676,-1.35942,0,0,3.68135,5
1774391553127,0.0585802,0.954594,-0.047783,41.0216,10.4257,-3.92266,0,0,3.29838,5
1774391553141,0.0616284,0.978182,-0.0442587,36.4177,11.1157,-3.68984,0,0,3.33239,5
1774391553154,0.047075,0.955907,-0.0672633,30.2099,9.41172,-1.75092,0,0,3.28298,5
1774391553168,0.0497882,0.97353,-0.0650274,25.5036,8.03495,0.0711913,0,0,3.29909,5
1774391553181,0.0544471,0.986116,-0.0508453,21.5198,7.08459,-0.453401,0,0,3.30816,5
1774391553194,0.0658826,1.01379,-0.0311388,21.1135,6.03277,-1.77281,0,0,3.30496,5
1774391553208,0.0785979,0.972598,-0.0587436,19.8293,5.74816,-3.87399,0,0,3.29277,5
1774391553221,0.0689581,0.989619,-0.0702509,17.2432,6.50432,-6.0105,0,0,3.29475,5
1774391553235,0.0501113,1.01598,-0.0635045,17.0596,7.26013,-6.31559,0,0,3.30626,5
1774391553248,0.0423805,1.02466,-0.0616968,17.528,6.14685,-6.72541,0,0,3.27538,5
1774391553262,0.0449558,0.993203,-0.0837316,16.9675,4.8174,-6.08583,0,0,3.31142,5
1774391553275,0.0561905,0.996213,-0.0697975,15.3952,3.41515,-6.74218,0,0,3.28187,5
1774391553288,0.0724264,1.01096,-0.0758937,16.1528,2.62583,-8.51144,0,0,3.27546,5
1774391553302,0.0367428,0.980417,-0.0789569,14.7509,3.42518,-10.0731,0,0,3.29116,5
1774391553315,0.0752579,1.01495,-0.0781692,15.0438,4.41688,-13.0452,0,0,3.30292,5
1774391553329,0.0457227,0.992567,-0.0801028,15.3221,5.80259,-15.4988,0,0,3.30272,5
1774391553342,0.0908896,1.02285,-0.0757954,16.1755,7.38179,-19.5667,0,0,3.28713,5
1774391553355,0.0749325,0.999331,-0.0758923,17.2699,7.7137,-22.0368,0,0,3.29851,5
1774391553369,0.0583249,0.980697,-0.102548,14.4826,8.69435,-23.8147,0,0,3.29087,5
1774391553382,-0.0249421,1.00716,-0.13918,15.2498,7.79083,-20.0415,0,0,3.30964,5
1774391553396,-0.0486832,1.03123,-0.127012,17.0959,7.11701,-15.8643,0,0,3.30868,5
1774391553409,-0.0446787,1.04125,-0.146807,20.2649,6.25426,-10.8215,0,0,3.31838,5
1774391553423,0.00786668,1.03697,-0.113865,22.3017,6.27696,-7.22108,0,0,3.34309,5
1774391553436,-0.0250581,1.04386,-0.135063,25.9751,5.58664,-4.09194,0,0,3.27974,5
1774391553449,0.00526017,1.00943,-0.123943,26.5854,4.39483,-3.31701,0,0,3.30194,5
1774391553463,0.00766478,1.00503,-0.129006,25.3946,3.40055,-2.34236,0,0,3.28963,5
1774391553476,0.0170665,0.998309,-0.129469,23.8103,1.85448,-2.25107,0,0,3.26987,5
1774391553490,0.0133304,1.01813,-0.132453,23.6065,-0.542887,-2.52841,0,0,3.29151,5
1774391553503,0.0511123,1.07206,-0.135397,25.1715,-2.8354,-5.64413,0,0,3.26783,5
1774391553516,0.0403253,1.12708,-0.113845,30.0379,-5.27965,-8.90642,0,0,3.31553,5
1774391553530,0.0299285,1.12681,-0.133807,36.2108,-6.33937,-10.8815,0,0,3.29109,5
1774391553543,-0.0177168,1.10171,-0.147019,38.5371,-5.32827,-13.8235,0,0,3.32201,5
1774391553557,-0.0689089,1.18489,-0.15467,41.7073,-1.28281,-16.2159,0,0,3.28681,5
1774391553570,-0.0929917,1.24917,-0.125622,44.4207,2.82441,-11.2649,0,0,3.27955,5
1774391553583,-0.0494022,1.24084,-0.155192,52.0006,2.36947,8.2104,0,0,3.2985,5
1774391553597,-0.098667,1.20698,-0.167584,56.0394,3.75033,10.3219,0,0,3.26761,5
1774391553610,-0.107578,1.21828,-0.168402,63.1333,5.37162,15.5037,0,0,3.31668,5
1774391553624,0.003166,1.21844,-0.167727,71.0185,4.09477,16.6658,0,0,3.29733,5
1774391553637,-0.0300708,1.21116,-0.181844,75.129,5.02673,15.1213,0,0,3.30601,5
1774391553651,0.0180362,1.25067,-0.171329,83.6693,3.32677,15.3064,0,0,3.29281,5
1774391553664,0.000364691,1.22123,-0.184954,91.4302,1.75405,15.2256,0,0,3.2824,5
1774391553677,0.00170623,1.22174,-0.18646,99.1869,0.421264,16.6055,0,0,3.29192,5
1774391553691,0.0160061,1.22616,-0.197051,107.14,-1.91,16.8495,0,0,3.27188,5
1774391553704,0.00339521,1.25916,-0.198102,114.798,-3.48877,17.856,0,0,3.34263,5
1774391553718,0.0977778,1.34807,-0.18766,127.282,-7.58937,17.4064,0,0,3.28177,5
1774391553731,0.150055,1.41372,-0.170743,142.665,-12.9923,14.0112,0,0,3.35009,5
1774391553745,0.233228,1.51405,-0.140653,160.229,-19.786,8.43201,0,0,3.2877,5
1774391553758,0.123081,1.62101,-0.0941643,181.176,-26.6905,6.82986,0,0,3.2699,5
1774391553771,0.273362,1.81302,-0.0291632,206.635,-32.8788,-2.50116,0,0,3.29477,5
1774391553785,0.3542,1.95812,0.0225687,237.288,-44.043,-4.69817,0,0,3.29224,5
1774391553798,0.288644,2.0751,0.0108728,247.631,-53.4887,-11.5751,0,0,3.31522,5
1774391553812,-0.00826661,2.1304,-0.13238,249.643,-52.3573,-14.2536,0,0,3.27374,5
1774391553825,-0.0812107,2.13449,-0.330901,250.035,-45.1161,-8.47918,0,0,3.30546,5
1774391553839,-0.0558965,2.02674,-0.283473,250.111,-39.2311,-7.82888,0,0,3.28929,5
1774391553852,0.0257715,1.6415,-0.0482543,250.126,-39.3339,-16.4326,0,0,3.28444,5
1774391553865,0.0167352,1.64819,-0.0558233,250.129,-37.6448,-14.1352,0,0,3.28829,5
1774391553879,0.382842,1.48305,-0.248907,250.13,-42.7448,-12.6614,0,0,3.27396,5
1774391553892,0.656446,0.331433,-0.165886,250.13,-56.9434,-12.9833,0,0,3.28805,3
1774391553906,0.624132,-1.10918,0.367687,201.972,-75.9927,7.45179,0,0,3.27716,3
1774391553919,1.02457,-2.24654,0.314419,70.8497,-108.141,83.4595,0,0,3.30974,3
1774391553932,-0.0317987,-1.11346,0.302112,-121.569,-95.7066,52.2813,0,0,3.29037,3
1774391553946,-0.343269,0.158286,0.554031,-154.187,-67.6248,-43.7878,0,0,3.29848,3
1774391553959,-0.489281,0.610395,0.456035,-178.85,-28.7268,-51.902,0,0,3.29303,3
1774391553973,-0.30089,0.482576,0.434603,-170.757,1.81205,-3.05445,0,0,3.26857,3
1774391553986,-0.211985,0.412582,0.391149,-192.17,18.7477,39.1038,0,0,3.29729,3
1774391553999,-0.197278,0.321802,0.370034,-203.29,39.2396,44.0985,0,0,3.27361,3
1774391554013,-0.147048,0.168976,0.352044,-233.416,57.0421,19.0456,0,0,3.2829,3
1774391554026,-0.03118,0.261711,0.36724,-246.883,62.7567,-0.265374,0,0,3.35055,2
1774391554040,0.166079,0.45438,0.406521,-249.504,56.1221,5.01438,0,0,3.30707,2
1774391554053,0.39176,0.697776,0.410433,-250.014,34.4255,24.5476,0,0,3.29231,2
1774391554067,0.416844,0.976747,0.357507,-250.113,8.56824,44.6473,0,0,3.27429,2
1774391554080,0.235906,1.03809,0.276662,-250.133,-12.3011,60.4799,0,0,3.29859,2
1774391554093,0.00405333,1.19805,0.144012,-250.136,-16.7496,77.1113,0,0,3.28218,2
1774391554107,-0.132956,1.40926,-0.000552481,-250.137,-10.1269,90.529,0,0,3.27787,2
1774391554120,-0.0781617,1.43762,-0.0233821,-250.137,-3.7229,82.7929,0,0,3.29355,2
1774391554134,0.0156949,1.68917,-0.000188613,-250.137,-3.61408,71.4136,0,0,3.30587,5
1774391554147,0.120554,1.66561,-0.0693952,-250.137,-8.911,69.6295,0,0,3.32385,5
1774391554161,0.206022,1.58423,-0.117071,-250.137,-15.4505,67.7084,0,0,3.27748,5
1774391554174,0.19139,1.64339,-0.118586,-250.137,-19.4405,62.8957,0,0,3.29794,5
1774391554187,0.110619,1.78095,-0.138473,-250.137,-18.182,58.0489,0,0,3.27309,5
1774391554201,-0.012181,1.9976,-0.202959,-250.137,-12.8833,59.0977,0,0,3.29518,5
1774391554214,-0.0474085,2.23009,-0.33194,-250.137,-4.16093,60.7958,0,0,3.27485,5
1774391554228,-0.0484478,2.25164,-0.472126,-250.137,6.81391,61.9931,0,0,3.88557,5
1774391554242,0.116057,2.20897,-0.591723,-250.137,13.3209,58.8201,0,0,3.28435,1
1774391554255,0.436084,2.08477,-0.745122,-245.717,6.78525,56.7886,0,0,3.27937,1
1774391554269,0.663027,2.03254,-0.907757,-221.064,-15.1995,72.2123,0,0,3.29553,1
1774391554282,0.584253,1.98888,-1.07322,-185.796,-42.6253,104.411,0,0,3.28209,3
1774391554295,0.212669,1.88192,-1.22211,-147.172,-59.5638,118.903,0,0,3.27087,3
1774391554309,-0.258105,1.68276,-1.32331,-110.834,-54.6954,86.3348,0,0,3.28694,3
1774391554322,-0.491125,1.56827,-1.39886,-78.5918,-35.6542,28.8265,0,0,3.28916,3
1774391554336,-0.440252,1.55904,-1.45199,-43.4215,-17.8942,-8.04526,0,0,3.31051,3
1774391554349,-0.382833,1.51171,-1.4396,-8.07481,-3.43919,-15.0484,0,0,3.31594,3
1774391554362,-0.516861,1.4951,-1.35424,23.7342,15.9675,-19.3131,0,0,3.31726,3
1774391554376,-0.694501,1.55427,-1.17945,53.871,46.7095,-35.5931,0,0,3.30687,3
1774391554389,-0.143555,2.96131,2.61208,-34.2932,104.699,-128.529,0,0,3.28877,1
1774391554403,0.130249,0.563642,2.17562,194.781,79.1071,-120.387,0,0,3.28742,1
1774391554416,-0.0287253,0.597299,1.10662,226.331,70.9853,-136.731,0,0,3.31368,1
1774391554430,-0.0807948,1.32639,0.187853,245.499,60.6192,-121.325,0,0,3.69337,1
1774391554443,-0.448798,0.728402,0.107169,249.229,80.8457,-68.8476,0,0,3.33315,5
1774391554457,-0.0312508,1.06502,0.154537,215.193,73.7398,-49.5485,0,0,3.26953,5
1774391554470,0.0273711,1.34324,-0.0663621,202.834,45.6313,-16.8416,0,0,3.32164,5
1774391554484,0.105989,0.750608,-0.144139,156.187,16.3191,0.780358,0,0,3.28527,5
1774391554497,0.0419827,0.801278,-0.187677,105.179,10.6948,10.413,0,0,3.26757,5
1774391554510,0.0280492,0.847025,-0.117667,78.8256,19.5295,5.85664,0,0,3.2909,5
1774391554524,0.102954,0.906645,-0.044218,63.0978,25.1589,0.199047,0,0,3.27659,5
1774391554537,0.139467,0.971054,-0.0377631,57.8608,22.3688,-1.73806,0,0,3.36233,5
1774391554551,0.107608,0.920754,-0.0528335,50.4538,16.9074,-1.44488,0,0,3.26824,5
1774391554564,0.0669017,0.909064,-0.0700971,39.4091,14.9531,-2.90026,0,0,3.31139,5
1774391554578,0.056173,0.968306,-0.119404,31.2408,13.251,-6.12226,0,0,3.29474,5
1774391554591,0.0649153,0.943431,-0.0959771,24.8619,11.186,-5.2061,0,0,3.25633,5
1774391554604,0.0318706,1.00504,-0.0902361,20.9646,11.0546,-4.80648,0,0,3.29126,5
1774391554618,0.0365993,0.97615,-0.0894127,18.9458,10.2852,-3.30236,0,0,3.26548,5
1774391554631,0.046445,1.01899,-0.0675666,17.2741,7.39337,-1.97063,0,0,3.37298,5
1774391554645,0.0594491,1.0067,-0.0581384,18.1784,6.00678,-2.46154,0,0,3.29194,5
1774391554658,0.0615038,0.990892,-0.0772377,16.6084,5.51562,-5.65571,0,0,3.2639,5
1774391554671,0.0827863,0.982904,-0.0921851,14.981,6.40988,-11.288,0,0,3.30333,5
1774391554685,0.0775867,0.985411,-0.117637,13.5945,7.64753,-16.1098,0,0,3.29459,5
1774391554698,0.0475978,0.981793,-0.103368,11.9107,8.46014,-18.4007,0,0,3.3039,5
1774391554712,0.0518942,1.01603,-0.0859611,12.4253,9.28227,-19.7195,0,0,3.27459,5
1774391554725,0.0425007,1.01877,-0.0714672,14.167,8.5139,-19.8532,0,0,3.29907,5
1774391554739,0.0206817,0.993949,-0.0961793,14.5858,8.80089,-20.8199,0,0,3.29414,5
1774391554752,-0.013403,0.965494,-0.108699,12.2819,8.40792,-18.9545,0,0,3.29113,5
1774391554765,-0.00752325,1.01059,-0.108479,11.895,7.63057,-16.4274,0,0,3.28148,5
1774391554779,-0.0336499,1.02875,-0.125935,14.2482,7.65145,-12.1545,0,0,3.26505,5
1774391554792,-0.0367186,1.04095,-0.109165,16.3477,7.40344,-8.88225,0,0,3.29848,5
1774391554805,0.00839107,1.07907,-0.109855,21.6255,6.31,-6.192,0,0,3.26501,5
1774391554819,-0.0140154,1.0555,-0.093776,25.659,6.53373,-2.71125,0,0,3.27346,5
1774391554832,-0.0218065,1.00826,-0.108948,25.7123,6.44816,-0.423093,0,0,3.28418,5
1774391554846,-0.0151366,1.01008,-0.131959,25.5075,6.41306,1.30713,0,0,3.31139,5
1774391554859,0.00648883,1.0229,-0.139375,25.7013,6.07423,1.62539,0,0,3.28657,5
1774391554872,0.0356961,1.04545,-0.13046,27.7556,4.55735,0.359339,0,0,3.2612,5
1774391554886,0.0401264,1.06776,-0.140046,31.5183,2.90958,-0.507993,0,0,3.28863,5
1774391554899,0.0139689,1.02513,-0.154232,33.6523,1.19331,-0.750553,0,0,3.26609,5
1774391554913,0.0150025,1.00083,-0.135335,32.0387,-0.862141,-3.64432,0,0,3.28198,5
1774391554926,0.0211774,1.05098,-0.141173,31.9399,-2.69464,-6.95564,0,0,3.27581,5
1774391554939,-0.0264957,1.07478,-0.166508,33.0089,-1.32978,-11.0614,0,0,3.30905,5
1774391554953,-0.00441866,1.12316,-0.160965,34.5142,0.878621,-16.4653,0,0,3.2825,5
1774391554966,-0.066418,1.08179,-0.181998,35.3051,2.48266,-10.7479,0,0,3.26613,5
1774391554980,-0.0179754,1.15703,-0.173694,37.7584,2.25378,-7.55104,0,0,3.28974,5
1774391554993,-0.0437782,1.11946,-0.184873,38.5186,1.76657,9.70164,0,0,3.26377,5
1774391555006,-0.0583771,1.19036,-0.178932,43.2776,2.81531,11.3621,0,0,3.30363,5
1774391555020,-0.02154,1.1947,-0.176626,50.6961,2.89643,12.5768,0,0,3.27114,5
1774391555033,0.00119859,1.18585,-0.188161,56.5725,2.75851,12.0139,0,0,3.29687,5
1774391555047,-0.0136193,1.17383,-0.189643,61.5402,2.84849,11.0805,0,0,3.29298,5
1774391555060,0.018155,1.18294,-0.191113,67.1917,2.20815,9.88441,0,0,3.29429,5
1774391555073,0.0204135,1.19593,-0.198655,73.7387,1.4134,8.75404,0,0,3.28425,5
1774391555087,0.00636341,1.20799,-0.212293,80.0419,0.520972,8.62014,0,0,3.27409,5
1774391555100,0.0186838,1.22516,-0.209156,88.7138,-1.31268,8.57564,0,0,3.29703,5
1774391555114,0.0214489,1.23387,-0.210639,97.1582,-3.08972,8.44402,0,0,3.27392,5
1774391555127,0.00681954,1.2514,-0.21193,106.769,-4.76966,9.30988,0,0,3.28818,5
1774391555141,0.0116571,1.31007,-0.214063,117.948,-6.38768,11.4949,0,0,3.66987,5
1774391555154,0.0638894,1.36725,-0.198192,131.688,-10.8955,13.574,0,0,3.27946,5
1774391555168,0.0857489,1.44584,-0.163914,146.547,-15.3387,13.8433,0,0,3.2892,5
1774391555181,0.103938,1.58146,-0.14061,165.873,-23.4642,14.904,0,0,3.26572,5
1774391555194,0.0457224,1.73147,-0.0909359,190.623,-26.7976,12.1348,0,0,3.3134,5
1774391555208,0.197945,1.85316,-0.0168598,221.483,-33.9694,10.8028,0,0,3.27113,5
1774391555221,0.262145,1.91669,-0.0293601,244.555,-42.46,4.23561,0,0,3.29294,5
1774391555235,0.206786,1.9355,-0.162641,249.045,-46.6391,-0.171739,0,0,3.2862,5
1774391555248,0.148166,1.92267,-0.398167,249.919,-44.3291,2.1553,0,0,3.30335,5
1774391555261,0.089386,2.01484,-0.479684,250.089,-41.5372,-6.56481,0,0,3.28462,5
1774391555275,0.232878,1.81685,-0.364803,250.122,-41.5165,-20.2444,0,0,3.26485,5
1774391555288,0.241302,1.59402,-0.225357,250.128,-43.7565,-26.4231,0,0,3.29142,5
1774391555302,0.430682,1.52912,-0.23732,250.129,-52.0865,-15.3847,0,0,3.26535,3
1774391555315,0.474456,1.1332,-0.0970111,250.13,-62.0628,-10.8019,0,0,3.28301,3
1774391555328,0.665266,0.17478,0.0358442,250.13,-77.4501,-8.65592,0,0,3.2745,3
1774391555342,0.445449,-1.39046,2.00183,194.557,-93.8842,35.6406,0,0,3.81631,3
1774391555356,-0.108693,-2.24345,0.264373,-31.5694,-100.083,75.7512,0,0,3.29146,3
1774391555369,-0.427499,-0.154143,0.524796,-123.203,-69.1957,18.3379,0,0,3.28266,3
1774391555383,-0.67002,-0.215915,0.400304,-174.671,-22.3434,-52.7233,0,0,3.29976,3
1774391555396,-0.500518,0.734784,0.412163,-182.308,14.9631,-55.3009,0,0,3.28331,3
1774391555409,-0.213109,0.463361,0.383349,-183.812,34.6052,-9.85781,0,0,3.31435,3
1774391555423,0.00670179,0.681595,0.333271,-183.238,40.5056,32.1605,0,0,3.29548,2
1774391555436,0.0897276,0.444999,0.26141,-192.035,43.5044,45.6001,0,0,3.30677,2
1774391555450,0.154332,0.347467,0.210879,-214.201,41.266,31.5848,0,0,3.29137,2
1774391555463,0.20274,0.331342,0.211279,-243.144,33.2068,13.4258,0,0,3.29113,2
1774391555476,0.269686,0.621021,0.216212,-248.777,19.0964,11.4966,0,0,3.29596,2
1774391555490,0.308177,0.830895,0.186078,-249.873,1.13397,24.3581,0,0,3.27592,2
1774391555503,0.257188,0.98114,0.119204,-250.086,-15.045,36.6302,0,0,3.30579,2
1774391555517,0.0787432,0.984402,0.0351577,-250.127,-20.4129,42.5597,0,0,3.28042,2
1774391555530,-0.0648667,1.13165,-0.0363327,-250.135,-16.0472,44.8202,0,0,3.28763,2
1774391555544,-0.180734,1.2703,-0.133233,-250.137,-5.97551,51.9062,0,0,3.34576,2
1774391555557,-0.184436,1.30727,-0.165453,-250.137,5.02214,61.6711,0,0,3.30535,5
1774391555570,-0.110364,1.34952,-0.157465,-250.137,12.6833,67.4631,0,0,3.29092,5
1774391555584,0.000453538,1.41911,-0.151035,-250.137,15.7296,68.2091,0,0,3.26775,5
1774391555597,0.109321,1.43883,-0.200606,-250.137,14.8161,64.2658,0,0,3.29638,5
1774391555611,0.179778,1.52293,-0.232476,-250.137,11.4967,58.7705,0,0,3.27242,5
1774391555624,0.18972,1.65967,-0.257279,-250.137,7.18647,54.0922,0,0,3.27081,5
1774391555637,0.176835,1.75439,-0.272504,-250.137,3.97454,49.7081,0,0,3.28331,5
1774391555651,0.135493,1.84483,-0.28266,-250.137,2.21825,48.0926,0,0,3.32361,5
1774391555664,0.0852756,1.8771,-0.298964,-250.137,2.06706,48.9218,0,0,3.30448,5
1774391555678,0.0526963,1.80264,-0.319596,-245.391,3.85133,47.6199,0,0,3.26657,5
1774391555691,0.0666646,1.73068,-0.365874,-238.836,5.93846,42.0546,0,0,3.30757,5
1774391555704,0.206952,1.69442,-0.40544,-233.078,4.73996,33.7292,0,0,3.26898,5
1774391555718,0.378048,1.71527,-0.466441,-222.76,-4.42029,33.9166,0,0,3.29922,5
1774391555731,0.469468,1.76321,-0.553204,-205.825,-20.282,51.8009,0,0,3.27118,5
1774391555745,0.39513,1.72494,-0.681898,-180.759,-35.7755,74.7584,0,0,3.27981,5
1774391555758,0.115883,1.67055,-0.812356,-156.81,-41.7601,84.4395,0,0,3.30038,5
1774391555772,-0.198609,1.65651,-0.939534,-126.395,-33.9239,76.5849,0,0,3.28455,5
1774391555785,-0.365447,1.59537,-1.06869,-92.9816,-16.6353,51.4969,0,0,3.27316,5
1774391555798,-0.407113,1.43834,-1.173,-62.5572,2.419,26.8425,0,0,3.29377,5
1774391555812,-0.39826,1.36892,-1.20989,-36.9259,21.8415,13.9784,0,0,3.28559,5
1774391555825,-0.423232,1.51009,-1.19493,-4.56671,42.7374,10.848,0,0,3.30102,5
1774391555839,-0.592026,1.39118,-1.0928,28.4684,72.1831,3.96775,0,0,3.30076,5
1774391555852,-0.725543,1.25298,-0.924781,45.9821,110.646,-4.2939,0,0,3.38553,5
1774391555866,0.0867231,3.26385,-2.18587,64.7666,128.859,-48.889,0,0,3.3012,5
1774391555879,0.687195,0.203797,0.386195,214.058,105.598,-77.4625,0,0,3.27462,5
1774391555892,0.148567,0.336633,0.449489,243.11,100.831,-105.974,0,0,3.31087,5
1774391555906,-0.0261404,1.12215,0.147606,248.764,87.4106,-84.9069,0,0,3.28042,5
1774391555919,-0.175362,1.01986,0.187713,249.864,83.391,-46.8023,0,0,3.29631,5
1774391555933,-0.0462731,1.33382,-0.0385281,224.846,59.781,-17.4384,0,0,3.29465,5
1774391555946,0.047116,1.27853,-0.181004,209.747,16.8593,17.3071,0,0,3.29846,5
1774391555960,-0.0585072,0.567059,-0.230083,148.771,-1.49009,26.4294,0,0,3.31424,5
1774391555973,-0.053745,0.680249,-0.217855,92.2824,5.9073,20.8024,0,0,3.25705,5
1774391555986,0.0721012,0.900025,-0.123251,72.4794,18.3027,10.5774,0,0,3.32753,5
1774391556000,0.145319,0.853467,-0.0843185,56.5509,16.4235,4.40694,0,0,3.28635,5
1774391556013,0.142598,0.950549,-0.0765675,46.8359,11.1209,0.507152,0,0,3.28937,5
1774391556027,0.0746685,0.91115,-0.0718098,39.5289,12.0318,-3.6332,0,0,3.28051,5
1774391556040,0.060935,0.901308,-0.0848328,28.227,13.242,-7.66666,0,0,3.28688,5
1774391556054,0.0706594,0.987675,-0.0647309,23.304,11.4793,-6.76085,0,0,3.64711,5
1774391556067,0.0825586,1.00903,-0.0650637,21.6635,10.3678,-7.16864,0,0,3.26675,5
1774391556080,0.0735938,0.999202,-0.0971444,20.9877,9.88098,-6.54097,0,0,3.24659,5
1774391556094,0.0502811,0.961182,-0.0766085,16.7616,10.2412,-4.0887,0,0,3.26875,5
1774391556107,0.050826,0.997999,-0.102025,13.4922,6.45646,-3.56845,0,0,3.24948,5
1774391556121,0.0404273,1.00411,-0.0854226,12.0568,8.01933,-4.39557,0,0,3.27379,5
1774391556134,0.064092,0.979118,-0.0897314,10.5171,6.5897,-5.40497,0,0,3.24853,5
1774391556147,0.054884,0.97832,-0.0801626,8.12708,7.25215,-6.47442,0,0,3.2855,5
1774391556161,0.0325785,1.01349,-0.0640157,8.32599,8.29098,-7.85068,0,0,3.27637,5
1774391556174,0.0426868,1.00647,-0.080421,9.48365,8.77595,-9.5387,0,0,3.25052,5
1774391556187,0.0482549,0.968135,-0.091787,7.06525,7.72678,-8.66217,0,0,3.26846,5
1774391556201,0.0454575,1.02131,-0.0465772,6.39174,10.6028,-9.97328,0,0,3.24081,5
1774391556214,0.0212952,0.993556,-0.0666335,7.13985,9.34265,-11.3105,0,0,3.28192,5
1774391556227,0.038055,0.992733,-0.0609267,4.86309,9.31875,-13.0155,0,0,3.24611,5
1774391556241,0.0382564,1.01414,-0.0887082,6.01238,9.37558,-15.3762,0,0,3.26489,5
1774391556254,0.0302678,0.991993,-0.0789948,5.34456,8.93783,-16.143,0,0,3.26,5
1774391556268,0.0565443,1.00911,-0.0955155,5.82327,8.32391,-17.9891,0,0,3.27592,5
1774391556281,0.00871695,0.980638,-0.132291,5.14791,6.44609,-16.5408,0,0,3.26729,5
1774391556294,-0.00981749,0.994454,-0.117481,3.77457,4.29771,-12.9267,0,0,3.24579,5
1774391556308,-0.0346221,1.00906,-0.0856322,3.63643,3.35091,-7.29875,0,0,3.27289,5
1774391556321,-0.0223238,1.01136,-0.0919323,3.23452,3.1728,-4.35913,0,0,3.25813,5
1774391556335,-0.0156327,1.01484,-0.0837906,3.77726,3.08281,-2.74805,0,0,3.30203,5
1774391556348,0.00349634,1.0088,-0.0823239,4.95879,2.51812,-3.40593,0,0,3.25922,5
1774391556361,0.00719216,1.00736,-0.0905097,5.15183,2.13157,-3.89669,0,0,3.33048,5
1774391556375,0.0115782,1.00662,-0.0966349,6.00094,1.52146,-3.53723,0,0,3.26714,5
1774391556388,0.01043,1.00124,-0.0900549,5.68663,0.781776,-3.62713,0,0,3.25113,5
1774391556401,0.0195947,1.00659,-0.0929386,5.29962,0.176726,-3.64463,0,0,3.26951,5
1774391556415,0.0107908,1.01016,-0.0999666,5.51326,-0.568122,-3.1193,0,0,3.25061,5
1774391556428,-0.00961924,1.00076,-0.102029,4.89699,-0.731514,-3.35521,0,0,3.29702,5
1774391556442,-0.0050796,1.00288,-0.094181,4.50655,-0.66494,-3.4749,0,0,3.25438,5
1774391556455,0.0038219,1.03151,-0.0969038,5.943,-1.33442,-3.91011,0,0,3.28857,5
1774391556468,-0.00290784,1.01148,-0.0981695,7.26156,-1.48315,-4.00095,0,0,3.28359,5
1774391556482,-0.0095366,0.998072,-0.102262,6.82342,-1.3215,-3.55137,0,0,3.25081,5
1774391556495,-0.0172106,0.993586,-0.106039,6.1295,-1.58515,-3.01508,0,0,3.27413,5
1774391556509,-0.0201605,0.989881,-0.109196,5.56409,-2.13445,-2.02539,0,0,3.24837,5
1774391556522,-0.0173765,0.99568,-0.108612,4.50111,-2.53646,-1.38398,0,0,3.26826,5
1774391556535,-0.00662196,1.00742,-0.101843,4.76766,-2.60239,-0.95791,0,0,3.2462,5
1774391556549,-0.0067786,1.00771,-0.0989568,5.4036,-2.66441,-1.20699,0,0,3.2614,5
1774391556562,-0.00360355,1.01118,-0.0944303,6.38808,-2.46744,-2.25145,0,0,3.5755,5
1774391556576,-0.0161571,0.996383,-0.110017,6.99159,-2.66888,-2.27026,0,0,3.2465,5
1774391556589,-0.0112995,0.984018,-0.115266,6.14993,-2.52364,-2.00956,0,0,3.2822,5
1774391556602,-0.0237596,0.990177,-0.11989,5.26066,-2.44619,-1.33787,0,0,3.24385,5
1774391556616,-0.0267408,0.983428,-0.115409,3.8334,-2.66475,-0.401755,0,0,3.28229,5
1774391556629,0.00248588,1.01772,-0.106345,2.98389,-2.76876,-0.182699,0,0,3.2415,5
1774391556643,-0.0220318,1.00725,-0.108563,4.71833,-3.4407,-0.75488,0,0,3.25524,5
1774391556656,-0.059163,0.966734,-0.129174,3.02084,-3.09191,1.00279,0,0,3.25692,5
1774391556669,-0.0260399,0.977503,-0.123616,0.821483,-2.72893,1.82439,0,0,3.27596,5
1774391556683,-0.0429008,0.99701,-0.121055,1.05133,-2.65829,3.08478,0,0,3.26451,5
1774391556696,-0.024542,1.02565,-0.102675,0.942361,-2.48469,1.75614,0,0,3.24524,5
1774391556709,-0.0240909,1.06281,-0.106865,5.18178,-2.44476,0.704483,0,0,3.26955,5
1774391556723,-0.0152126,1.04596,-0.10906,7.32246,-1.79759,-0.274829,0,0,3.24261,5
1774391556736,-0.0131911,1.04181,-0.111435,10.5303,-1.72698,-0.576069,0,0,3.30346,5
1774391556750,-0.00710901,0.989755,-0.12494,10.9516,-1.80546,-0.296546,0,0,3.25398,5
1774391556764,-0.00887506,0.953646,-0.135886,7.8858,-2.52777,0.759988,0,0,3.77244,5
1774391556777,-0.0586759,0.925741,-0.146683,3.4036,-1.95515,3.95971,0,0,3.2647,5
1774391556790,-0.0443179,0.910579,-0.151721,-1.90141,-1.5732,6.2608,0,0,3.24766,5
1774391556804,-0.0177728,0.946014,-0.13913,-5.12864,-1.21606,6.3889,0,0,3.28335,5
1774391556817,-0.00797923,0.945322,-0.131646,-7.07849,-1.3433,4.38496,0,0,3.25118,5
1774391556830,0.0103726,0.984813,-0.125887,-7.83912,-1.1037,2.77767,0,0,3.28455,5
1774391556844,0.00438784,0.992177,-0.123987,-7.17559,-0.841885,0.74957,0,0,3.25522,5
1774391556857,0.00260551,1.00487,-0.119188,-7.02187,-0.446643,-0.272203,0,0,3.27911,5
1774391556871,-0.00984653,1.01971,-0.121119,-6.3956,-0.228323,-0.643187,0,0,3.27431,5
1774391556884,-0.0289107,1.00832,-0.120743,-6.54424,-0.222726,-0.340348,0,0,3.24318,5
1774391556897,-0.0243679,1.02046,-0.115102,-5.74932,-0.0986754,0.493244,0,0,3.27587,5
1774391556911,-0.0324442,1.00477,-0.109658,-5.76677,-0.215941,1.76827,0,0,3.25301,5
1774391556924,-0.0253147,1.01343,-0.114455,-5.72714,-0.201873,2.56357,0,0,3.2867,5
1774391556937,-0.0169703,1.00664,-0.112702,-5.6149,-0.242171,2.88433,0,0,3.24988,5
1774391556951,-0.00722802,1.00911,-0.108301,-5.08277,-0.42216,2.54098,0,0,3.26159,5
1774391556964,-0.00479632,1.00262,-0.109266,-5.3727,-0.395705,2.06224,0,0,3.26301,5
1774391556977,0.00568504,1.01983,-0.103448,-4.61142,-0.439742,0.997677,0,0,3.27581,5
1774391556991,-0.0061618,1.01067,-0.109038,-3.79928,-0.349942,0.292518,0,0,3.27213,5
1774391557004,-0.0230979,1.00125,-0.115361,-3.48754,-0.0496546,0.530327,0,0,3.24659,5
1774391557018,-0.0238827,1.00766,-0.112051,-3.34695,0.211668,1.01927,0,0,3.29433,5
1774391557031,-0.0171227,1.00295,-0.108305,-3.55321,0.477705,1.3296,0,0,3.2524,5
1774391557044,-0.0122731,0.991675,-0.110161,-3.79009,0.492587,1.78961,0,0,3.26281,5
1774391557058,-0.0241992,0.989548,-0.105832,-4.89366,0.741407,2.98579,0,0,3.26518,5
1774391557072,-0.0172076,0.999165,-0.100383,-5.30516,0.666866,3.55056,0,0,3.6772,5
1774391557085,-0.0176576,0.987087,-0.104464,-6.55952,0.775322,4.08469,0,0,3.26029,5
1774391557098,0.00438356,1.00351,-0.102697,-6.98191,0.685762,4.16403,0,0,3.24983,5
1774391557112,-0.00204245,1.00791,-0.0920368,-6.72596,0.373225,3.82903,0,0,3.27776,5
1774391557125,-0.00483663,0.994971,-0.0932909,-7.45696,0.324701,4.17576,0,0,3.25009,5
1774391557138,-0.00326193,0.995793,-0.0934483,-8.26321,0.198445,4.24324,0,0,3.302,5
1774391557152,-0.00337616,0.988864,-0.0877713,-9.15788,0.100098,4.17644,0,0,3.25461,5
1774391557165,0.00338472,0.997374,-0.0862501,-9.54101,-0.275629,3.75152,0,0,3.27003,5
1774391557178,0.00716225,1.0018,-0.0865574,-9.75083,-0.557781,3.4721,0,0,3.27131,5
1774391557192,0.00692337,1.00978,-0.083244,-9.5027,-0.790982,3.28246,0,0,3.23953,5
1774391557205,-0.0020768,1.00566,-0.0812839,-9.08553,-0.922436,3.20252,0,0,3.26746,5
1774391557219,-0.0030586,1.01278,-0.079865,-8.76457,-1.12016,3.22385,0,0,3.24837,5
1774391557232,7.40662e-05,1.01075,-0.0821657,-7.89671,-1.48449,3.63993,0,0,3.28326,5
1774391557245,0.0114581,1.01718,-0.068663,-7.27902,-1.73983,3.51801,0,0,3.2549,5
1774391557259,0.00467871,1.00871,-0.0771982,-6.45178,-2.11537,3.35288,0,0,3.28559,5
1774391557272,0.0110834,1.01091,-0.0612554,-6.08792,-2.10238,3.38222,0,0,3.30022,5
1774391557286,0.00708044,1.01275,-0.065741,-5.00267,-1.99533,2.71779,0,0,3.25164,5
1774391557299,0.00850996,1.01575,-0.0733769,-4.12749,-2.05442,2.14583,0,0,3.27307,5
1774391557312,0.0065696,1.01727,-0.065057,-3.26245,-1.82,1.51809,0,0,3.24585,5
1774391557326,0.00998159,1.00874,-0.0651511,-2.65759,-1.96497,0.934822,0,0,3.28779,5
1774391557339,0.0162575,1.00717,-0.0633891,-2.58907,-1.96244,0.286434,0,0,3.2507,5
1774391557352,0.0123987,1.01908,-0.0559467,-1.74575,-1.97425,-0.147147,0,0,3.26318,3
1774391557366,-0.00472032,1.00708,-0.0587781,-1.32957,-2.1118,-0.415964,0,0,3.26711,3
1774391557379,0.00266711,1.01262,-0.0582857,-1.3408,-2.01561,-0.289982,0,0,3.27257,3
1774391557393,-0.000178967,1.00428,-0.0661963,-0.586769,-1.56038,-0.800349,0,0,3.26227,3
1774391557406,0.00888821,1.01509,-0.0659926,-0.218703,-1.73615,-1.287,0,0,3.25,3
1774391557419,-0.00494607,1.01173,-0.0589677,0.953431,-1.88103,-1.48007,0,0,3.27896,3
1774391557433,-0.00257636,1.01512,-0.0563706,1.48278,-1.51574,-1.76356,0,0,3.25225,3
1774391557446,-0.0073031,1.01495,-0.0587129,3.14741,-1.21103,-2.52576,0,0,3.28126,3
1774391557459,0.00715803,1.01938,-0.0580895,3.92016,-0.844328,-3.71926,0,0,3.2667,3
1774391557473,0.00531373,0.999294,-0.0634629,4.29802,-0.785263,-4.04374,0,0,3.2827,3
1774391557486,-0.00644002,0.997487,-0.0772346,3.67066,-0.51555,-4.78932,0,0,3.27314,3
1774391557500,-0.0199554,0.996467,-0.0762779,3.53014,-0.444619,-4.84219,0,0,3.24192,3
1774391557513,-0.00838532,0.992262,-0.0762003,2.70969,-0.572222,-4.81559,0,0,3.27687,3
1774391557526,-0.0102894,1.00132,-0.0715327,2.1627,-0.474092,-4.87804,0,0,3.25124,3
1774391557540,-0.0143741,1.0075,-0.0717118,2.04396,-0.424255,-4.25694,0,0,3.29481,3
1774391557553,-0.0238685,1.00612,-0.075513,1.90404,-0.709665,-4.12378,0,0,3.25474,5
1774391557566,-0.0187275,1.00647,-0.0776038,2.44243,-0.556171,-4.02409,0,0,3.26287,5
1774391557580,-0.0143116,1.00799,-0.0779854,2.29513,-0.655411,-3.51899,0,0,3.27168,5
1774391557593,-0.0200986,1.00714,-0.0809472,2.53698,-0.45954,-2.87352,0,0,3.23942,5
1774391557607,-0.0102109,0.998697,-0.0762003,1.7848,-0.33535,-2.9385,0,0,3.27702,5
1774391557620,-0.013102,1.01127,-0.069388,1.66916,-0.305035,-2.58226,0,0,3.26429,5
1774391557633,-0.0219192,1.00356,-0.0689924,1.86184,-0.47743,-2.19938,0,0,3.29296,5
1774391557647,-0.0274987,1.00685,-0.0721035,1.51816,-0.172833,-1.68836,0,0,3.25411,5
1774391557660,-0.0155895,1.01167,-0.0802647,1.88779,-0.07667,-1.60121,0,0,3.28385,5
1774391557673,-0.0199049,0.998121,-0.0826303,1.49861,-0.100993,-1.32603,0,0,3.2647,5
1774391557687,-0.0240994,0.99896,-0.0843364,1.3614,-0.161059,-0.829818,0,0,3.27201,5
1774391557700,-0.017717,0.993824,-0.0805042,0.732183,-0.0989712,-0.65333,0,0,3.28031,5
1774391557714,-0.0202962,0.997094,-0.0825157,0.0195215,-0.000815582,-0.0841018,0,0,3.24787,5
1774391557727,-0.0195575,1.00851,-0.0818036,0.298907,0.0182856,-0.0532548,0,0,3.28314,5
1774391557740,-0.0147128,1.0055,-0.0834,0.420905,-0.16244,0.327781,0,0,3.25376,5
1774391557754,-0.0212784,1.00255,-0.0815044,0.512274,0.0237219,0.371191,0,0,3.26377,5
1774391557767,-0.0221441,0.997465,-0.0761709,0.111985,-0.0753088,0.527192,0,0,3.26914,5
1774391557781,-0.0336356,0.996104,-0.0747418,-0.39013,-0.0269513,1.30147,0,0,3.29822,5
1774391557794,-0.0204509,1.00557,-0.073644,-0.36488,-0.00524474,1.13244,0,0,3.2665,5
1774391557807,-0.0187053,1.009,-0.0826435,0.537655,0.34942,0.829035,0,0,3.24953,5
1774391557821,-0.0146631,1.01242,-0.0825527,1.34039,0.590585,0.659326,0,0,3.25627,5
1774391557834,-0.020729,1.00958,-0.0832433,2.51104,0.828106,0.989037,0,0,3.26918,5
1774391557847,-0.0241415,1.00042,-0.0862879,2.16093,0.935809,1.18231,0,0,3.27311,5
1774391557861,-0.0291666,1.0103,-0.0822782,2.47398,1.12277,1.57651,0,0,3.27583,5
1774391557874,-0.0260449,1.0049,-0.0819187,2.5472,0.882484,2.15736,0,0,3.28879,5
1774391557888,-0.0234213,1.01686,-0.0832522,3.24388,0.835725,2.80528,0,0,3.28722,5
1774391557901,-0.0184289,1.01721,-0.0759244,4.22174,0.752849,3.56462,0,0,3.25481,5
1774391557914,-0.0161976,1.01212,-0.0834332,5.26662,0.509242,4.32105,0,0,3.25625,5
1774391557928,-0.0168508,1.01075,-0.0804409,5.99254,0.812277,4.33299,0,0,3.273,5
1774391557941,-0.012379,1.0052,-0.0869668,6.66869,1.05569,4.17547,0,0,3.28489,5
1774391557954,-0.0147552,1.0064,-0.0913963,6.76953,1.74246,3.90504,0,0,3.26479,5
1774391557968,-0.0118175,1.02924,-0.0861491,8.81802,2.25114,3.92619,0,0,3.27063,5
1774391557981,-0.0133537,1.01409,-0.0847431,10.4586,3.0879,3.97334,0,0,3.54574,5
1774391557995,-0.0109058,1.02665,-0.0954473,12.7514,3.70569,4.57888,0,0,3.24179,5
1774391558008,-0.0132881,0.997312,-0.0993878,13.0807,4.26243,4.13724,0,0,3.2772,5
1774391558022,-0.00552651,0.998207,-0.102231,11.9644,4.89336,3.70086,0,0,3.2532,5
1774391558035,-0.0241787,0.995588,-0.115503,11.7963,5.68628,3.7389,0,0,3.29075,5
1774391558048,-0.0188106,0.982018,-0.119417,10.1159,6.46154,3.36512,0,0,3.25659,5
1774391558062,-0.005219,0.980526,-0.11707,7.54488,6.82759,2.32713,0,0,3.28342,5
1774391558075,-0.00801119,0.987812,-0.126271,5.69812,7.31074,1.4427,0,0,3.26966,5
1774391558089,0.00500234,0.996555,-0.113902,4.15831,7.54617,1.12304,0,0,3.27509,5
1774391558102,-0.021,1.01141,-0.116128,4.46117,8.9999,2.38882,0,0,3.27968,5
1774391558115,0.00527518,1.0136,-0.110648,5.5038,11.0411,2.44455,0,0,3.25307,5
1774391558129,-0.0359397,1.00633,-0.107572,6.09403,14.3772,3.18702,0,0,3.29244,5
1774391558142,-0.0419789,0.979176,-0.119258,5.21905,17.461,3.10402,0,0,3.25888,5
1774391558155,-0.056644,1.00961,-0.0928997,5.25781,21.2581,3.53668,0,0,3.268,5
1774391558169,-0.0589649,0.999358,-0.117471,6.10764,26.2638,3.01837,0,0,3.26879,5
1774391558183,-0.0974762,0.987854,-0.107255,4.09045,33.386,2.9175,0,0,3.69379,5
1774391558196,-0.167489,0.950635,-0.113454,0.863632,44.9963,2.17855,0,0,3.26314,5
1774391558209,-0.312606,0.912602,-0.102604,-6.80387,68.7616,0.632981,0,0,3.25246,5
1774391558223,-0.409039,0.954241,-0.0837905,-11.9602,102.866,0.0739937,0,0,3.27689,5
1774391558236,-0.388589,0.963433,-0.0524771,-15.6073,136.666,-0.4713,0,0,3.25405,5
1774391558249,-0.29339,1.02184,-0.0474825,-16.354,164.829,-0.58971,0,0,3.26996,5
1774391558263,-0.249652,1.04052,-0.0200505,-12.3001,183.356,1.12716,0,0,3.26624,5
1774391558276,-0.113541,1.0559,-0.0137725,-9.39013,192.9,1.98385,0,0,3.29159,5
1774391558290,-0.0529423,1.05054,-0.00422651,-7.01016,202.153,2.15056,0,0,3.27277,5
1774391558303,-0.19702,1.01622,0.0628505,-6.41791,217.732,2.75477,0,0,3.24413,5
1774391558316,-0.26297,1.00596,0.133011,-5.63866,239.362,0.683634,0,0,3.2715,5
1774391558330,-0.310667,0.984617,0.169147,-6.84575,248.034,1.35651,0,0,3.25318,5
1774391558343,-0.283592,1.02036,0.229408,-6.18918,249.722,0.0487935,0,0,3.26855,5
1774391558357,-0.152661,1.02869,0.234474,-5.84007,250.05,-1.01109,0,0,3.2672,5
1774391558370,-0.0466244,1.06345,0.24155,-3.37439,250.114,-3.78724,0,0,3.26846,5
1774391558383,0.0520262,1.05543,0.281157,2.2145,250.127,-5.46488,0,0,3.2717,5
1774391558397,0.060051,1.06346,0.353072,5.42934,250.129,-10.5192,0,0,3.26916,5
1774391558410,0.0425417,1.15426,0.393967,10.3094,250.13,-17.2943,0,0,3.27425,5
1774391558423,0.0535777,1.22935,0.452644,18.5815,250.13,-30.8167,0,0,3.25988,5
1774391558437,0.0917433,1.02214,0.492315,24.4457,250.13,-35.1266,0,0,3.27677,5
1774391558450,0.249595,0.872425,0.581583,13.6473,250.13,-27.3641,0,0,3.27561,5
1774391558464,0.302079,0.957953,0.646609,9.69533,250.13,-13.625,0,0,3.26653,5
1774391558477,0.283435,0.973363,0.621318,6.756,240.606,-6.32184,0,0,3.2749,5
1774391558490,0.197299,0.937995,0.513026,0.4171,234.683,1.7024,0,0,3.27294,5
1774391558504,0.178687,1.0236,0.354078,1.04642,232.362,0.829284,0,0,3.27507,5
1774391558517,0.0500238,0.963072,0.306483,-1.68998,235.655,-0.551799,0,0,3.24594,5
1774391558530,0.0911485,1.51609,0.201688,9.03467,238.792,1.2329,0,0,3.29655,5
1774391558544,-0.0145385,0.77923,0.146621,4.88138,242.919,-6.23401,0,0,3.25707,5
1774391558557,-0.0292743,1.08722,0.335253,9.86465,243.052,-9.82661,0,0,3.2694,5
1774391558570,-0.0873759,0.964392,0.327354,5.86674,246.164,-18.3584,0,0,3.27251,5
1774391558584,-0.20428,0.911999,0.361876,1.01256,249.358,-16.004,0,0,3.26387,5
1774391558597,-0.222915,0.945322,0.307858,-3.21514,249.98,-11.9,0,0,3.27768,5
1774391558611,-0.179653,1.00894,0.403656,-5.41503,250.101,-11.4948,0,0,3.27192,5
1774391558624,-0.106402,0.97523,0.460602,-6.78993,250.124,-9.6392,0,0,3.28181,5
1774391558637,-0.0406635,0.993184,0.512677,-10.2115,250.129,-4.67317,0,0,3.25827,5
1774391558651,-0.0243,1.00568,0.551116,-12.1008,250.13,1.47606,0,0,3.31331,5
1774391558664,-0.025992,0.970782,0.585365,-14.03,250.13,4.68312,0,0,3.26255,5
1774391558678,0.00036312,0.980196,0.615095,-15.0326,250.13,0.105939,0,0,3.28944,2
1774391558691,0.121808,1.06029,0.482584,-18.7259,250.13,-8.33464,0,0,3.61329,2
1774391558705,0.230306,1.03957,0.585231,-14.4524,250.13,-12.9529,0,0,3.2412,2
1774391558718,0.294408,1.08209,0.51694,-12.9445,250.13,-18.7085,0,0,3.27629,2
1774391558731,0.293354,1.00305,0.452531,-12.8048,250.13,-24.0155,0,0,3.25924,2
1774391558745,0.338289,1.02709,0.416685,-13.2202,250.13,-26.0196,0,0,3.30281,2
1774391558758,0.400908,1.04408,0.335055,-14.709,250.13,-21.4911,0,0,3.25796,2
1774391558772,0.598555,1.42448,0.120161,0.629737,250.13,7.91111,0,0,3.27109,2
1774391558785,0.679752,1.03814,-0.0628839,17.1282,250.13,-13.7815,0,0,3.27253,2
1774391558798,0.771569,1.01576,-0.0826199,11.59,250.13,-10.3424,0,0,3.26668,2
1774391558812,0.928605,1.02495,-0.173517,8.50188,250.13,-4.92683,0,0,3.27818,3
1774391558825,1.06308,0.858525,-0.459166,5.71836,249.804,-2.15149,0,0,3.25368,3
1774391558838,1.32252,0.888637,-0.593254,6.05586,217.322,-4.94982,0,0,3.27218,3
1774391558852,1.63385,0.783037,-0.681728,-10.5521,166.458,8.51711,0,0,3.26972,3
1774391558865,1.79215,0.950086,-0.789613,-3.68268,108.02,13.179,0,0,3.28059,3
1774391558879,2.24117,0.715145,-0.503253,-13.2956,37.8727,12.8504,0,0,3.27157,3
1774391558892,-0.143685,0.730831,-0.305527,-38.0741,10.7515,-19.8661,0,0,3.25957,3
1774391558905,0.497134,1.31535,-0.0738231,-39.865,7.20746,-31.852,0,0,3.27833,3
1774391558919,-0.0571338,1.09504,-0.0087,-30.1122,10.8583,-18.0458,0,0,3.24748,3
1774391558932,-0.106279,1.12162,-0.0266375,-24.1012,3.90213,-12.2604,0,0,3.29242,3
1774391558945,0.0144162,1.28012,-0.0153588,-5.6738,-1.4847,-6.75103,0,0,3.24905,3
1774391558959,0.0337096,1.05397,-0.0652388,2.47406,-0.202849,-1.01865,0,0,3.27309,3
1774391558972,-0.0233165,1.04181,-0.0698466,1.17619,0.679852,4.24069,0,0,3.26868,3
1774391558986,-0.0101795,1.03515,-0.086094,4.45877,-0.488657,8.94686,0,0,3.26303,3
1774391558999,0.00835325,0.978678,-0.0809752,0.658644,-2.27152,12.0883,0,0,3.69766,3
1774391559013,0.0265446,1.07185,-0.0869313,3.2514,-3.44845,12.0725,0,0,3.24524,3
1774391559026,0.0641254,0.975108,-0.0897782,5.71104,-3.21023,9.58562,0,0,3.27805,3
1774391559039,0.0704419,0.90933,-0.0991198,-4.09606,-2.01418,6.12599,0,0,3.25324,5
1774391559053,0.0728493,1.00126,-0.0885761,-5.47579,-1.68306,3.23329,0,0,3.27983,5
1774391559066,0.0597327,0.997479,-0.101121,-6.52509,-1.29277,1.87726,0,0,3.27242,5
1774391559079,0.0474606,1.03829,-0.0889336,-4.30694,-1.72712,1.7179,0,0,3.29551,5
1774391559093,0.0279085,1.01866,-0.101038,-2.24605,-0.766464,2.28325,0,0,3.26672,5
1774391559106,0.0298185,1.02287,-0.0906986,-1.70974,-0.186043,3.32777,0,0,3.26664,5
1774391559120,0.0339047,1.01918,-0.087392,-0.947524,0.633938,4.55777,0,0,3.26953,5
1774391559133,0.0380379,1.01264,-0.0836464,-1.24801,-0.233225,5.54719,0,0,3.24666,5
1774391559146,0.0448646,1.00518,-0.0897917,-1.58929,-0.617158,5.63522,0,0,3.31351,5
1774391559160,0.0545576,0.981191,-0.0857192,-3.03288,-0.495133,5.40028,0,0,3.26424,5
1774391559173,0.0553676,0.989598,-0.0901684,-5.18282,-0.366869,4.80738,0,0,3.26483,5
1774391559186,0.0382485,0.993638,-0.0879648,-6.03157,-0.009912,5.10392,0,0,3.26311,5
1774391559200,0.0518912,1.00991,-0.0827275,-5.56348,-0.376962,5.27229,0,0,3.44505,5
1774391559213,0.0441084,1.00158,-0.0818604,-5.07277,-0.0610609,5.18825,0,0,3.26729,5
1774391559227,0.054355,1.00525,-0.0850238,-4.41165,0.375447,4.60012,0,0,3.24974,5
1774391559240,0.0579941,1.00623,-0.069965,-4.09855,0.140691,3.75405,0,0,3.28653,5
1774391559253,0.0713012,1.01257,-0.0673598,-3.6134,-0.593578,2.87007,0,0,3.2545,5
1774391559267,0.0675391,1.00337,-0.0611213,-3.71573,-1.30824,1.97873,0,0,3.28151,5
1774391559280,0.0659949,1.02306,-0.0717816,-2.29699,-0.568137,0.876908,0,0,3.2717,5
1774391559294,0.0652237,1.00779,-0.0739232,-1.53521,-0.749961,0.189091,0,0,3.24629,5
1774391559307,0.0709149,1.00709,-0.0691353,-1.25785,-1.31408,-0.541123,0,0,3.26985,5
1774391559320,0.0608229,1.0044,-0.0703545,-1.2961,-0.858233,-1.69766,0,0,3.24511,5
1774391559334,0.0633017,1.01065,-0.0567408,-0.713329,-0.812562,-2.83264,0,0,3.28107,5
1774391559347,0.056102,1.01805,-0.0645313,0.316144,-0.920488,-3.54535,0,0,3.25079,5
1774391559360,0.0479176,1.01931,-0.0635805,1.34032,-0.806232,-3.96071,0,0,3.26429,5
1774391559374,0.0425076,1.0075,-0.0674363,2.27125,-0.691777,-4.28746,0,0,3.26705,5
1774391559387,-0.0206016,1.00773,-0.0763333,1.97901,0.332635,-2.40825,0,0,3.26542,5
1774391559401,0.0302245,1.01029,-0.0712109,1.25814,-0.771409,0.293716,0,0,3.27194,5
1774391559414,0.0386603,1.0301,-0.0646553,1.3392,-2.01299,2.62091,0,0,3.26822,5
1774391559427,0.0432441,1.00539,-0.0727286,2.02511,-1.44305,1.92409,0,0,3.30061,5
1774391559441,0.0653829,1.01413,-0.0684578,2.17088,-1.26451,0.921609,0,0,3.25412,5
1774391559454,0.0622001,1.00111,-0.0683857,2.54355,-0.922364,-0.933458,0,0,3.27353,5
1774391559467,0.060275,1.02996,-0.053175,3.85183,0.121764,-3.29873,0,0,3.26672,5
1774391559481,0.0513591,1.02286,-0.0482056,5.95085,0.6508,-5.43744,0,0,3.301,5
1774391559494,0.0527233,1.02775,-0.0525932,7.42909,1.76819,-7.96858,0,0,3.2739,5
1774391559508,0.040757,1.01262,-0.0639561,9.05704,3.20295,-10.0658,0,0,3.26848,5
1774391559521,0.0568527,0.97693,-0.102388,8.38399,3.03949,-9.76073,0,0,3.27446,5
1774391559535,0.0327485,0.958431,-0.113401,5.04987,1.36615,-5.47148,0,0,3.25913,5
1774391559548,0.0382643,0.987968,-0.10956,2.68573,0.327334,-3.48095,0,0,3.29692,5
1774391559561,0.029555,0.963534,-0.109246,-0.153646,-1.2274,-0.720432,0,0,3.2575,5
1774391559575,0.0295448,0.986118,-0.100047,-2.69202,-2.86409,0.437724,0,0,3.27389,5
1774391559588,0.0291846,1.00718,-0.091684,-2.04859,-3.67443,1.21643,0,0,3.26896,5
1774391559601,0.0306966,1.01265,-0.0885496,-1.92338,-3.2665,1.63848,0,0,3.24453,5
1774391559615,0.0298506,1.02198,-0.0780587,-0.300514,-2.73216,1.81283,0,0,3.28464,5
1774391559628,0.0326623,1.00893,-0.0840051,-0.384329,-2.2347,1.80988,0,0,3.25052,5
1774391559642,0.0380625,1.00936,-0.0804155,0.0235788,-2.2793,1.4773,0,0,3.28927,5
1774391559655,0.0379009,0.997504,-0.0833855,-0.493407,-2.44168,1.59088,0,0,3.25392,5
1774391559669,0.0407172,1.00255,-0.0847175,-0.901417,-2.55321,1.58839,0,0,3.32033,5
1774391559682,0.0359314,1.00158,-0.0813213,-1.20215,-2.66713,1.88916,0,0,3.27546,5
1774391559696,0.0364363,1.00954,-0.0804112,-0.996301,-2.54175,1.62184,0,0,3.27357,5
1774391559709,0.0365716,1.00613,-0.0812397,-0.439804,-2.28372,1.07797,0,0,3.27605,5
1774391559723,0.0378589,1.00647,-0.0769936,-0.36225,-1.79699,0.664733,0,0,3.25953,5
1774391559736,0.0353442,1.00406,-0.0840772,-0.107383,-1.64694,0.559723,0,0,3.27127,3
1774391559749,0.0352066,1.00663,-0.0845454,-0.420522,-1.80833,0.324106,0,0,3.2597,3
1774391559763,0.0376719,1.00821,-0.085207,-0.536792,-1.76596,0.604103,0,0,3.28257,3
1774391559778,0.0369026,1.00399,-0.0816311,-0.399568,-1.72083,0.959847,0,0,4.9583,3
1774391559792,0.0415221,1.00893,-0.07549,-0.108497,-1.61368,0.94915,0,0,3.88144,3
1774391559807,0.0388279,1.00186,-0.0820658,0.151033,-1.40838,0.590479,0,0,5.09626,3
1774391559821,0.0415018,1.00765,-0.0809682,-0.0259417,-1.34384,0.360831,0,0,3.78181,3
1774391559834,0.0364991,0.999011,-0.0883592,-0.275564,-1.42965,0.340734,0,0,3.27635,3
1774391559848,0.0387331,1.00331,-0.0880162,-0.379474,-1.22502,0.367563,0,0,3.25335,3
1774391559863,0.0393317,1.00232,-0.0827413,-0.110734,-1.26512,0.397377,0,0,4.77904,3
1774391559876,0.0369899,1.00813,-0.0822215,-0.199843,-1.29137,0.464659,0,0,3.24883,3
1774391559891,0.0358263,1.00039,-0.0838695,-0.493848,-1.38255,0.920415,0,0,4.78419,3
1774391559904,0.0351571,0.999032,-0.0857408,-0.784689,-1.73229,1.47636,0,0,3.24838,3
1774391559919,0.0326543,1.00171,-0.079272,-0.92736,-1.81265,1.7321,0,0,4.29783,3
1774391559932,0.0323412,1.00725,-0.0816494,-1.31786,-1.89591,2.20609,0,0,3.27388,3
1774391559946,0.0406573,1.00945,-0.0806779,-0.852821,-1.87523,2.27988,0,0,3.30194,3
1774391559959,0.043243,1.00789,-0.0811324,-1.03284,-1.7298,2.80453,0,0,3.26844,3
1774391559972,0.0383954,1.00676,-0.0764287,-1.35068,-1.57238,3.50914,0,0,3.25038,1
1774391559986,0.0370965,1.01629,-0.0705215,-1.32031,-1.74464,4.59921,0,0,3.28677,1
1774391559999,0.0412166,1.00329,-0.0775174,-2.17514,-1.9626,5.78274,0,0,3.25479,1
1774391560013,0.0344567,1.03234,-0.0751026,-1.91727,-3.26538,6.41268,0,0,3.30909,1
1774391560026,0.033539,1.04584,-0.0605152,0.407706,-3.45742,6.44304,0,0,3.2539,1
1774391560039,0.0499144,1.09861,-0.0233639,4.72729,-3.22427,5.53904,0,0,3.26825,1
1774391560053,0.0746766,1.16743,0.0146503,14.3289,-3.25268,3.10062,0,0,3.26729,1
1774391560066,0.155482,1.31366,0.0455681,28.8256,-5.28708,1.34115,0,0,3.25218,1
1774391560079,0.210019,1.84344,0.277793,58.5322,-19.0797,12.2313,0,0,3.27107,1
1774391560093,0.341695,1.86261,0.689064,94.0514,-38.4496,29.5117,0,0,3.29813,3
1774391560106,0.061889,1.07332,0.969051,109.891,-38.2842,0.861416,0,0,3.28874,3
1774391560120,-0.215936,0.523868,1.18187,65.7063,-9.94625,-34.4768,0,0,3.26981,3
1774391560133,-0.298958,0.29997,1.31521,28.5502,21.8821,-43.0444,0,0,3.30811,3
1774391560146,-0.138012,0.345602,1.40652,-16.4727,44.2762,-18.5515,0,0,3.28274,3
1774391560160,0.0600666,0.465599,1.39006,-40.3155,54.2842,11.1453,0,0,3.25785,3
1774391560173,0.188384,0.556731,1.28717,-63.1106,56.699,20.4225,0,0,3.27881,3
1774391560186,0.256724,0.674265,1.14522,-81.8285,53.6891,21.195,0,0,3.25814,3
1774391560200,0.317214,0.808166,0.965635,-95.5662,46.0945,20.0174,0,0,3.286,3
1774391560214,0.33664,0.96379,0.782937,-104.394,35.8802,20.5321,0,0,3.67189,3
1774391560227,0.297164,1.04284,0.624425,-111.676,26.9882,20.5278,0,0,3.26842,3
1774391560240,0.251735,1.11496,0.493842,-117.464,20.7082,16.5491,0,0,3.26316,3
1774391560254,0.237239,1.1207,0.373244,-123.072,15.4468,12.0061,0,0,3.27068,3
1774391560267,0.252657,1.11509,0.288385,-132.378,9.69508,9.03166,0,0,3.27427,3
1774391560280,0.280559,1.23065,0.208455,-135.596,2.22481,8.42824,0,0,3.26666,3
1774391560294,0.309124,1.2727,0.131992,-133.081,-6.54513,9.64495,0,0,3.27333,3
1774391560307,0.290149,1.27306,0.0839798,-128.921,-15.2913,12.052,0,0,3.26431,3
1774391560321,0.26469,1.22061,0.0426981,-125.345,-22.8463,12.834,0,0,3.35631,3
1774391560334,0.205145,1.19995,-0.00482291,-124.139,-28.4542,13.5641,0,0,3.29563,3
1774391560347,0.140577,1.17779,-0.0413263,-121.389,-32.0846,13.866,0,0,3.29926,3
1774391560361,0.0700164,1.14379,-0.0852435,-119.526,-33.0309,12.9902,0,0,3.25979,3
1774391560374,0.0357395,1.15184,-0.104696,-116.201,-32.1022,10.3852,0,0,3.25244,5
1774391560388,0.0306657,1.12558,-0.134394,-110.383,-30.7042,7.15461,0,0,3.26987,3
1774391560401,0.0444977,1.14553,-0.158436,-104.271,-28.6369,5.32707,0,0,3.27379,3
1774391560415,0.0380167,1.1112,-0.197049,-98.421,-26.0213,5.55549,0,0,4.10226,3
1774391560429,0.0214461,1.06375,-0.23885,-93.4155,-21.4054,7.38904,0,0,3.23794,3
1774391560444,0.0191507,1.0505,-0.278289,-88.8387,-16.1789,7.75815,0,0,4.81117,3
1774391560457,0.0142463,1.10754,-0.309588,-79.1378,-10.2556,9.14566,0,0,3.25355,3
1774391560471,-0.0317487,1.05259,-0.346928,-71.2864,-2.98559,10.8789,0,0,3.85426,3
1774391560485,-0.0583708,1.04841,-0.370874,-64.4465,4.85391,6.02723,0,0,3.28059,3
1774391560498,-0.0304745,1.07981,-0.376933,-54.8709,11.8205,-0.191974,0,0,3.2485,3
1774391560512,-0.0149571,1.08573,-0.398216,-42.2299,16.693,-1.21779,0,0,3.27464,3
1774391560525,-0.0640588,1.10411,-0.429476,-30.2097,20.6291,-1.05468,0,0,3.27031,3
1774391560540,-0.0968751,1.17731,-0.468771,-7.79087,26.5595,-1.1336,0,0,3.28409,3
1774391560553,-0.180732,1.13008,-0.528985,6.4887,36.6098,-1.88058,0,0,3.24685,3
1774391560568,-0.218393,1.2134,-0.575145,23.8077,49.3186,-3.50764,0,0,4.84297,3
1774391560582,-0.215437,1.2754,-0.601812,46.3109,62.0468,-2.77909,0,0,3.24913,3
1774391560595,-0.204279,1.22088,-0.591085,65.6852,72.8543,-2.26228,0,0,3.83516,3
1774391560609,0.054106,2.46181,1.81937,214.237,23,-29.5883,0,0,3.25622,3
1774391560622,0.492583,0.581358,1.61614,243.145,1.64769,-56.8854,0,0,3.26442,5
1774391560636,-0.14843,0.951629,0.599792,243.901,-5.55693,-68.0258,0,0,3.26261,5
1774391560649,-0.276044,1.04244,0.107097,241.786,12.4137,-23.8249,0,0,3.23492,5
1774391560662,0.0178981,1.03979,0.197947,221.252,3.96502,-17.8424,0,0,3.25763,5
1774391560676,0.192455,1.1851,0.103797,198.928,-17.0394,-11.2187,0,0,3.24351,5
1774391560689,0.0587172,1.09142,-0.0234812,178.476,-19.3009,8.31776,0,0,3.28229,5
1774391560702,0.00554599,0.786614,-0.118351,137.103,-6.54105,14.9969,0,0,3.28037,5
1774391560716,0.0408052,0.877411,-0.139304,105.769,4.99201,10.8248,0,0,3.25425,5
1774391560729,0.0355975,0.832752,-0.0868326,82.0391,9.9538,7.28321,0,0,3.2785,5
1774391560742,0.0694107,0.840267,-0.0840327,61.1656,10.3906,4.33766,0,0,3.24687,5
1774391560756,0.0770411,0.897506,-0.0579037,47.3589,9.28906,3.91201,0,0,3.3054,5
1774391560769,0.0957069,0.915524,-0.0646642,37.5464,6.81835,2.286,0,0,3.24161,5
1774391560782,0.0708616,0.957169,-0.0545012,30.6324,5.87644,0.795299,0,0,3.2895,5
1774391560796,0.0497277,0.95957,-0.0505269,25.5366,6.07432,0.634316,0,0,3.27414,5
1774391560809,0.040133,0.980946,-0.0403472,21.6553,6.46327,1.87564,0,0,3.25538,5
1774391560823,0.0502515,0.99132,-0.0428025,19.32,4.9835,3.77719,0,0,3.29972,5
1774391560836,0.0629712,0.99267,-0.0509667,16.8613,4.28976,2.9791,0,0,3.23753,5
1774391560849,0.0620901,1.00679,-0.0549416,15.3192,5.72252,0.229292,0,0,3.28259,5
1774391560863,0.10439,1.00629,-0.106228,15.431,5.84763,-4.81852,0,0,3.26207,5
1774391560876,0.0860563,0.970945,-0.113715,13.5776,7.8824,-10.3873,0,0,3.34109,5
1774391560890,0.0482587,0.976666,-0.0906995,11.1081,9.72932,-13.6044,0,0,3.26911,5
1774391560903,0.0631521,0.978914,-0.0729156,9.28113,10.058,-15.4785,0,0,3.30113,5
1774391560916,0.0548109,1.01133,-0.0540313,9.42359,11.1794,-16.5441,0,0,3.27744,5
1774391560930,0.0507887,1.00232,-0.0605883,9.10088,10.0758,-17.1695,0,0,3.26435,5
1774391560943,0.050962,1.00384,-0.0478686,7.45187,9.48602,-17.1867,0,0,3.27037,5
1774391560956,0.029919,1.02069,-0.0516093,6.66372,9.99835,-16.1264,0,0,3.26326,5
1774391560970,-0.000740661,1.00268,-0.0570797,7.21122,10.2518,-15.8156,0,0,3.3,5
1774391560983,-0.0307602,0.998753,-0.0540774,6.14963,10.3564,-11.685,0,0,3.26303,5
1774391560997,-0.00448897,1.05525,-0.0555964,7.52925,5.87636,-6.96491,0,0,3.28744,5
1774391561010,-0.0260454,1.06878,-0.102471,12.4641,5.37343,-2.81247,0,0,3.28216,5
1774391561024,-0.00662139,1.05954,-0.0876869,12.7973,4.74067,0.645421,0,0,3.55296,5
1774391561037,-0.0314423,1.12408,-0.073002,19.4837,3.18503,3.43327,0,0,3.26763,5
1774391561050,0.0237453,1.09294,-0.0451183,23.7913,2.69171,4.76274,0,0,3.26811,5
1774391561064,-0.0422502,1.15323,-0.0739277,30.9436,2.04853,4.46198,0,0,3.35116,5
1774391561077,0.0517684,1.29645,-0.0521578,43.3836,4.0875,7.86483,0,0,3.26357,5
1774391561091,0.0240585,1.12519,-0.0856437,49.7822,4.66258,11.6933,0,0,3.30638,5
1774391561104,0.0623869,1.12559,-0.0858588,49.8224,3.97524,19.2381,0,0,3.2972,5
1774391561117,0.0247591,1.10675,-0.0955675,50.9983,3.42956,24.7395,0,0,3.30066,5
1774391561131,0.0672214,1.08025,-0.116577,52.3584,2.31508,26.4617,0,0,3.3005,5
1774391561144,0.0626928,1.08263,-0.117918,55.6356,1.93835,25.8316,0,0,3.26401,5
1774391561157,0.072024,1.04305,-0.132217,57.1034,1.01661,24.5163,0,0,3.27113,5
1774391561171,0.10598,1.0278,-0.136049,56.6205,-0.355496,22.7663,0,0,3.28388,5
1774391561184,0.0859461,1.01674,-0.155305,55.4752,-1.39717,20.3846,0,0,3.31227,5
1774391561198,0.058059,1.01878,-0.17941,54.4838,-1.17566,19.3555,0,0,3.28085,5
1774391561211,0.0974121,1.0456,-0.184617,55.3545,-2.39906,16.6653,0,0,3.29385,5
1774391561225,0.0941951,1.02956,-0.206745,56.9872,-2.56336,13.8793,0,0,3.39998,5
1774391561238,0.123716,1.01703,-0.211244,56.5241,-2.86584,10.0786,0,0,3.25159,5
1774391561251,0.140741,1.02065,-0.221028,58.2723,-4.05596,7.07036,0,0,3.32477,5
1774391561265,0.108128,0.994273,-0.234552,57.432,-4.472,5.18771,0,0,3.25574,5
1774391561278,0.113509,1.0158,-0.248363,58.1538,-5.17391,2.84781,0,0,3.27455,5
1774391561291,0.122815,1.03086,-0.258855,59.1919,-6.10976,1.06448,0,0,3.28909,5
1774391561305,0.11244,1.05796,-0.260594,61.9884,-6.91283,-1.20076,0,0,3.29903,5
1774391561318,0.0841026,1.07612,-0.272319,65.6005,-7.60399,-1.83217,0,0,3.30683,5
1774391561332,0.0700756,1.09993,-0.286363,70.644,-7.60324,-1.99808,0,0,3.28966,5
1774391561345,0.0815086,1.12043,-0.291556,76.2058,-8.66671,-1.23726,0,0,3.26527,5
1774391561358,0.068487,1.17239,-0.297058,82.4832,-9.79587,-1.22447,0,0,3.28227,5
1774391561372,0.0891255,1.22867,-0.278516,90.5784,-11.2145,-0.594871,0,0,3.29772,5
1774391561385,0.0703492,1.23302,-0.292671,100.491,-13.2858,1.13845,0,0,3.30526,5
1774391561399,0.0551308,1.26833,-0.273408,110.984,-15.4841,4.12558,0,0,3.28696,5
1774391561412,0.0674957,1.27975,-0.263957,122.715,-17.3075,6.51441,0,0,3.262,5
1774391561425,0.0808173,1.3275,-0.247306,134.417,-20.7057,10.871,0,0,3.29579,3
1774391561439,0.0902847,1.49077,-0.206921,151.689,-21.5329,14.5101,0,0,3.28829,3
1774391561452,0.157341,1.54721,-0.165538,174.583,-25.8316,17.0196,0,0,3.30726,3
1774391561466,0.175666,1.74017,-0.138007,196.855,-31.9924,17.5571,0,0,3.28309,3
1774391561479,0.0720907,1.98203,-0.104894,220.931,-32.0969,19.1311,0,0,3.28546,3
1774391561492,-0.068794,2.33458,-0.313349,244.448,-29.7441,25.2351,0,0,3.32403,3
1774391561506,-0.29885,2.49374,-0.370991,249.024,-19.8673,24.4063,0,0,3.32085,3
1774391561519,-0.231455,2.48546,-0.469007,249.915,-8.05919,15.1582,0,0,3.2717,3
1774391561533,-0.0741715,1.96279,-0.291346,250.088,3.43007,18.6336,0,0,3.2974,3
1774391561546,0.148841,1.80737,-0.275019,250.122,-2.8984,20.6317,0,0,3.28383,3
1774391561559,0.263286,1.70586,-0.397717,250.128,-5.06443,22.0473,0,0,3.27927,3
1774391561573,0.440862,0.945892,-0.211836,250.129,-14.5359,38.0311,0,0,3.28438,1
1774391561586,0.557073,1.00141,0.502464,250.13,-24.4331,55.522,0,0,3.35368,1
1774391561600,1.90397,-2.65988,1.27686,202.58,-93.57,88.0061,0,0,3.33237,1
1774391561613,0.412943,-3.27775,0.367332,-154.267,-147.306,79.9411,0,0,3.29781,1
1774391561626,0.261848,0.571891,0.982213,-204.706,-146.187,-0.151795,0,0,3.29124,1
1774391561640,-0.340723,0.223119,0.652621,-198.42,-119.366,-71.8638,0,0,3.2747,1
1774391561653,-0.481628,0.797197,0.574137,-203.148,-86.1113,-101.048,0,0,3.31153,1
1774391561667,-0.484175,0.261506,0.43515,-210.074,-58.8041,-84.6984,0,0,3.27935,1
1774391561680,-0.430347,0.45236,0.414351,-231.859,-32.4513,-50.967,0,0,3.28992,1
1774391561694,-0.346043,0.460248,0.37214,-244.785,-4.85795,-29.1002,0,0,3.53589,4
1774391561707,-0.27359,0.559944,0.315255,-249.096,18.3904,-22.939,0,0,3.2794,4
1774391561720,-0.181078,0.573611,0.269451,-249.935,37.2273,-18.746,0,0,3.28429,2
1774391561735,-0.00937939,0.690226,0.277016,-250.098,45.4917,-12.3783,0,0,4.24815,2
1774391561748,0.219104,0.927362,0.274754,-250.13,39.6362,-2.78385,0,0,3.38696,2
1774391561762,0.359858,1.14729,0.190505,-250.136,23.5753,10.6293,0,0,3.3257,2
1774391561775,0.396143,1.38494,0.0619478,-250.137,2.23919,28.868,0,0,3.34831,2
1774391561791,0.21624,1.46577,-0.0527458,-250.137,-15.1005,51.2242,0,0,3.28068,2
1774391561804,0.0595498,1.36233,-0.040763,-250.137,-20.3807,55.7715,0,0,3.31061,2
1774391561818,-0.0278309,1.45543,-0.0350501,-250.137,-17.3628,47.3728,0,0,3.33346,2
1774391561832,0.0340065,1.53774,-0.0898171,-250.137,-12.7116,42.4615,0,0,3.38542,2
1774391561846,0.173359,1.62092,-0.126654,-250.137,-11.2101,48.5146,0,0,3.33816,2
1774391561859,0.241439,1.64571,-0.166549,-250.137,-11.1331,61.4599,0,0,3.29744,2
1774391561873,0.183008,1.62072,-0.170627,-250.137,-7.02965,70.5699,0,0,3.60057,5
1774391561888,0.0518964,1.63243,-0.149379,-250.137,4.97071,67.0123,0,0,3.31829,5
1774391561901,-0.0309539,1.75692,-0.142613,-250.137,17.7147,61.4445,0,0,3.32218,5
1774391561915,-0.0620898,1.86391,-0.180834,-250.137,28.5622,64.3142,0,0,3.31592,5
1774391561928,-0.0604241,1.88311,-0.226284,-250.137,37.3807,69.1518,0,0,3.26837,5
1774391561941,0.0656647,1.91685,-0.343373,-250.137,40.3264,61.1231,0,0,3.32803,5
1774391561955,0.370216,2.00471,-0.49753,-250.137,31.075,50.4738,0,0,3.34116,5
1774391561970,0.690595,2.08687,-0.74973,-232.99,3.32361,53.3445,0,0,3.29716,5
1774391561983,0.751061,2.20486,-0.992455,-192.04,-32.184,68.6955,0,0,3.2535,3
1774391561996,0.410174,2.16642,-1.26785,-140.401,-59.1489,82.4235,0,0,3.28113,3
1774391562010,-0.0820431,1.93271,-1.46997,-93.3156,-63.1789,70.0137,0,0,3.25448,3
1774391562023,-0.399983,1.61165,-1.57202,-58.9703,-47.3326,26.2037,0,0,3.32288,3
1774391562037,-0.347379,1.49256,-1.60276,-38.7855,-29.5181,-21.4113,0,0,3.25594,3
1774391562050,-0.175293,1.73928,-1.58508,-1.24588,-20.3705,-35.3559,0,0,3.31846,5
1774391562064,-0.216399,1.68475,-1.45899,40.4517,-9.96465,-30.7164,0,0,3.27929,1
1774391562077,-0.453499,1.54933,-1.23737,73.5642,12.2753,-33.4286,0,0,3.25516,1
1774391562090,-0.940604,3.34325,-1.65839,89.2977,38.6686,-95.8492,0,0,3.28813,1
1774391562104,0.0162297,0.675814,0.278928,218.832,24.8933,-107.48,0,0,3.25826,1
1774391562117,-0.7084,0.900981,0.525479,244.039,35.308,-96.8384,0,0,3.302,1
1774391562130,-0.355492,1.23887,0.0873633,248.945,29.957,-67.9188,0,0,3.25742,1
1774391562144,-0.335279,0.989478,-0.0759612,249.899,37.603,-31.9749,0,0,3.29488,1
1774391562157,0.00131112,1.29726,0.0364803,214.973,11.5782,-14.4054,0,0,3.27025,1
1774391562171,-0.0550529,1.39528,-0.139817,209.523,-11.1067,8.91495,0,0,3.26383,2
1774391562184,-0.0889216,0.486995,-0.23263,150.461,-10.3568,12.6477,0,0,3.2772,5
1774391562197,-0.119801,0.567647,-0.221397,79.7864,8.94046,5.98411,0,0,3.26977,5
1774391562211,0.105338,0.955998,-0.0964975,59.516,14.8229,1.2014,0,0,3.30477,5
1774391562224,0.125629,0.893308,-0.0471245,49.534,11.5288,-0.645384,0,0,3.26642,5
1774391562238,0.0565389,0.917437,-0.054627,38.9842,10.6479,-0.980176,0,0,3.27364,5
1774391562251,0.0330219,0.938201,-0.0319734,31.5085,12.9481,-3.15412,0,0,3.2854,5
1774391562265,0.039946,0.950556,-0.03198,25.3689,15.4491,-4.00139,0,0,3.26883,5
1774391562278,0.0695035,0.998011,-0.0512839,23.3442,15.4071,-4.70115,0,0,3.27374,5
1774391562291,0.0511511,0.993927,-0.0339372,22.5874,16.3642,-4.13644,0,0,3.2759,5
1774391562305,0.046591,0.970849,-0.0503785,18.8374,16.3352,-2.1145,0,0,3.29205,5
1774391562318,0.0625266,0.986649,-0.0227925,14.3388,13.5814,1.19932,0,0,3.25968,5
1774391562332,0.110048,0.989988,-0.072771,12.3383,7.62905,0.596125,0,0,3.34366,5
1774391562345,0.0696999,0.964254,-0.0707925,8.24788,6.28627,-0.953761,0,0,3.43668,5
1774391562359,0.106965,0.97809,-0.0598964,4.85738,5.65608,-5.36229,0,0,3.31066,5
1774391562372,0.121419,1.03827,-0.0324918,5.85757,6.41262,-8.88232,0,0,3.27633,5
1774391562385,0.0520149,1.01991,-0.0196083,8.23478,6.59059,-10.4588,0,0,3.25411,5
1774391562399,0.0278778,1.01409,-0.0288455,8.48835,6.98796,-11.7862,0,0,3.27629,5
1774391562412,0.0503634,1.00896,-0.0386483,9.28776,8.52853,-12.2105,0,0,3.25661,5
1774391562426,0.0469161,1.00008,-0.0661175,9.60318,8.79144,-11.9918,0,0,3.31113,5
1774391562439,0.0511754,0.988046,-0.0725842,8.75464,7.26869,-10.8979,0,0,3.25527,5
1774391562452,0.0185379,1.00019,-0.0777127,8.18374,5.98252,-8.982,0,0,3.2872,5
1774391562466,0.00657573,0.997728,-0.0767635,8.53375,5.14201,-6.75859,0,0,3.27001,5
1774391562479,0.0112343,0.999213,-0.0638198,8.03009,5.50719,-5.55741,0,0,3.25544,5
1774391562493,0.00533362,1.0173,-0.0537387,9.43221,5.03107,-3.94033,0,0,3.27831,5
1774391562506,0.0593355,1.04342,-0.0490716,11.9368,4.60027,-4.51712,0,0,3.25709,5
1774391562519,0.0596861,1.04881,-0.0533614,15.8733,3.20075,-5.05973,0,0,3.29574,5
1774391562533,0.00777157,1.0297,-0.038962,17.1865,3.24195,-4.65504,0,0,3.26348,5
1774391562546,0.0188824,1.06908,-0.0299207,21.9302,2.77657,-4.6685,0,0,3.4039,5
1774391562560,0.0604638,1.12521,-0.0557364,29.235,3.65125,-6.04829,0,0,3.27226,5
1774391562573,0.0674948,1.1465,-0.0717685,38.4093,2.33978,-7.80464,0,0,3.26248,5
1774391562586,0.0359575,1.07947,-0.0803537,44.7811,1.86323,-9.11782,0,0,3.28496,5
1774391562600,0.0178561,0.991447,-0.0939137,43.5741,1.16184,-7.71339,0,0,3.26022,5
1774391562613,-0.0239899,1.02344,-0.102551,38.3715,1.67089,-4.09552,0,0,3.2922,5
1774391562627,-0.0248366,1.04935,-0.1113,40.7344,0.245232,0.395738,0,0,3.25911,5
1774391562640,-0.0339996,0.971403,-0.127406,34.3207,0.816233,4.06097,0,0,3.30585,5
1774391562653,-0.020191,1.06615,-0.118853,31.6216,1.15483,11.0145,0,0,3.30744,5
1774391562667,-0.0206017,1.08939,-0.12943,34.7545,1.73101,13.167,0,0,3.27368,5
1774391562680,0.0270075,1.1151,-0.129404,36.6983,1.76321,12.5591,0,0,3.28042,5
1774391562694,0.0497728,1.10626,-0.12064,40.8453,1.99696,12.4039,0,0,3.25255,5
1774391562707,0.0699919,1.12052,-0.122759,43.9825,1.51371,10.9166,0,0,3.27659,5
1774391562720,0.0527117,1.12005,-0.134944,48.4908,1.45656,10.455,0,0,3.2542,5
1774391562734,0.018056,1.13386,-0.141605,52.9894,1.58069,10.9124,0,0,3.32837,5
1774391562747,0.0214594,1.15043,-0.159296,57.4061,2.00448,12.2126,0,0,3.26963,5
1774391562761,0.00235427,1.14933,-0.171007,61.6717,1.9025,14.2362,0,0,3.32494,5
1774391562774,0.00599253,1.16423,-0.170034,65.6557,1.84577,16.456,0,0,3.27668,5
1774391562787,0.0180482,1.19002,-0.183177,71.3618,1.49044,17.0847,0,0,3.2557,5
1774391562801,0.0228871,1.19425,-0.19635,77.9009,0.744998,18.3445,0,0,3.27603,5
1774391562814,0.0231113,1.23381,-0.184688,85.6412,-0.180872,19.4258,0,0,3.25774,5
1774391562828,-0.00113501,1.21117,-0.189964,93.892,-1.314,21.4806,0,0,3.31865,5
1774391562841,0.0211427,1.25175,-0.188696,101.683,-3.04079,23.7741,0,0,3.25372,5
1774391562854,0.0442694,1.26727,-0.17531,111.24,-4.84622,25.364,0,0,3.28851,5
1774391562868,0.0313428,1.31968,-0.177978,120.73,-6.42717,27.7145,0,0,3.28244,5
1774391562881,0.143334,1.41791,-0.145987,135.592,-10.4544,27.3727,0,0,3.23603,5
1774391562894,0.215521,1.51232,-0.106138,153.621,-16.0152,26.9496,0,0,3.27655,5
1774391562908,0.216812,1.59141,-0.0629333,172.684,-23.479,27.9124,0,0,3.24314,5
1774391562921,0.242537,1.82332,0.00583494,195.803,-29.7086,27.4665,0,0,3.29057,5
1774391562935,0.261047,2.04327,0.0828826,230.213,-38.2862,25.1172,0,0,3.25044,5
1774391562948,0.17736,2.21123,0.0543785,246.254,-42.138,20.172,0,0,3.29998,5
1774391562961,-0.18303,2.27822,-0.108034,249.376,-33.9852,16.1294,0,0,3.29601,5
1774391562975,-0.195775,2.49812,-0.242343,249.983,-22.1375,16.9966,0,0,3.25257,5
1774391562988,-0.142177,2.25,-0.164663,250.101,-5.09491,0.356462,0,0,3.26931,5
1774391563001,0.0573421,1.76369,-0.0548448,250.124,-2.55309,-7.08701,0,0,3.24107,5
1774391563015,0.252531,1.73276,-0.0827892,250.129,-3.29421,-19.2393,0,0,3.29714,5
1774391563028,0.468184,1.37131,-0.0840216,250.13,-3.08185,-27.617,0,0,3.24477,5
1774391563041,0.423381,0.935067,0.182661,250.13,-8.30943,-5.24517,0,0,3.2794,1
1774391563055,0.734508,-1.5483,1.13362,235.528,-57.2634,-2.41633,0,0,3.37929,1
1774391563068,1.16835,-3.34307,0.0978621,8.28136,-156.589,16.4247,0,0,3.26257,3
1774391563082,0.370071,-0.507586,0.650324,-155.251,-181.771,27.7517,0,0,3.27985,3
1774391563095,-0.287776,0.0684524,0.71936,-168.157,-174.651,-42.3271,0,0,3.25148,3
1774391563108,-0.704607,0.509295,0.552343,-194.83,-134.662,-96.6894,0,0,3.27979,3
1774391563122,-0.781267,0.38078,0.422162,-190.706,-88.5408,-105.682,0,0,3.25531,3
1774391563135,-0.701544,0.289868,0.377807,-213.703,-47.8844,-72.9537,0,0,3.32968,3
1774391563149,-0.583135,0.331636,0.366995,-227.892,-8.90642,-32.6472,0,0,3.25946,3
1774391563162,-0.457221,0.247747,0.343723,-245.808,27.2796,-19.301,0,0,3.30931,3
1774391563175,-0.340376,0.298188,0.365547,-249.295,57.2661,-23.3192,0,0,3.2669,2
1774391563189,-0.143212,0.452716,0.394986,-249.973,76.0125,-23.4617,0,0,3.24835,2
1774391563202,0.210052,0.617083,0.459172,-250.106,70.2663,-9.51488,0,0,3.27126,2
1774391563215,0.463772,0.803389,0.500856,-250.131,49.0868,14.4593,0,0,3.2585,2
1774391563229,0.542659,1.07296,0.4232,-250.136,21.3136,34.667,0,0,3.29574,2
1774391563242,0.416886,1.40148,0.274247,-250.137,-1.29342,52.6048,0,0,3.26059,2
1774391563256,0.282385,1.82479,0.0538247,-250.137,-17.1405,65.4222,0,0,3.30805,2
1774391563269,0.137861,1.61044,0.00959675,-250.137,-27.2824,63.1517,0,0,3.27298,2
1774391563283,0.00387581,1.54764,0.0295587,-250.137,-32.2501,52.0921,0,0,3.24764,2
1774391563296,0.00586405,1.67362,-0.0297904,-250.137,-34.305,39.0885,0,0,3.274,2
1774391563309,0.0955797,1.66609,-0.0623142,-250.137,-37.656,27.6002,0,0,3.25701,2
1774391563323,0.122836,1.61117,-0.0656672,-250.137,-43.3741,27.5902,0,0,3.30398,2
1774391563336,0.0245138,1.70905,-0.081221,-250.137,-44.8988,35.796,0,0,3.26431,2
1774391563349,-0.0870826,1.89845,-0.109159,-250.137,-40.1848,42.9876,0,0,3.28464,5
1774391563363,-0.172389,1.97958,-0.180092,-250.137,-29.9285,45.2478,0,0,3.27353,5
1774391563376,-0.194532,2.04135,-0.272911,-250.137,-17.4317,41.9803,0,0,3.26946,1
1774391563390,-0.120933,2.12189,-0.403764,-250.137,-6.97655,41.8855,0,0,3.27194,1
1774391563403,0.0664301,2.09682,-0.536052,-246.602,-3.03607,46.8101,0,0,3.26246,1
1774391563416,0.290353,2.02505,-0.678554,-228.325,-9.71458,56.4495,0,0,3.29957,1
1774391563430,0.477783,2.01422,-0.831835,-202.727,-27.073,73.5603,0,0,3.25509,1
1774391563443,0.432566,2.05171,-0.992472,-165.776,-48.1329,91.6086,0,0,3.2715,1
1774391563457,0.128774,1.94969,-1.15615,-124.082,-61.2627,95.582,0,0,3.34496,1
1774391563470,-0.233223,1.75436,-1.30045,-84.6681,-57.0241,74.2651,0,0,3.26174,1
1774391563483,-0.422083,1.55189,-1.38237,-53.7031,-40.5832,34.9743,0,0,3.27409,1
1774391563497,-0.411386,1.55626,-1.41057,-23.2879,-23.7042,2.66836,0,0,3.26301,1
1774391563510,-0.360086,1.54599,-1.39275,10.076,-8.45541,-7.61466,0,0,3.28013,1
1774391563523,-0.450893,1.55129,-1.31631,43.6018,11.9173,-4.51282,0,0,3.25907,1
1774391563537,-0.601225,1.48407,-1.12032,72.0131,43.3023,-7.40132,0,0,3.33583,1
1774391563550,0.145234,3.32577,0.0497512,186.529,72.5082,-53.8712,0,0,3.27329,1
1774391563564,0.699477,0.574797,0.848148,237.753,50.9003,-80.4547,0,0,3.31853,1
1774391563577,-0.109078,0.641216,0.453345,247.721,65.6868,-101.828,0,0,3.27548,1
1774391563591,-0.276044,1.07294,0.135235,249.661,66.1542,-59.3419,0,0,3.2505,1
1774391563604,-0.103991,1.14108,0.161343,238.579,56.6665,-25.8914,0,0,3.27772,5
1774391563617,-0.0153538,1.5284,0.0266103,218.537,26.2131,1.50923,0,0,3.26046,5
1774391563631,-0.0366417,0.989311,-0.142997,193.192,1.21549,20.6131,0,0,3.30489,5
1774391563644,-0.0359117,0.416285,-0.210963,123.306,3.25525,19.8795,0,0,3.25464,5
1774391563657,-0.0285672,0.769781,-0.138561,75.0921,19.2376,12.9862,0,0,3.2694,5
1774391563671,0.0968986,0.969411,-0.0333742,65.3716,19.1938,6.45575,0,0,3.28514,5
1774391563684,0.1441,0.864195,0.00481911,53.3602,16.7014,2.39369,0,0,3.25631,5
1774391563698,0.0754285,0.907671,-0.00210447,41.1551,17.8395,-3.62267,0,0,3.27401,5
1774391563711,0.0936663,0.928614,-0.0427426,33.1729,19.5304,-8.60527,0,0,3.30438,5
1774391563724,0.200604,0.915459,-0.0790103,24.1189,12.4264,-14.2474,0,0,3.29798,5
1774391563738,-0.00486954,0.996828,-0.0102686,21.0598,17.9483,-13.8453,0,0,3.25748,5
1774391563751,0.0714356,1.01309,-0.0122238,21.7187,18.1313,-15.1011,0,0,3.29874,5
1774391563765,0.0856262,0.997074,-0.0618966,20.5681,17.6505,-15.3332,0,0,3.30287,5
1774391563778,0.0313435,0.983131,-0.0435724,16.0405,15.6449,-16.6511,0,0,3.25694,5
1774391563791,0.061658,1.01407,-0.00684965,14.4955,17.677,-20.5779,0,0,3.27653,5
1774391563805,0.0790744,1.01002,0.0235434,15.8671,16.9965,-20.383,0,0,3.25977,5
1774391563818,0.0521071,0.96855,-0.0567809,12.6972,15.991,-20.2344,0,0,3.30013,5
1774391563832,-0.0198167,0.978169,-0.0842016,8.61897,12.4262,-15.9694,0,0,3.26048,5
1774391563845,-0.0121013,1.02686,-0.0558043,10.4506,10.091,-11.8625,0,0,3.27363,5
1774391563858,-0.055251,0.988073,-0.0667825,11.8153,9.24919,-5.07509,0,0,3.27183,5
1774391563872,-0.0954087,1.03219,-0.078839,13.1568,8.74724,1.67451,0,0,3.2749,5
1774391563885,-0.0177009,1.06189,-0.0715248,17.4079,7.79497,3.34457,0,0,3.2754,5
1774391563898,0.08444,1.02445,-0.0395395,18.6963,3.76096,-0.283654,0,0,3.24687,5
1774391563912,0.105017,1.10824,-0.0306116,22.5437,0.442924,-5.22574,0,0,3.27838,5
1774391563925,0.0238499,1.07762,-0.0498449,27.3071,-1.03891,-8.1979,0,0,3.25859,5
1774391563939,0.038382,1.11588,-0.0741218,32.5746,-0.441947,-9.20665,0,0,3.35537,5
1774391563952,-0.020456,1.05947,-0.0674013,36.6614,1.53709,-8.33318,0,0,3.26353,5
1774391563966,-0.0419407,1.07706,-0.077575,37.2108,3.29324,-4.24073,0,0,3.68037,5
1774391563979,0.0157492,1.10947,-0.0574244,38.6088,3.59195,2.92509,0,0,3.27722,5
1774391563993,-0.0166906,1.13496,-0.0822294,41.9549,3.08445,6.40376,0,0,3.2487,5
1774391564006,-0.0203786,1.09532,-0.087446,44.9607,3.15169,10.1486,0,0,3.28092,5
1774391564019,-0.0124306,1.09775,-0.100103,47.7467,3.34307,11.7996,0,0,3.26037,5
1774391564034,0.00935858,1.08964,-0.111716,51.2522,3.2635,12.8217,0,0,3.30751,5
1774391564047,-0.00124557,1.06084,-0.11733,53.1763,3.36483,12.3382,0,0,3.24653,5
1774391564060,-0.00229971,1.04651,-0.131702,53.2802,3.64892,12.3671,0,0,3.24164,5
1774391564074,0.0438859,1.06161,-0.142881,54.1919,3.10784,9.88271,0,0,3.2792,5
1774391564087,0.0403549,1.03206,-0.165893,55.0456,2.65825,7.77616,0,0,3.24235,5
1774391564100,0.0928471,1.02664,-0.17903,55.2425,1.42107,4.81477,0,0,3.26309,5
1774391564114,0.040606,0.996415,-0.19363,54.3463,0.540908,3.679,0,0,3.2382,5
1774391564127,0.0392973,1.01441,-0.211304,52.8316,-0.40503,3.4088,0,0,3.27413,5
1774391564140,0.0371595,1.04139,-0.208534,52.6598,-1.45599,3.83577,0,0,3.24024,5
1774391564154,0.0347994,1.06113,-0.211544,53.9667,-2.29991,4.2447,0,0,3.24172,5
1774391564167,0.0527542,1.10771,-0.200555,57.1659,-3.25109,4.47799,0,0,3.51702,5
1774391564181,-0.0039156,1.12466,-0.2187,61.9569,-3.35012,4.86768,0,0,3.23727,5
1774391564194,0.0064572,1.16512,-0.237503,68.3426,-3.81205,5.70587,0,0,3.26479,5
1774391564207,0.00280254,1.16953,-0.238251,75.3952,-4.57209,6.3178,0,0,3.24137,5
1774391564221,0.0193382,1.20735,-0.241133,82.0488,-5.19339,6.6828,0,0,3.25766,5
1774391564234,0.0584412,1.23035,-0.218492,91.0042,-7.29398,7.94656,0,0,3.23568,5
1774391564247,0.0499742,1.26886,-0.206706,100.469,-9.37504,8.17404,0,0,3.26037,5
1774391564261,0.0553905,1.31368,-0.20748,112.178,-12.3561,9.23275,0,0,3.24509,5
1774391564274,0.0461184,1.36929,-0.183918,124.288,-14.5654,11.9042,0,0,3.29992,5
1774391564287,0.147472,1.50912,-0.131493,141.695,-18.7518,12.8482,0,0,3.26037,5
1774391564301,0.10046,1.64453,-0.102433,165.992,-22.6652,13.616,0,0,3.2369,5
1774391564314,0.144697,1.7834,-0.0235151,191.956,-32.0525,16.7534,0,0,3.25438,5
1774391564327,0.0877416,1.97127,0.0208651,223.599,-38.146,16.2696,0,0,3.23596,5
1774391564341,0.0705145,2.07505,0.0147057,244.967,-37.555,16.7287,0,0,3.2687,5
1774391564354,-0.0804759,2.15254,-0.197481,249.125,-35.9522,16.6583,0,0,3.2405,5
1774391564367,-0.113249,2.22657,-0.348166,249.934,-26.6702,16.1588,0,0,3.23864,5
1774391564381,0.0693828,2.11933,-0.336712,250.092,-19.3491,5.23487,0,0,3.27827,5
1774391564394,0.27077,1.72707,-0.230698,250.122,-22.019,3.93905,0,0,3.23568,5
1774391564407,0.260748,1.7855,-0.142062,250.128,-28.1456,8.9312,0,0,3.23938,5
1774391564421,0.548131,1.42887,-0.0957931,250.129,-41.4619,24.781,0,0,3.25353,5
1774391564434,0.44945,1.08775,0.0713791,250.13,-55.5625,44.3731,0,0,3.23807,5
