timestamp,ax,ay,az,gx,gy,gz,delay_ms,classe_prevista,tempo_s,Fase,Classe_Prevista
1774389180948,0.0374474,0.656631,-0.189516,3.3713e-14,-2.4550600000000004e-13,2.1073600000000003e-13,3.28544,-1,0.0,0,
1774389180961,0.0435744,0.787795,-0.2255,1.8318700000000005e-14,-1.44645e-13,1.0979100000000003e-13,3.27889,-1,0.013,0,
1774389180975,0.0460644,0.845853,-0.2427,1.2658200000000004e-14,-1.0360000000000002e-13,7.803180000000003e-14,3.42922,-1,0.027,0,
1774389180989,0.0482175,0.87632,-0.252934,9.133700000000002e-15,-8.207110000000003e-14,6.10375e-14,3.28439,-1,0.041,0,
1774389181003,0.049952,0.89671,-0.258114,7.150210000000001e-15,-6.85171e-14,5.06143e-14,3.63421,-1,0.055,0,
1774389181016,0.0514641,0.910683,-0.261828,5.864190000000001e-15,-5.858920000000001e-14,4.346140000000001e-14,3.24368,-1,0.068,0,
1774389181030,0.0523427,0.921508,-0.264294,5.0012900000000005e-15,-5.1467600000000004e-14,3.8148000000000013e-14,3.2682,-1,0.082,0,
1774389181043,0.0510768,0.929794,-0.266726,4.21475e-15,-4.6151300000000003e-14,3.396960000000001e-14,3.24539,-1,0.095,0,
1774389181056,0.051557,0.935586,-0.268143,3.769880000000001e-15,-4.1928900000000007e-14,3.0735800000000015e-14,3.27065,-1,0.108,0,
1774389181070,0.0519972,0.941213,-0.269593,3.2293700000000003e-15,-3.862920000000001e-14,2.80763e-14,3.33183,3,0.122,0,
1774389181084,0.0525685,0.946049,-0.271094,2.93205e-15,-3.610230000000001e-14,2.5732800000000002e-14,3.91065,1,0.136,0,
1774389181097,0.0528384,0.949667,-0.272299,2.8298500000000004e-15,-3.365590000000001e-14,2.38455e-14,3.29609,1,0.149,0,
1774389181111,0.05255,0.95255,-0.273272,2.6082100000000002e-15,-3.1699599999999996e-14,2.2254700000000006e-14,3.28991,1,0.163,0,
1774389181124,0.0528855,0.955353,-0.27404,2.4350100000000005e-15,-2.993840000000001e-14,2.0988900000000003e-14,3.32322,1,0.176,0,
1774389181138,0.0527307,0.958332,-0.275253,2.36852e-15,-2.8412200000000004e-14,1.9787500000000002e-14,3.29439,1,0.19,0,
1774389181151,0.0525251,0.960178,-0.27588,2.2862400000000006e-15,-2.7073500000000006e-14,1.8618900000000006e-14,3.30474,1,0.203,0,
1774389181164,0.0525721,0.962072,-0.276341,2.28085e-15,-2.5726900000000004e-14,1.7639100000000002e-14,3.30966,1,0.216,0,
1774389181178,0.0529945,0.963756,-0.276643,2.3804200000000013e-15,-2.4523400000000006e-14,1.6776100000000004e-14,3.57065,1,0.23,0,
1774389181192,0.0532843,0.96537,-0.276901,2.30994e-15,-2.3581100000000003e-14,1.59861e-14,3.30387,1,0.244,0,
1774389181207,0.0533992,0.966718,-0.276928,2.365980000000001e-15,-2.2584900000000005e-14,1.5300300000000004e-14,3.33589,1,0.259,0,
1774389181221,0.0535041,0.967487,-0.277169,2.35069e-15,-2.17686e-14,1.4654700000000002e-14,3.28592,5,0.273,0,
1774389181234,0.0533755,0.968177,-0.277558,2.4018100000000003e-15,-2.08862e-14,1.4219000000000002e-14,3.30724,1,0.286,0,
1774389181247,0.0535316,0.968964,-0.278219,2.3453600000000003e-15,-2.01544e-14,1.3671100000000002e-14,3.28666,5,0.299,0,
1774389181261,0.053622,0.969744,-0.278788,2.3079000000000003e-15,-1.9485100000000003e-14,1.3171199999999999e-14,3.82878,5,0.313,0,
1774389181275,0.0535346,0.970902,-0.279066,2.16805e-15,-1.8809300000000007e-14,1.2785900000000001e-14,3.31661,5,0.327,0,
1774389181288,0.0534793,0.971939,-0.279065,2.1425200000000003e-15,-1.82875e-14,1.2481000000000004e-14,3.29631,5,0.34,0,
1774389181302,0.0537076,0.972828,-0.278874,2.0346600000000006e-15,-1.7892100000000004e-14,1.22122e-14,3.83437,5,0.354,0,
1774389181316,0.0536952,0.973446,-0.279259,1.9297400000000005e-15,-1.74781e-14,1.1776900000000002e-14,3.29622,5,0.368,0,
1774389181329,0.0538938,0.974197,-0.279693,1.8549900000000006e-15,-1.70742e-14,1.1495600000000002e-14,3.29294,5,0.381,0,
1774389181342,0.0538114,0.97462,-0.279954,1.83084e-15,-1.6565300000000006e-14,1.12103e-14,3.29779,5,0.394,0,
1774389181356,0.0537823,0.975211,-0.279922,1.7947e-15,-1.6216800000000004e-14,1.08534e-14,3.35905,5,0.408,0,
1774389181370,0.0539102,0.975241,-0.280512,1.7519200000000003e-15,-1.5791900000000003e-14,1.0573700000000002e-14,3.30852,5,0.422,2,2.0
1774389181383,0.0540188,0.975719,-0.280749,1.5865799999999998e-15,-1.5358400000000004e-14,1.0311900000000003e-14,3.29202,1,0.435,2,2.0
1774389181396,0.0540157,0.976017,-0.280831,1.5519100000000002e-15,-1.5032500000000004e-14,1.00755e-14,3.40583,1,0.448,2,2.0
1774389181410,0.0543733,0.976485,-0.280851,1.4617600000000001e-15,-1.47756e-14,9.800580000000003e-15,3.44565,5,0.462,2,2.0
1774389181424,0.0543767,0.97672,-0.280766,1.4257700000000003e-15,-1.44507e-14,9.573590000000001e-15,3.2937,1,0.476,2,2.0
1774389181437,0.0542536,0.977378,-0.281133,1.3875699999999998e-15,-1.4119200000000003e-14,9.329630000000002e-15,3.2997,1,0.489,2,2.0
1774389181450,0.0543993,0.977784,-0.281446,1.39557e-15,-1.3807700000000004e-14,9.13995e-15,3.30431,5,0.502,2,2.0
1774389181464,0.0544127,0.978056,-0.281596,1.3987100000000002e-15,-1.3602500000000004e-14,8.887230000000004e-15,3.30204,5,0.516,2,2.0
1774389181477,0.0544705,0.978709,-0.281478,1.4147700000000001e-15,-1.33659e-14,8.61028e-15,3.32393,5,0.529,2,2.0
1774389181492,0.0541662,0.978666,-0.281771,1.4473000000000007e-15,-1.3265200000000003e-14,8.415090000000001e-15,4.22677,5,0.544,2,2.0
1774389181507,0.0539889,0.978771,-0.281468,1.55185e-15,-1.3135700000000002e-14,8.344470000000002e-15,5.12291,1,0.559,2,2.0
1774389181522,0.0541098,0.979227,-0.28148,1.61121e-15,-1.2887900000000002e-14,8.18681e-15,4.16458,5,0.574,2,2.0
1774389181535,0.0542359,0.979494,-0.28198,1.5283800000000002e-15,-1.2606899999999999e-14,8.120710000000001e-15,3.26466,1,0.587,2,2.0
1774389181548,0.0544664,0.979616,-0.282113,1.3854200000000001e-15,-1.2567299999999999e-14,7.95888e-15,3.30543,5,0.6,2,2.0
1774389181562,0.0551709,0.97993,-0.281897,1.3804500000000002e-15,-1.2478000000000003e-14,7.841000000000001e-15,3.29652,5,0.614,2,2.0
1774389181575,0.0562814,0.979196,-0.282253,1.1943500000000004e-15,-1.2376700000000004e-14,7.777430000000001e-15,3.29902,5,0.627,2,2.0
1774389181589,0.0567252,0.979637,-0.282043,1.2347100000000003e-15,-1.2345900000000005e-14,7.652780000000002e-15,3.29879,5,0.641,2,2.0
1774389181602,0.0572138,0.98056,-0.281811,1.2641400000000003e-15,-1.2282400000000001e-14,7.6517e-15,3.32907,5,0.654,2,2.0
1774389181616,0.057079,0.979977,-0.282332,1.1023200000000001e-15,-1.22268e-14,7.55589e-15,3.34526,5,0.668,2,2.0
1774389181629,0.0573318,0.979781,-0.282218,1.1650000000000002e-15,-1.2092600000000001e-14,7.599020000000002e-15,3.32196,5,0.681,2,2.0
1774389181643,0.0563546,0.980258,-0.282349,1.32739e-15,-1.1841300000000001e-14,7.652600000000001e-15,3.86732,5,0.695,2,2.0
1774389181657,0.0563131,0.981375,-0.282387,1.29131e-15,-1.1711700000000001e-14,7.47521e-15,3.30835,1,0.709,2,2.0
1774389181670,0.0565011,0.981248,-0.282738,1.1068300000000003e-15,-1.1731400000000003e-14,7.462630000000002e-15,3.27365,1,0.722,2,2.0
1774389181684,0.0566914,0.980889,-0.282715,9.843770000000002e-16,-1.1586700000000003e-14,7.442180000000001e-15,3.33804,5,0.736,2,2.0
1774389181697,0.0567433,0.981173,-0.282704,1.0106e-15,-1.1510300000000002e-14,7.470130000000004e-15,3.28515,1,0.749,2,2.0
1774389181711,0.0565875,0.981628,-0.282726,9.19405e-16,-1.1442500000000004e-14,7.38486e-15,3.41563,5,0.763,2,2.0
1774389181724,0.0562984,0.981685,-0.282898,8.033200000000003e-16,-1.1365700000000001e-14,7.30441e-15,3.29318,5,0.776,2,2.0
1774389181738,0.0566262,0.981987,-0.282912,8.868990000000002e-16,-1.13275e-14,7.301460000000002e-15,3.86562,1,0.79,2,2.0
1774389181752,0.0581353,0.980821,-0.282785,6.568640000000002e-16,-1.1291500000000003e-14,7.423090000000002e-15,3.29248,5,0.804,2,2.0
1774389181765,0.0583817,0.980805,-0.282825,8.944710000000001e-16,-1.1296200000000002e-14,7.353420000000001e-15,3.27196,5,0.817,2,2.0
1774389181778,0.0581435,0.981608,-0.283024,8.828160000000002e-16,-1.1167600000000003e-14,7.373450000000002e-15,3.32766,5,0.83,2,2.0
1774389181792,0.0580344,0.982053,-0.28315,7.174590000000002e-16,-1.1162000000000003e-14,7.34947e-15,3.28068,1,0.844,2,2.0
1774389181806,0.058016,0.981746,-0.283206,6.728779999999999e-16,-1.1113900000000003e-14,7.34828e-15,3.32705,1,0.858,2,2.0
1774389181819,0.0577944,0.982012,-0.283443,8.108420000000001e-16,-1.1227100000000004e-14,7.274290000000001e-15,3.30707,5,0.871,2,2.0
1774389181833,0.058012,0.982449,-0.283786,7.8246e-16,-1.11968e-14,7.21302e-15,3.31061,1,0.885,2,2.0
1774389181846,0.0580054,0.982501,-0.283965,7.385320000000001e-16,-1.12839e-14,7.116640000000001e-15,3.31485,1,0.898,2,2.0
1774389181860,0.0578597,0.982541,-0.284006,6.71362e-16,-1.1220400000000002e-14,6.952819999999999e-15,3.86356,1,0.912,2,2.0
1774389181874,0.0577204,0.982857,-0.284496,7.707920000000002e-16,-1.1190500000000004e-14,6.88392e-15,3.29422,1,0.926,2,2.0
1774389181887,0.0577051,0.982977,-0.284622,8.90341e-16,-1.1140800000000003e-14,6.9088600000000016e-15,3.28839,5,0.939,2,2.0
1774389181900,0.0576155,0.983157,-0.284559,8.532250000000001e-16,-1.0991100000000001e-14,6.880980000000002e-15,3.337,1,0.952,2,2.0
1774389181914,0.0573586,0.983232,-0.284586,9.08157e-16,-1.1038300000000001e-14,6.794700000000001e-15,3.3507,1,0.966,2,2.0
1774389181927,0.0570808,0.983314,-0.284546,9.2145e-16,-1.1048500000000003e-14,6.756100000000002e-15,3.29705,1,0.979,2,2.0
1774389181941,0.0571793,0.983425,-0.284669,9.25429e-16,-1.10625e-14,6.702540000000001e-15,3.30046,1,0.993,2,2.0
1774389181955,0.0572948,0.983306,-0.284659,9.677360000000002e-16,-1.10929e-14,6.651980000000001e-15,3.82787,1,1.007,2,2.0
1774389181968,0.0570735,0.98332,-0.284231,9.262860000000002e-16,-1.1078600000000003e-14,6.552860000000001e-15,3.30944,1,1.02,2,2.0
1774389181982,0.0571294,0.983377,-0.28424,9.59975e-16,-1.1013800000000001e-14,6.4764400000000016e-15,3.27942,1,1.034,2,2.0
1774389181995,0.0569155,0.983517,-0.284162,9.189630000000003e-16,-1.08799e-14,6.4771200000000014e-15,3.32772,5,1.047,2,2.0
1774389182009,0.0568927,0.983534,-0.284045,9.402120000000002e-16,-1.07791e-14,6.533440000000002e-15,3.29318,5,1.061,2,2.0
1774389182022,0.0569459,0.983399,-0.283826,8.746150000000001e-16,-1.0722600000000001e-14,6.608010000000001e-15,3.31689,1,1.074,2,2.0
1774389182036,0.056879,0.983356,-0.283767,8.81221e-16,-1.06435e-14,6.56705e-15,3.26952,1,1.088,2,2.0
1774389182049,0.0569648,0.983583,-0.283839,8.74609e-16,-1.0641599999999998e-14,6.55408e-15,3.31637,5,1.101,2,2.0
1774389182062,0.0569827,0.983404,-0.283736,8.212610000000001e-16,-1.0571400000000001e-14,6.567530000000001e-15,3.27248,1,1.114,2,2.0
1774389182076,0.0571815,0.983607,-0.283702,8.222950000000001e-16,-1.0560700000000001e-14,6.503150000000001e-15,3.7508,5,1.128,2,2.0
1774389182090,0.057083,0.98364,-0.283744,8.875060000000003e-16,-1.0537800000000002e-14,6.532300000000002e-15,3.28094,1,1.142,2,2.0
1774389182103,0.0570209,0.983598,-0.283368,8.719770000000003e-16,-1.0520500000000002e-14,6.521280000000002e-15,3.25285,1,1.155,2,2.0
1774389182117,0.0569508,0.983642,-0.283435,8.61602e-16,-1.0568400000000002e-14,6.459500000000001e-15,3.34381,1,1.169,2,2.0
1774389182130,0.0571082,0.983803,-0.283329,9.331700000000003e-16,-1.05322e-14,6.345510000000002e-15,3.27507,1,1.182,2,2.0
1774389182143,0.0570236,0.983742,-0.283623,9.1508e-16,-1.0481000000000001e-14,6.2807399999999996e-15,3.27161,1,1.195,2,2.0
1774389182157,0.0571244,0.983823,-0.283679,9.836470000000005e-16,-1.0484e-14,6.2667e-15,3.28442,5,1.209,2,2.0
1774389182170,0.057178,0.983847,-0.283819,9.54162e-16,-1.0371200000000001e-14,6.300560000000001e-15,3.38748,1,1.222,2,2.0
1774389182184,0.0571224,0.983956,-0.284069,9.94844e-16,-1.0380300000000002e-14,6.259720000000001e-15,3.25046,1,1.236,2,2.0
1774389182197,0.05708,0.984038,-0.284042,9.989870000000002e-16,-1.03419e-14,6.216890000000002e-15,3.239,5,1.249,2,2.0
1774389182210,0.0567617,0.984053,-0.284048,1.0714100000000002e-15,-1.0292700000000001e-14,6.1165100000000005e-15,3.28178,5,1.262,2,2.0
1774389182224,0.0569166,0.984163,-0.284118,1.06698e-15,-1.0135000000000002e-14,6.0132e-15,3.28133,1,1.276,2,2.0
1774389182237,0.0567443,0.984162,-0.28411,1.0670700000000004e-15,-1.0118799999999999e-14,5.911410000000002e-15,3.35872,5,1.289,2,2.0
1774389182251,0.0567825,0.984299,-0.284487,1.14852e-15,-1.0155000000000003e-14,5.84101e-15,3.25974,5,1.303,2,2.0
1774389182264,0.0568404,0.984217,-0.28442,1.1825800000000002e-15,-1.0163400000000003e-14,5.860210000000001e-15,3.30922,5,1.316,2,2.0
1774389182278,0.0570559,0.984342,-0.284388,1.19332e-15,-1.0201400000000004e-14,5.80553e-15,3.27461,5,1.33,2,2.0
1774389182291,0.0568989,0.98445,-0.284219,1.1649200000000002e-15,-1.0228600000000002e-14,5.758210000000002e-15,3.28229,5,1.343,2,2.0
1774389182305,0.0568129,0.984521,-0.284057,1.17665e-15,-1.0228600000000002e-14,5.67928e-15,3.26742,5,1.357,2,2.0
1774389182318,0.0566345,0.984739,-0.283913,1.11921e-15,-1.0168700000000001e-14,5.596220000000001e-15,3.2527,5,1.37,2,2.0
1774389182331,0.0566241,0.984755,-0.283593,1.11638e-15,-1.01378e-14,5.633420000000001e-15,3.29904,5,1.383,2,2.0
1774389182345,0.0565287,0.984749,-0.283608,1.0323500000000001e-15,-1.0138700000000002e-14,5.552930000000001e-15,3.25115,5,1.397,2,2.0
1774389182358,0.0563093,0.984519,-0.283751,9.57315e-16,-1.01009e-14,5.5454700000000006e-15,3.29148,1,1.41,2,2.0
1774389182372,0.0563131,0.984588,-0.284133,8.69361e-16,-1.0022500000000004e-14,5.512730000000001e-15,3.26694,1,1.424,2,2.0
1774389182385,0.0562954,0.984557,-0.284338,8.163140000000001e-16,-1.0046900000000005e-14,5.614570000000001e-15,3.27109,5,1.437,2,2.0
1774389182398,0.05646,0.984485,-0.28448,7.234240000000002e-16,-1.00271e-14,5.6464600000000014e-15,3.27211,1,1.45,2,2.0
1774389182412,0.0563291,0.984438,-0.284585,6.014890000000001e-16,-9.99992e-15,5.72367e-15,3.25427,1,1.464,2,2.0
1774389182426,0.0565776,0.984189,-0.284652,5.206490000000001e-16,-9.961390000000002e-15,5.710910000000001e-15,4.2159,1,1.478,2,2.0
1774389182439,0.0565697,0.984208,-0.284632,4.400620000000001e-16,-9.899330000000001e-15,5.763100000000001e-15,3.25163,1,1.491,2,2.0
1774389182453,0.0565301,0.984279,-0.284494,3.4686700000000005e-16,-9.88785e-15,5.868020000000001e-15,3.29216,1,1.505,2,2.0
1774389182466,0.0562787,0.984316,-0.284705,1.2188e-16,-9.825630000000003e-15,5.958490000000001e-15,3.26465,1,1.518,2,2.0
1774389182480,0.0563586,0.983934,-0.285098,-1.0761400000000006e-16,-9.762620000000001e-15,6.009630000000001e-15,3.6288,1,1.532,2,2.0
1774389182493,0.0565845,0.98391,-0.284898,-2.4288e-16,-9.647480000000001e-15,5.899470000000002e-15,3.27024,1,1.545,2,2.0
1774389182507,0.0564054,0.983675,-0.285101,-3.9624900000000006e-16,-9.6544e-15,5.756960000000001e-15,3.24796,1,1.559,2,2.0
1774389182520,0.0563196,0.984079,-0.285307,-5.795530000000002e-16,-9.532490000000004e-15,5.789430000000001e-15,3.31076,1,1.572,2,2.0
1774389182533,0.0559919,0.984295,-0.285204,-7.568560000000003e-16,-9.528740000000003e-15,5.86718e-15,3.27591,1,1.585,2,2.0
1774389182547,0.0560417,0.984608,-0.284636,-8.42858e-16,-9.456690000000003e-15,5.859220000000002e-15,3.29372,1,1.599,2,2.0
1774389182560,0.0559611,0.984555,-0.284285,-9.19754e-16,-9.38012e-15,5.83029e-15,3.26085,1,1.612,2,2.0
1774389182574,0.055852,0.984729,-0.284547,-9.538000000000004e-16,-9.34638e-15,5.892910000000002e-15,3.32657,1,1.626,2,2.0
1774389182587,0.056068,0.984596,-0.284606,-9.51682e-16,-9.40873e-15,5.8364000000000015e-15,3.26959,1,1.639,2,2.0
1774389182601,0.0559649,0.984469,-0.284641,-1.0181900000000003e-15,-9.403360000000002e-15,5.88154e-15,3.63541,1,1.653,2,2.0
1774389182614,0.0569768,0.984881,-0.284428,-8.968510000000002e-16,-9.406860000000003e-15,5.898460000000001e-15,3.28355,1,1.666,2,2.0
1774389182628,0.0568126,0.984763,-0.284588,-9.835639999999998e-16,-9.32452e-15,5.888750000000001e-15,3.2654,1,1.68,2,2.0
1774389182641,0.0570827,0.984703,-0.28456,-8.47038e-16,-9.469450000000001e-15,5.926670000000001e-15,3.31098,1,1.693,2,2.0
1774389182655,0.05701,0.984913,-0.284436,-7.224520000000001e-16,-9.434979999999999e-15,6.0866400000000014e-15,3.26665,1,1.707,2,2.0
1774389182668,0.057154,0.984868,-0.284137,-7.632830000000001e-16,-9.41101e-15,6.1777000000000025e-15,3.3102,1,1.72,2,2.0
1774389182681,0.0574625,0.984857,-0.284043,-6.90496e-16,-9.379820000000001e-15,6.12234e-15,3.27224,1,1.733,2,2.0
1774389182695,0.0574159,0.984889,-0.284038,-5.361540000000001e-16,-9.406050000000004e-15,6.262780000000001e-15,3.72539,1,1.747,2,2.0
1774389182709,0.0579906,0.985091,-0.284066,-3.776240000000001e-16,-9.443640000000001e-15,6.271160000000001e-15,3.27446,1,1.761,2,2.0
1774389182722,0.0578141,0.985049,-0.284103,-3.0934099999999993e-16,-9.517670000000001e-15,6.25338e-15,3.26628,1,1.774,2,2.0
1774389182735,0.0576026,0.985361,-0.283743,-6.505090000000001e-17,-9.493340000000002e-15,6.163810000000001e-15,3.30046,5,1.787,2,2.0
1774389182749,0.057646,0.985628,-0.283634,1.14154e-16,-9.556020000000003e-15,6.104950000000002e-15,3.25527,1,1.801,2,2.0
1774389182762,0.0576661,0.985509,-0.283711,1.4200600000000007e-16,-9.640870000000003e-15,6.075080000000002e-15,3.31139,5,1.814,2,2.0
1774389182776,0.0584433,0.985459,-0.283913,2.5821500000000005e-16,-9.763780000000002e-15,6.04689e-15,3.27105,5,1.828,2,2.0
1774389182790,0.0583111,0.985604,-0.283957,2.351670000000001e-16,-9.70852e-15,6.037410000000001e-15,3.86061,1,1.842,2,2.0
1774389182803,0.0575761,0.985582,-0.284244,3.8468700000000014e-16,-9.741999999999998e-15,6.139790000000001e-15,3.27287,5,1.855,2,2.0
1774389182816,0.0571401,0.985935,-0.28406,4.915650000000001e-16,-9.610880000000002e-15,6.04374e-15,3.25063,5,1.868,2,2.0
1774389182830,0.0574386,0.985814,-0.284311,4.768370000000001e-16,-9.67125e-15,6.145770000000002e-15,3.32741,5,1.882,2,2.0
1774389182843,0.0571154,0.985964,-0.284198,5.485730000000001e-16,-9.53982e-15,6.143590000000001e-15,3.2512,5,1.895,2,2.0
1774389182856,0.0572441,0.985959,-0.284229,5.734670000000002e-16,-9.59133e-15,6.128679999999999e-15,3.29157,5,1.908,2,2.0
1774389182870,0.0571537,0.98589,-0.283693,5.884000000000001e-16,-9.712730000000003e-15,6.17456e-15,3.26944,5,1.922,2,2.0
1774389182883,0.0569711,0.986005,-0.283683,6.41033e-16,-9.788790000000002e-15,6.055150000000002e-15,3.31333,5,1.935,2,2.0
1774389182897,0.0570848,0.985859,-0.28395,6.735850000000001e-16,-9.860590000000001e-15,6.028080000000001e-15,3.271,5,1.949,2,2.0
1774389182911,0.0569479,0.985677,-0.283875,7.556940000000001e-16,-9.889810000000004e-15,6.011090000000001e-15,3.60658,1,1.963,2,2.0
1774389182924,0.0569878,0.985395,-0.283738,6.876150000000001e-16,-9.955940000000001e-15,5.9179800000000016e-15,3.28642,5,1.976,2,2.0
1774389182937,0.0570474,0.985415,-0.283726,7.132730000000002e-16,-9.88562e-15,5.9200100000000005e-15,3.27157,1,1.989,2,2.0
1774389182951,0.057051,0.985444,-0.283991,7.631830000000003e-16,-9.904880000000002e-15,5.896240000000001e-15,3.29805,1,2.003,2,2.0
1774389182964,0.0571398,0.985472,-0.284031,8.53112e-16,-9.931630000000003e-15,5.9251800000000006e-15,3.25707,5,2.016,2,2.0
1774389182978,0.0574703,0.985456,-0.284038,9.251509999999999e-16,-9.89264e-15,5.883990000000001e-15,3.30604,5,2.03,2,2.0
1774389182991,0.0572098,0.985377,-0.28413,8.775390000000001e-16,-9.962890000000004e-15,5.96072e-15,3.26944,5,2.043,2,2.0
1774389183005,0.0571849,0.98592,-0.284036,9.910260000000004e-16,-1.0012100000000002e-14,5.806210000000001e-15,3.71689,5,2.057,2,2.0
1774389183018,0.0562215,0.985949,-0.284117,8.926180000000003e-16,-1.00585e-14,5.9600900000000025e-15,3.27944,5,2.07,2,2.0
1774389183031,0.0556099,0.986232,-0.28365,1.0823300000000002e-15,-1.0158000000000001e-14,5.921220000000002e-15,3.2832,5,2.083,2,2.0
1774389183045,0.0553987,0.986087,-0.283651,8.888850000000002e-16,-1.0020700000000003e-14,6.085780000000001e-15,3.29504,1,2.097,2,2.0
1774389183058,0.0544494,0.985361,-0.28344,7.576700000000001e-16,-9.891050000000001e-15,6.275370000000002e-15,3.2522,5,2.11,2,2.0
1774389183072,0.054588,0.985713,-0.283141,6.85198e-16,-9.8886e-15,6.257350000000001e-15,3.29972,5,2.124,2,2.0
1774389183085,0.0545069,0.985846,-0.283347,6.68172e-16,-9.899130000000001e-15,6.41162e-15,3.26294,5,2.137,2,2.0
1774389183098,0.0542158,0.985985,-0.283543,4.637000000000001e-16,-9.780610000000001e-15,6.72423e-15,3.3492,5,2.15,2,2.0
1774389183112,0.0539589,0.985434,-0.283603,3.5633500000000005e-16,-9.732970000000002e-15,6.8566000000000026e-15,3.26711,1,2.164,2,2.0
1774389183125,0.05461,0.985975,-0.283917,3.1493800000000006e-16,-9.953480000000001e-15,6.634700000000002e-15,3.25194,5,2.177,2,2.0
1774389183139,0.0549444,0.986268,-0.284184,1.5597100000000006e-16,-9.883300000000002e-15,6.767810000000001e-15,3.28485,1,2.191,2,2.0
1774389183152,0.0549545,0.985694,-0.284013,5.920489999999999e-18,-9.787080000000002e-15,6.773550000000002e-15,3.25277,5,2.204,2,2.0
1774389183165,0.0552311,0.986149,-0.284159,8.26619e-17,-1.0038800000000002e-14,6.590570000000001e-15,3.28744,3,2.217,2,2.0
1774389183179,0.0552607,0.986584,-0.284566,4.8052200000000004e-17,-1.0079400000000002e-14,6.576290000000001e-15,3.27446,1,2.231,2,2.0
1774389183192,0.0549367,0.98621,-0.284549,-6.597160000000002e-17,-1.00065e-14,6.5499600000000004e-15,3.28326,1,2.244,2,2.0
1774389183206,0.0558013,0.986386,-0.284159,-7.08349e-17,-1.0134600000000002e-14,6.5079700000000015e-15,3.27159,3,2.258,2,2.0
1774389183219,0.0561476,0.986308,-0.284331,-3.2606600000000003e-17,-1.0139900000000002e-14,6.314200000000001e-15,3.60295,1,2.271,2,2.0
1774389183233,0.0560411,0.985957,-0.284356,5.914150000000001e-17,-1.0192000000000002e-14,6.229780000000001e-15,3.3973,3,2.285,2,2.0
1774389183246,0.0566011,0.985824,-0.284199,1.07206e-16,-1.0288299999999998e-14,6.184350000000001e-15,3.25435,3,2.298,2,2.0
1774389183260,0.0573716,0.985974,-0.283664,1.9837600000000006e-17,-1.0297800000000001e-14,6.004450000000001e-15,3.28829,3,2.312,2,2.0
1774389183273,0.0578841,0.985658,-0.283922,9.579839999999998e-17,-1.0435200000000002e-14,5.821790000000001e-15,3.27024,1,2.325,2,2.0
1774389183286,0.0585344,0.985656,-0.28341,1.3324300000000002e-16,-1.0513600000000003e-14,5.95339e-15,3.30881,3,2.338,2,2.0
1774389183300,0.0589214,0.985429,-0.283465,1.1720600000000002e-16,-1.0493300000000002e-14,5.872080000000001e-15,3.27616,1,2.352,2,2.0
1774389183314,0.0594943,0.985799,-0.283325,2.904700000000001e-16,-1.0585500000000001e-14,5.83387e-15,3.71482,1,2.366,2,2.0
1774389183327,0.0589958,0.98578,-0.283149,2.87022e-16,-1.05313e-14,5.754980000000001e-15,3.27268,1,2.379,2,2.0
1774389183340,0.0579105,0.986156,-0.283621,4.678880000000002e-16,-1.0582800000000003e-14,5.75759e-15,3.26778,5,2.392,2,2.0
1774389183354,0.0583568,0.986687,-0.283689,4.373610000000001e-16,-1.07771e-14,5.725800000000001e-15,3.28885,5,2.406,2,2.0
1774389183367,0.0574596,0.985518,-0.283731,2.6296300000000004e-16,-1.0789200000000001e-14,5.652970000000002e-15,3.24959,5,2.419,2,2.0
1774389183381,0.057221,0.985799,-0.283719,5.522250000000001e-16,-1.07492e-14,5.6270500000000006e-15,3.29822,1,2.433,2,2.0
1774389183394,0.0576013,0.986676,-0.283857,7.31061e-16,-1.0857000000000003e-14,5.3799300000000014e-15,3.27174,5,2.446,2,2.0
1774389183407,0.0575806,0.985828,-0.283753,4.41706e-16,-1.0804700000000001e-14,5.544880000000002e-15,3.35059,5,2.459,2,2.0
1774389183421,0.0571658,0.985177,-0.284231,6.43868e-16,-1.07767e-14,5.4008400000000004e-15,3.26978,1,2.473,2,2.0
1774389183434,0.0573671,0.986402,-0.283983,9.974020000000002e-16,-1.0818700000000004e-14,5.4233200000000015e-15,3.26991,5,2.486,2,2.0
1774389183448,0.0578798,0.986217,-0.284056,5.860610000000001e-16,-1.09655e-14,5.538740000000001e-15,3.29218,3,2.5,2,2.0
1774389183461,0.0575053,0.984994,-0.283858,4.58986e-16,-1.1074000000000001e-14,5.53635e-15,3.25779,5,2.513,2,2.0
1774389183474,0.0577238,0.985693,-0.284129,6.216420000000002e-16,-1.1167900000000002e-14,5.645420000000001e-15,3.28924,3,2.526,2,2.0
1774389183488,0.0577191,0.986127,-0.284056,3.8980699999999997e-16,-1.10425e-14,5.996730000000001e-15,3.28072,1,2.54,2,2.0
1774389183501,0.0578001,0.985698,-0.284136,2.09513e-16,-1.1056800000000002e-14,6.09283e-15,3.32368,5,2.553,2,2.0
1774389183515,0.0579949,0.985555,-0.283658,1.7207e-16,-1.1036100000000004e-14,6.149280000000001e-15,3.27446,5,2.567,2,2.0
1774389183528,0.0580745,0.985567,-0.283584,1.4100900000000003e-16,-1.0948000000000002e-14,6.360990000000002e-15,3.61746,1,2.58,2,2.0
1774389183542,0.0583428,0.985793,-0.283856,4.3180000000000006e-17,-1.10233e-14,6.2825100000000004e-15,3.28437,5,2.594,2,2.0
1774389183555,0.05861,0.985752,-0.283828,-2.03308e-16,-1.10387e-14,6.29835e-15,3.25026,5,2.607,2,2.0
1774389183569,0.05657,0.985062,-0.284142,-4.2039e-17,-1.0963300000000002e-14,6.368960000000001e-15,3.30002,5,2.621,2,2.0
1774389183582,0.0559752,0.98674,-0.284058,2.42922e-16,-1.0802200000000002e-14,6.478440000000002e-15,3.2549,5,2.634,2,2.0
1774389183596,0.0561644,0.987309,-0.283551,6.658510000000001e-17,-1.0988400000000002e-14,6.359110000000002e-15,3.30196,5,2.648,2,2.0
1774389183609,0.0582139,0.985601,-0.283707,-6.607850000000001e-16,-1.1284099999999999e-14,6.212230000000001e-15,3.26802,3,2.661,2,2.0
1774389183623,0.0586576,0.984693,-0.283866,-7.521760000000003e-16,-1.1130700000000002e-14,6.339050000000002e-15,3.83669,3,2.675,2,2.0
1774389183636,0.0578754,0.985555,-0.284915,-2.6895200000000005e-16,-1.10972e-14,6.3774100000000004e-15,3.27426,5,2.688,2,2.0
1774389183650,0.0582698,0.987105,-0.284285,-5.193420000000001e-16,-1.1147e-14,6.7047900000000014e-15,3.26822,3,2.702,2,2.0
1774389183663,0.0546858,0.985031,-0.284249,-9.4837e-16,-1.07487e-14,7.099430000000001e-15,3.29324,5,2.715,2,2.0
1774389183677,0.0545685,0.985472,-0.284299,-7.281809999999999e-16,-1.0766700000000002e-14,7.219310000000001e-15,3.2555,3,2.729,2,2.0
1774389183690,0.0551823,0.984987,-0.283963,-8.971470000000001e-16,-1.0445300000000003e-14,7.537999999999999e-15,3.28803,5,2.742,2,2.0
1774389183703,0.0561643,0.986198,-0.283385,-7.61186e-16,-1.0403200000000001e-14,7.539079999999999e-15,3.2682,5,2.755,2,2.0
1774389183717,0.0570179,0.98645,-0.283922,-1.32651e-15,-1.0838800000000001e-14,7.22752e-15,3.32359,3,2.769,2,2.0
1774389183730,0.057343,0.984288,-0.283954,-1.7188300000000006e-15,-1.0663300000000001e-14,7.66992e-15,3.27789,3,2.782,2,2.0
1774389183744,0.0586683,0.985199,-0.283292,-1.44686e-15,-1.0694600000000001e-14,7.59938e-15,3.66396,3,2.796,2,2.0
1774389183757,0.0612061,0.984565,-0.283512,-1.5583900000000003e-15,-1.0677000000000002e-14,7.280160000000001e-15,3.28274,5,2.809,2,2.0
1774389183771,0.0606221,0.984525,-0.283317,-1.65081e-15,-1.0591900000000001e-14,7.359930000000001e-15,3.25305,3,2.823,2,2.0
1774389183784,0.0586756,0.984123,-0.282586,-1.49398e-15,-1.0460300000000002e-14,7.59793e-15,3.29915,5,2.836,2,2.0
1774389183798,0.0578926,0.985917,-0.282047,-1.4401600000000001e-15,-1.05929e-14,7.488600000000001e-15,3.2664,5,2.85,2,2.0
1774389183811,0.0598665,0.985241,-0.28182,-1.8774800000000003e-15,-1.0748000000000002e-14,7.351150000000001e-15,3.29907,3,2.863,2,2.0
1774389183825,0.0594478,0.984093,-0.281977,-1.8535200000000006e-15,-1.0787399999999999e-14,7.264230000000001e-15,3.26533,5,2.877,2,2.0
1774389183838,0.0595493,0.984265,-0.282041,-1.3684700000000003e-15,-1.0494900000000001e-14,7.259260000000001e-15,3.72778,3,2.89,2,2.0
1774389183852,0.0600306,0.986128,-0.281964,-1.05192e-15,-1.0497100000000002e-14,7.0490299999999985e-15,3.28642,3,2.904,2,2.0
1774389183865,0.0607045,0.985678,-0.281516,-1.24983e-15,-1.0409300000000001e-14,7.231690000000001e-15,3.25498,5,2.917,2,2.0
1774389183879,0.0614023,0.985012,-0.280853,-1.2867700000000006e-15,-1.04291e-14,7.014450000000001e-15,3.28313,3,2.931,2,2.0
1774389183892,0.0616852,0.984813,-0.280433,-1.00906e-15,-1.0683400000000003e-14,6.933570000000002e-15,3.25583,3,2.944,2,2.0
1774389183905,0.060824,0.985787,-0.280735,-7.726250000000001e-16,-1.0486600000000001e-14,7.024220000000001e-15,3.29387,5,2.957,2,2.0
1774389183919,0.0599363,0.985736,-0.280534,-7.54977e-16,-1.02923e-14,7.045550000000001e-15,3.26596,3,2.971,2,2.0
1774389183933,0.0591089,0.986029,-0.280426,-5.542000000000001e-16,-1.06399e-14,6.680320000000001e-15,3.62311,3,2.985,2,2.0
1774389183946,0.0593746,0.986287,-0.280046,-6.04469e-16,-1.0544100000000002e-14,6.55395e-15,3.33041,3,2.998,2,2.0
1774389183959,0.0605149,0.985478,-0.280248,-6.647640000000001e-16,-1.08732e-14,6.199170000000002e-15,3.2465,5,3.011,2,2.0
1774389183973,0.0607833,0.985013,-0.27964,-4.262280000000001e-16,-1.08799e-14,6.35242e-15,3.29948,5,3.025,2,2.0
1774389183986,0.060175,0.985797,-0.279519,-2.0107200000000002e-16,-1.1211600000000003e-14,6.107430000000002e-15,3.25674,3,3.038,2,2.0
1774389184000,0.060896,0.986119,-0.279605,-1.8123000000000001e-16,-1.1285000000000003e-14,5.923280000000001e-15,3.31555,3,3.052,2,2.0
1774389184013,0.0611263,0.985477,-0.278994,-2.6954700000000006e-16,-1.10802e-14,6.0235000000000025e-15,3.25791,3,3.065,2,2.0
1774389184026,0.061197,0.985279,-0.27874,-1.0884400000000002e-16,-1.1118000000000001e-14,5.77554e-15,3.30444,5,3.078,2,2.0
1774389184040,0.061649,0.985688,-0.278487,1.7986400000000002e-16,-1.1046800000000001e-14,5.699930000000001e-15,3.27396,5,3.092,2,2.0
1774389184054,0.0619532,0.985716,-0.278447,1.9546600000000005e-16,-1.1048000000000003e-14,5.6157100000000015e-15,3.73719,3,3.106,2,2.0
1774389184067,0.0620198,0.98554,-0.278463,1.5881100000000003e-16,-1.08865e-14,5.677510000000001e-15,3.26907,3,3.119,2,2.0
1774389184081,0.0621476,0.985959,-0.278468,9.852040000000002e-17,-1.0768200000000003e-14,5.603110000000001e-15,3.25385,3,3.133,2,2.0
1774389184094,0.0621203,0.98574,-0.278963,-4.4025500000000007e-17,-1.07765e-14,5.764110000000001e-15,3.31578,5,3.146,2,2.0
1774389184107,0.0613468,0.985712,-0.279138,-2.1711200000000003e-16,-1.0647300000000002e-14,6.08735e-15,3.26324,3,3.159,2,2.0
1774389184121,0.0610769,0.985633,-0.279369,-5.34638e-16,-1.0452600000000001e-14,6.53376e-15,3.32531,5,3.173,2,2.0
1774389184134,0.060317,0.985866,-0.279494,-8.257880000000001e-16,-1.0380100000000002e-14,6.950840000000002e-15,3.27318,1,3.186,2,2.0
1774389184148,0.0601349,0.985672,-0.2794,-1.4131800000000004e-15,-1.0200300000000003e-14,7.558629999999999e-15,3.97497,5,3.2,2,2.0
1774389184162,0.0599287,0.985402,-0.279406,-2.05755e-15,-1.01934e-14,8.47059e-15,3.26652,5,3.214,2,2.0
1774389184175,0.0597529,0.985667,-0.279903,-2.78566e-15,-9.994140000000001e-15,9.365650000000001e-15,3.24583,5,3.227,2,2.0
1774389184189,0.0589014,0.985909,-0.280218,-3.781230000000001e-15,-9.724709999999998e-15,1.0398900000000004e-14,3.25944,5,3.241,2,2.0
1774389184202,0.0589841,0.986045,-0.279986,-5.0463700000000016e-15,-9.316249999999998e-15,1.1408500000000002e-14,3.24113,5,3.254,2,2.0
1774389184215,0.0589777,0.985823,-0.279924,-6.476060000000001e-15,-8.729450000000002e-15,1.2374200000000003e-14,3.33955,5,3.267,2,2.0
1774389184229,0.059057,0.985439,-0.280152,-7.98826e-15,-7.91009e-15,1.3401400000000002e-14,3.27409,5,3.281,3,3.0
1774389184242,0.0593143,0.986268,-0.279784,-9.278610000000002e-15,-6.9311600000000004e-15,1.4075600000000002e-14,3.28398,5,3.294,3,3.0
1774389184256,0.0602544,0.987648,-0.279047,-1.0256800000000002e-14,-6.662270000000002e-15,1.36543e-14,3.28363,5,3.308,3,3.0
1774389184269,0.0617833,0.989651,-0.277585,-1.02981e-14,-6.33566e-15,1.1697999999999999e-14,3.64202,5,3.321,3,3.0
1774389184283,0.0652099,0.99383,-0.27546,-8.26459e-15,-6.399900000000001e-15,7.085410000000001e-15,3.28739,5,3.335,3,3.0
1774389184296,0.0749034,1.01477,-0.269574,-5.5115200000000004e-17,-1.0489800000000001e-14,-3.2116899999999995e-15,3.26276,5,3.348,3,3.0
1774389184310,0.0848244,1.02372,-0.266188,1.6612999999999998e-14,-1.9171600000000004e-14,-2.1807500000000012e-14,3.31185,3,3.362,3,3.0
1774389184323,0.0900727,1.04916,-0.263793,4.5602800000000003e-14,-3.08262e-14,-3.7433400000000004e-14,3.26346,3,3.375,3,3.0
1774389184337,0.102192,1.05899,-0.252929,7.99802e-14,-4.781310000000001e-14,-4.526330000000001e-14,3.30641,3,3.389,3,3.0
1774389184350,0.103776,1.06867,-0.227027,1.0706000000000001e-13,-6.581260000000001e-14,-4.2553099999999996e-14,3.31039,3,3.402,4,4.0
1774389184364,0.0966541,1.06092,-0.191859,1.289e-13,-7.944970000000001e-14,-3.95882e-14,3.73098,3,3.416,4,4.0
1774389184377,0.0836721,1.04595,-0.148672,1.3893800000000004e-13,-8.425480000000001e-14,-3.885770000000001e-14,3.2757,2,3.429,4,4.0
1774389184391,0.0707454,1.02968,-0.100701,1.3687400000000001e-13,-8.029520000000001e-14,-3.9525500000000005e-14,3.25257,3,3.443,4,4.0
1774389184404,0.0619074,1.01749,-0.0540062,1.2342800000000002e-13,-7.022480000000001e-14,-3.68117e-14,3.29191,3,3.456,4,4.0
1774389184418,0.0549933,1.0032,-0.0160262,9.733950000000002e-14,-5.692560000000001e-14,-2.7587600000000002e-14,3.26466,3,3.47,4,4.0
1774389184431,0.0553643,0.992733,0.0148902,5.71878e-14,-4.465070000000001e-14,-1.45947e-14,3.30909,3,3.483,4,4.0
1774389184444,0.0601179,0.990296,0.0364683,6.4427600000000006e-15,-3.535080000000001e-14,-4.158970000000001e-15,3.27476,3,3.496,5,5.0
1774389184458,0.0666389,0.993849,0.0485826,-4.727070000000001e-14,-3.05461e-14,1.66215e-15,3.67878,3,3.51,5,5.0
1774389184472,0.0725651,1.00052,0.0530456,-1.01542e-13,-2.9265200000000004e-14,6.330340000000001e-15,3.26987,3,3.524,5,5.0
1774389184485,0.0774207,1.00808,0.0511742,-1.5568099999999997e-13,-2.99701e-14,1.1837100000000005e-14,3.25202,3,3.537,5,5.0
1774389184498,0.0814233,1.01693,0.0449111,-2.0835100000000004e-13,-3.1419100000000004e-14,1.6735300000000004e-14,3.29615,3,3.55,5,5.0
1774389184512,0.0857206,1.02795,0.0357614,-2.55976e-13,-3.333910000000001e-14,2.0596500000000004e-14,3.27137,5,3.564,5,5.0
1774389184525,0.0892108,1.03786,0.0250047,-2.9828000000000007e-13,-3.6003500000000005e-14,2.6056700000000005e-14,3.2945,5,3.577,5,5.0
1774389184539,0.0913845,1.04628,0.0144301,-3.34858e-13,-3.91179e-14,3.4225e-14,3.27137,5,3.591,5,5.0
1774389184552,0.0914559,1.05123,0.00460623,-3.68022e-13,-4.172370000000001e-14,4.3677900000000015e-14,3.49174,5,3.604,5,5.0
1774389184566,0.0887269,1.05274,-0.00335731,-4.008120000000001e-13,-4.2744600000000014e-14,5.0099900000000014e-14,3.27811,1,3.618,5,5.0
1774389184580,0.0848146,1.05309,-0.00817524,-4.33223e-13,-4.16829e-14,5.2034000000000006e-14,3.62208,1,3.632,5,5.0
1774389184593,0.08102,1.05365,-0.0100492,-4.663980000000001e-13,-3.91178e-14,5.2973300000000006e-14,3.28016,5,3.645,5,5.0
1774389184606,0.080445,1.05539,-0.0104212,-4.97635e-13,-3.681660000000001e-14,5.3346e-14,3.26463,3,3.658,5,5.0
1774389184620,0.0806531,1.05658,-0.010606,-5.26302e-13,-3.5770500000000006e-14,5.497810000000002e-14,3.30702,3,3.672,1,1.0
1774389184633,0.0801262,1.0523,-0.0112312,-5.557290000000001e-13,-3.5690900000000006e-14,5.74393e-14,3.26209,3,3.685,1,1.0
1774389184647,0.0806259,1.04391,-0.0109429,-5.91003e-13,-3.6275200000000004e-14,5.6593800000000005e-14,3.31137,3,3.699,1,1.0
1774389184660,0.0823743,1.04445,-0.0111797,-6.266490000000001e-13,-3.7854300000000006e-14,5.321380000000001e-14,3.27718,3,3.712,1,1.0
1774389184675,0.0859894,1.04569,-0.0137764,-6.57705e-13,-4.164420000000001e-14,5.1984400000000006e-14,4.56423,3,3.727,1,1.0
1774389184688,0.0911548,1.04765,-0.0188754,-6.833020000000004e-13,-4.77264e-14,5.4108300000000006e-14,3.27559,3,3.74,1,1.0
1774389184702,0.0945034,1.05042,-0.0264633,-7.033870000000002e-13,-5.502610000000001e-14,5.76501e-14,3.24431,3,3.754,1,1.0
1774389184716,0.0964777,1.05438,-0.0357267,-7.14446e-13,-6.250290000000001e-14,6.000420000000002e-14,4.73707,3,3.768,1,1.0
1774389184730,0.096273,1.05208,-0.0465815,-7.219980000000002e-13,-6.893520000000001e-14,6.293710000000001e-14,3.23565,3,3.782,1,1.0
1774389184745,0.0960239,1.05372,-0.0576342,-7.229390000000001e-13,-7.358080000000001e-14,6.64676e-14,4.8405,3,3.797,1,1.0
1774389184758,0.0942802,1.05401,-0.0695702,-7.170360000000001e-13,-7.60946e-14,7.04723e-14,3.27578,3,3.81,1,1.0
1774389184772,0.08973,1.05196,-0.0830342,-7.061300000000001e-13,-7.535880000000001e-14,7.468060000000001e-14,3.28409,3,3.824,1,1.0
1774389184785,0.0844392,1.05175,-0.0964326,-6.894930000000001e-13,-7.08278e-14,7.73682e-14,3.28048,3,3.837,1,1.0
1774389184799,0.0785577,1.04949,-0.111829,-6.671750000000002e-13,-6.227750000000002e-14,7.915580000000002e-14,3.96597,3,3.851,1,1.0
1774389184813,0.0729868,1.04799,-0.127139,-6.401090000000002e-13,-5.0708600000000005e-14,7.99182e-14,3.27466,3,3.865,1,1.0
1774389184826,0.0688767,1.04568,-0.142538,-6.08045e-13,-3.68813e-14,7.968300000000002e-14,3.24039,3,3.878,1,1.0
1774389184839,0.0667721,1.04264,-0.157562,-5.722250000000001e-13,-2.2031200000000003e-14,7.909280000000001e-14,3.2798,5,3.891,1,1.0
1774389184853,0.0637559,1.03864,-0.172014,-5.345400000000001e-13,-6.46828e-15,7.88953e-14,3.24035,5,3.905,1,1.0
1774389184868,0.0608609,1.0373,-0.185173,-4.924770000000001e-13,1.0298400000000002e-14,7.593000000000001e-14,4.88576,5,3.92,2,2.0
1774389184881,0.0576655,1.03563,-0.198279,-4.4738300000000007e-13,2.7922900000000007e-14,7.239030000000002e-14,3.24072,5,3.933,2,2.0
1774389184894,0.0552183,1.0367,-0.210801,-3.99265e-13,4.63958e-14,6.90962e-14,3.30622,5,3.946,2,2.0
1774389184908,0.0112811,1.14711,-0.0266576,-3.6748700000000007e-13,7.949120000000003e-14,4.798160000000001e-14,3.27476,5,3.96,2,2.0
1774389184922,-0.0106301,0.922011,0.0503888,-2.5408600000000004e-13,9.830430000000002e-14,3.06719e-14,4.00812,5,3.974,2,2.0
1774389184935,-0.0131868,1.05661,0.0738845,-9.952999999999998e-14,1.1718400000000002e-13,9.036530000000002e-15,3.27974,5,3.987,2,2.0
1774389184949,-0.0391849,1.01854,0.0614178,1.4366900000000002e-14,1.3346700000000002e-13,7.442050000000001e-15,3.24876,5,4.001,2,2.0
1774389184963,-0.0405141,1.01312,0.0570022,1.4021900000000004e-13,1.5875400000000004e-13,2.6567e-14,3.30361,5,4.015,2,2.0
1774389184976,-0.0289837,1.01795,0.050025,2.4560399999999997e-13,1.6551700000000007e-13,3.781540000000001e-14,3.23633,5,4.028,2,2.0
1774389184991,-0.0201249,1.01871,0.0415059,3.315740000000001e-13,1.5998300000000003e-13,4.756780000000001e-14,4.87402,5,4.043,3,3.0
1774389185004,-0.0189031,1.00974,0.0289605,3.9767500000000007e-13,1.4856000000000003e-13,5.914540000000001e-14,3.24181,5,4.056,3,3.0
1774389185018,-0.0185569,1.00518,0.0161416,4.42354e-13,1.4178200000000002e-13,7.385870000000001e-14,3.29187,5,4.07,3,3.0
1774389185031,-0.0151188,0.998523,0.00337079,4.72177e-13,1.4116300000000002e-13,8.25057e-14,3.27574,2,4.083,3,3.0
1774389185045,-0.00863874,0.995332,-0.00688764,4.93208e-13,1.41967e-13,8.017709999999998e-14,4.14743,5,4.097,3,3.0
1774389185059,-0.00188684,0.992215,-0.0180321,5.028850000000001e-13,1.4372400000000003e-13,7.547860000000003e-14,3.30909,5,4.111,3,3.0
1774389185072,0.0051143,0.989171,-0.0292656,5.06624e-13,1.4149400000000005e-13,7.149740000000001e-14,3.25,5,4.124,3,3.0
1774389185086,0.0103999,0.986495,-0.0402108,5.040850000000002e-13,1.35728e-13,6.90541e-14,3.92258,5,4.138,3,3.0
1774389185099,0.0140877,0.98447,-0.0496844,4.964660000000001e-13,1.2944200000000005e-13,6.714180000000001e-14,3.25848,5,4.151,3,3.0
1774389185113,0.0181054,0.983836,-0.0579856,4.871330000000001e-13,1.2251100000000002e-13,6.602610000000002e-14,3.31413,5,4.165,3,3.0
1774389185126,0.0219687,0.983592,-0.065486,4.765120000000001e-13,1.15215e-13,6.588080000000001e-14,3.27366,5,4.178,3,3.0
1774389185140,0.0264532,0.982602,-0.0728399,4.630910000000001e-13,1.0784100000000002e-13,6.444620000000001e-14,3.66198,5,4.192,3,3.0
1774389185153,0.02914,0.983096,-0.0805022,4.499090000000001e-13,1.0224100000000004e-13,6.189320000000001e-14,3.27468,5,4.205,3,3.0
1774389185167,0.0339515,0.981742,-0.0890145,4.35005e-13,9.658330000000002e-14,5.75479e-14,3.27055,5,4.219,3,3.0
1774389185180,0.0390009,0.980693,-0.0964498,4.191380000000002e-13,9.02665e-14,5.1905e-14,3.29507,5,4.232,3,3.0
1774389185194,0.0418117,0.980919,-0.103293,4.0371199999999995e-13,8.585840000000001e-14,4.39366e-14,3.24966,5,4.246,3,3.0
1774389185207,0.0448304,0.980408,-0.11115,3.88783e-13,8.274229999999999e-14,3.3837500000000006e-14,3.29724,5,4.259,3,3.0
1774389185221,0.0470552,0.980613,-0.117682,3.744720000000001e-13,8.035760000000003e-14,2.3307300000000007e-14,3.27402,5,4.273,3,3.0
1774389185234,0.0507843,0.981568,-0.123767,3.609990000000001e-13,7.895450000000002e-14,1.1547900000000001e-14,3.32324,5,4.286,3,3.0
1774389185247,0.0535388,0.982374,-0.130345,3.4923200000000006e-13,7.751450000000001e-14,-7.251380000000002e-16,3.27398,5,4.299,3,3.0
1774389185261,0.0547421,0.981767,-0.136784,3.3792000000000004e-13,7.572280000000002e-14,-1.0691200000000001e-14,3.73267,5,4.313,3,3.0
1774389185275,0.0552629,0.980985,-0.145301,3.252640000000001e-13,7.37875e-14,-1.74178e-14,3.28339,5,4.327,3,3.0
1774389185288,0.0542554,0.982361,-0.153873,3.1139900000000004e-13,7.16825e-14,-1.8778600000000006e-14,3.25459,5,4.34,3,3.0
1774389185301,0.0526087,0.982246,-0.160405,2.96279e-13,6.948140000000001e-14,-1.7828100000000003e-14,3.31096,5,4.353,3,3.0
1774389185315,0.0513437,0.982894,-0.166682,2.8221600000000005e-13,6.739099999999999e-14,-1.5145300000000004e-14,3.26978,5,4.367,3,3.0
1774389185328,0.0539029,0.985671,-0.171938,2.6994800000000003e-13,6.483550000000001e-14,-1.2634400000000002e-14,3.30544,5,4.38,3,3.0
1774389185342,0.0547914,0.986938,-0.177242,2.6045e-13,6.205079999999999e-14,-9.35657e-15,3.2752,5,4.394,3,3.0
1774389185356,0.0591003,0.991876,-0.182239,2.5164200000000007e-13,5.83904e-14,-7.65851e-15,3.72334,5,4.408,4,4.0
1774389185369,0.0555868,0.994292,-0.186537,2.455130000000001e-13,5.568890000000001e-14,-8.033910000000001e-15,3.27911,5,4.421,4,4.0
1774389185382,0.054373,1.00124,-0.191352,2.48304e-13,5.3999600000000006e-14,-7.343490000000001e-15,3.25546,5,4.434,4,4.0
1774389185396,0.0559136,1.00768,-0.195945,2.5460700000000005e-13,5.24222e-14,-4.747820000000001e-15,3.30637,5,4.448,4,4.0
1774389185409,0.0570344,1.01058,-0.199313,2.6001e-13,5.0693500000000004e-14,4.039400000000001e-15,3.26216,5,4.461,4,4.0
1774389185423,0.0593127,1.01563,-0.20312,2.6895000000000013e-13,4.9113100000000015e-14,1.4042200000000001e-14,3.30239,5,4.475,4,4.0
1774389185436,0.0618117,1.01687,-0.208235,2.7808200000000006e-13,4.733450000000001e-14,2.3282700000000006e-14,3.27409,5,4.488,4,4.0
1774389185450,0.0642548,1.01776,-0.213553,2.8790900000000006e-13,4.4837800000000006e-14,3.13069e-14,3.64493,5,4.502,4,4.0
1774389185463,0.0652137,1.01545,-0.219332,2.9628200000000007e-13,4.26824e-14,3.8889500000000013e-14,3.27392,5,4.515,4,4.0
1774389185477,0.0684155,1.0155,-0.224613,3.0541000000000006e-13,4.027540000000001e-14,4.55544e-14,3.27581,5,4.529,4,4.0
1774389185490,0.071093,1.01397,-0.230421,3.1446200000000005e-13,3.76309e-14,5.1417300000000016e-14,3.29044,5,4.542,4,4.0
1774389185504,0.073664,1.01341,-0.23574,3.240390000000001e-13,3.448820000000001e-14,5.642470000000001e-14,3.26044,5,4.556,4,4.0
1774389185517,0.0751723,1.01234,-0.241542,3.32646e-13,3.136330000000001e-14,6.086e-14,3.32244,5,4.569,4,4.0
1774389185530,0.0782056,1.01163,-0.247581,3.41913e-13,2.7998300000000004e-14,6.463120000000001e-14,3.27192,5,4.582,4,4.0
1774389185544,0.0795901,1.01026,-0.254189,3.502110000000001e-13,2.4933500000000002e-14,6.799810000000001e-14,3.32513,5,4.596,4,4.0
1774389185557,0.0806471,1.00853,-0.261565,3.58763e-13,2.1903500000000004e-14,7.074380000000002e-14,3.27748,5,4.609,4,4.0
1774389185571,0.0828964,1.00495,-0.268373,3.6636000000000007e-13,1.8872199999999998e-14,7.351520000000003e-14,3.73939,5,4.623,4,4.0
1774389185585,0.0842465,1.00213,-0.275588,3.7293100000000013e-13,1.5754100000000003e-14,7.603280000000002e-14,3.27368,5,4.637,4,4.0
1774389185598,0.0866587,0.999359,-0.282466,3.791550000000001e-13,1.2455400000000004e-14,7.786530000000004e-14,3.26918,5,4.65,4,4.0
1774389185611,0.0893071,0.996867,-0.289833,3.8540300000000007e-13,8.74232e-15,7.911110000000001e-14,3.30116,5,4.663,4,4.0
1774389185625,0.0908253,0.995114,-0.297818,3.915999999999999e-13,4.98488e-15,8.051410000000001e-14,3.2813,5,4.677,4,4.0
1774389185638,0.0917967,0.993288,-0.304717,3.9833100000000005e-13,1.1855800000000004e-15,8.189830000000001e-14,3.30226,5,4.69,4,4.0
1774389185652,0.095288,0.992589,-0.312339,4.0551500000000006e-13,-2.9230000000000008e-15,8.327330000000001e-14,3.27602,5,4.704,4,4.0
1774389185665,0.0947937,0.991055,-0.320417,4.126780000000001e-13,-6.929580000000001e-15,8.524350000000001e-14,3.65934,5,4.717,4,4.0
1774389185679,0.0970863,0.990155,-0.328175,4.211600000000001e-13,-1.1148199999999999e-14,8.769830000000001e-14,3.27598,5,4.731,4,4.0
1774389185692,0.0975383,0.99098,-0.335999,4.306000000000002e-13,-1.58666e-14,9.094460000000002e-14,3.25844,5,4.744,4,4.0
1774389185706,0.0985791,0.992282,-0.342947,4.419220000000001e-13,-2.0500200000000003e-14,9.42657e-14,3.29865,5,4.758,4,4.0
1774389185719,0.0997452,0.993869,-0.350178,4.55542e-13,-2.5623200000000003e-14,9.820560000000001e-14,3.25859,5,4.771,4,4.0
1774389185732,0.0994403,0.995354,-0.358204,4.71357e-13,-3.05403e-14,1.0319200000000002e-13,3.30026,5,4.784,4,4.0
1774389185746,0.0975472,0.996294,-0.36653,4.88841e-13,-3.46034e-14,1.0915300000000001e-13,3.27729,5,4.798,4,4.0
1774389185759,0.0967299,0.998474,-0.373979,5.092320000000001e-13,-3.75223e-14,1.1620600000000003e-13,3.29385,5,4.811,4,4.0
1774389185773,0.0971655,1.0009,-0.38138,5.315230000000001e-13,-4.0406000000000015e-14,1.2458400000000002e-13,3.28187,5,4.825,4,4.0
1774389185787,0.099034,1.00591,-0.388842,5.573990000000001e-13,-4.35175e-14,1.3365300000000003e-13,3.62472,1,4.839,4,4.0
1774389185800,0.105316,1.01197,-0.394792,5.873510000000001e-13,-4.8531300000000015e-14,1.42984e-13,3.28359,1,4.852,4,4.0
1774389185813,0.110992,1.0217,-0.401176,6.222210000000002e-13,-5.5665900000000004e-14,1.5221500000000005e-13,3.25991,1,4.865,4,4.0
1774389185827,0.121011,1.03524,-0.405487,6.65065e-13,-6.500790000000003e-14,1.6133500000000001e-13,3.316,5,4.879,4,4.0
1774389185840,0.131435,1.05413,-0.408521,7.15418e-13,-7.897280000000002e-14,1.7087300000000005e-13,3.27072,5,4.892,4,4.0
1774389185854,0.137378,1.08072,-0.411048,7.794110000000001e-13,-9.48391e-14,1.7876700000000001e-13,3.32459,5,4.906,4,4.0
1774389185867,0.143809,1.11082,-0.416283,8.533270000000001e-13,-1.1265800000000003e-13,1.8466400000000003e-13,3.27033,3,4.919,4,4.0
1774389185881,0.144118,1.13848,-0.424023,9.382340000000002e-13,-1.2777e-13,1.86393e-13,3.85447,4,4.933,4,4.0
1774389185895,0.139513,1.16601,-0.439709,1.0259099999999998e-12,-1.3724700000000006e-13,1.85701e-13,3.27476,4,4.947,4,4.0
1774389185908,0.141996,1.18693,-0.456909,1.1086700000000004e-12,-1.4339600000000004e-13,1.8648100000000003e-13,3.25237,4,4.96,4,4.0
1774389185921,0.150157,1.19121,-0.476379,1.1867800000000001e-12,-1.5122500000000002e-13,1.88036e-13,3.30053,4,4.973,4,4.0
1774389185935,0.163578,1.20068,-0.494036,1.2605200000000002e-12,-1.6116700000000007e-13,1.8739300000000004e-13,3.28709,4,4.987,4,4.0
1774389185948,0.175514,1.20178,-0.508732,1.3301200000000004e-12,-1.7345500000000004e-13,1.88948e-13,3.286,4,5.0,4,4.0
1774389185962,0.189032,1.20091,-0.522732,1.3958100000000003e-12,-1.8998200000000008e-13,2.00152e-13,3.26924,4,5.014,4,4.0
1774389185975,0.207479,1.18491,-0.526435,1.4567900000000003e-12,-2.0899000000000005e-13,2.1068600000000005e-13,3.34363,4,5.027,4,4.0
1774389185992,0.229016,1.15085,-0.507139,1.5016500000000002e-12,-2.3421600000000005e-13,2.2646900000000005e-13,6.13942,3,5.044,5,5.0
1774389186005,0.277862,0.991172,-0.393748,1.4795600000000002e-12,-2.8396100000000006e-13,2.65854e-13,3.33826,4,5.057,5,5.0
1774389186018,0.271935,0.891473,-0.383842,1.3161600000000005e-12,-3.581960000000001e-13,3.0380600000000006e-13,3.28068,3,5.07,5,5.0
1774389186033,0.249686,0.853458,-0.34535,1.1369100000000003e-12,-4.1689499999999996e-13,3.1434800000000003e-13,3.29802,4,5.085,5,5.0
1774389186046,0.210932,0.857347,-0.316623,9.492250000000001e-13,-4.51213e-13,2.900360000000001e-13,3.28735,3,5.098,5,5.0
1774389186063,0.171161,0.85388,-0.296605,7.814790000000002e-13,-4.51312e-13,2.520970000000001e-13,3.29146,3,5.115,5,5.0
1774389186080,0.137806,0.844532,-0.276352,6.210580000000001e-13,-4.2871500000000006e-13,2.1610600000000004e-13,6.66435,2,5.132,5,5.0
1774389186093,0.116895,0.835498,-0.258127,4.639350000000001e-13,-3.86329e-13,1.8394500000000003e-13,3.24961,2,5.145,5,5.0
1774389186107,0.105826,0.824349,-0.240176,3.1050499999999995e-13,-3.36098e-13,1.5237600000000002e-13,3.29113,2,5.159,5,5.0
1774389186120,0.103386,0.815481,-0.223726,1.60286e-13,-2.85282e-13,1.20407e-13,3.25427,2,5.172,5,5.0
1774389186135,0.106873,0.81328,-0.209148,1.5080700000000004e-14,-2.3863400000000005e-13,9.295890000000001e-14,4.80774,2,5.187,5,5.0
1774389186149,0.117008,0.807533,-0.196061,-1.2607300000000005e-13,-2.0407500000000002e-13,7.477910000000002e-14,3.24616,2,5.201,5,5.0
1774389186162,0.130436,0.805284,-0.186152,-2.593100000000001e-13,-1.8177800000000002e-13,6.62513e-14,3.29572,2,5.214,5,5.0
1774389186176,0.142242,0.813202,-0.180296,-3.8507200000000004e-13,-1.7156000000000003e-13,6.74892e-14,3.45335,2,5.228,5,5.0
1774389186190,0.147136,0.826603,-0.178978,-5.037810000000001e-13,-1.69533e-13,7.666480000000002e-14,4.14108,2,5.242,5,5.0
1774389186203,0.140606,0.842652,-0.182191,-6.15831e-13,-1.6935800000000003e-13,9.096920000000002e-14,3.28076,3,5.255,5,5.0
1774389186217,0.122733,0.85594,-0.187323,-7.21595e-13,-1.6379700000000003e-13,1.0621000000000002e-13,3.24359,5,5.269,5,5.0
1774389186231,0.0993432,0.870248,-0.191922,-8.214270000000003e-13,-1.4750200000000005e-13,1.1581700000000002e-13,3.29533,5,5.283,5,5.0
1774389186245,0.078994,0.886844,-0.194558,-9.156600000000002e-13,-1.2167700000000003e-13,1.18256e-13,3.24953,5,5.297,5,5.0
1774389186258,0.0676919,0.908823,-0.196919,-1.00461e-12,-9.145100000000001e-14,1.17318e-13,3.27139,5,5.31,5,5.0
1774389186271,0.0671232,0.938349,-0.201098,-1.0885600000000002e-12,-6.235140000000002e-14,1.1861200000000003e-13,3.26179,5,5.323,5,5.0
1774389186285,0.0770854,0.971923,-0.207817,-1.1678100000000003e-12,-3.99153e-14,1.2272300000000002e-13,3.33279,5,5.337,5,5.0
1774389186298,0.0916514,1.00605,-0.217061,-1.2426100000000003e-12,-2.7322800000000008e-14,1.28886e-13,3.276,5,5.35,5,5.0
1774389186311,0.104374,1.03783,-0.228965,-1.3132200000000001e-12,-2.37349e-14,1.37491e-13,3.25181,5,5.363,5,5.0
1774389186325,0.111682,1.07465,-0.242761,-1.3798699999999999e-12,-2.609880000000001e-14,1.4765100000000003e-13,3.27355,5,5.377,5,5.0
1774389186338,0.108987,1.11459,-0.259669,-1.44278e-12,-2.959760000000001e-14,1.5958400000000002e-13,3.25322,5,5.39,5,5.0
1774389186352,0.103697,1.14952,-0.278839,-1.50215e-12,-2.9247600000000005e-14,1.6949000000000004e-13,3.31872,5,5.404,5,5.0
1774389186365,0.108505,1.17988,-0.300896,-1.5582000000000004e-12,-2.6844900000000004e-14,1.70769e-13,3.2672,5,5.417,5,5.0
1774389186379,0.123373,1.20866,-0.32753,-1.6045400000000001e-12,-2.82293e-14,1.7553000000000004e-13,3.73126,5,5.431,5,5.0
1774389186392,0.142673,1.23735,-0.359362,-1.6315700000000007e-12,-3.70808e-14,2.0050799999999998e-13,3.26722,5,5.444,1,1.0
1774389186406,0.159763,1.25925,-0.396454,-1.6367400000000004e-12,-5.541680000000001e-14,2.44223e-13,3.27413,3,5.458,1,1.0
1774389186419,0.156342,1.27185,-0.438853,-1.6229500000000003e-12,-7.778970000000002e-14,2.890440000000001e-13,3.27115,3,5.471,1,1.0
1774389186432,0.132753,1.27765,-0.487011,-1.5920900000000005e-12,-9.305e-14,3.126050000000001e-13,3.24305,1,5.484,1,1.0
1774389186446,0.105091,1.28224,-0.539213,-1.5430600000000003e-12,-9.509270000000003e-14,3.056510000000001e-13,3.3027,1,5.498,1,1.0
1774389186459,0.0820672,1.28514,-0.591405,-1.4746200000000002e-12,-8.615769999999999e-14,2.831030000000001e-13,3.24433,3,5.511,1,1.0
1774389186472,0.0615981,1.28505,-0.641059,-1.3914800000000004e-12,-6.733600000000002e-14,2.6264100000000005e-13,3.29424,1,5.524,1,1.0
1774389186486,0.039152,1.28663,-0.683534,-1.2959700000000002e-12,-3.657470000000001e-14,2.39392e-13,3.27711,5,5.538,1,1.0
1774389186499,0.0115163,1.29218,-0.717884,-1.1892400000000003e-12,1.0012599999999999e-14,2.1071700000000007e-13,3.27611,5,5.551,1,1.0
1774389186512,0.0291634,1.4106,-0.647017,-9.82232e-13,4.87584e-14,2.1476100000000003e-13,3.28007,5,5.564,1,1.0
1774389186526,0.0887035,1.18821,-0.550443,-8.433790000000004e-13,7.838150000000001e-14,1.9577000000000006e-13,3.24552,5,5.578,1,1.0
1774389186539,0.0931096,1.31117,-0.504632,-6.557680000000001e-13,9.019600000000004e-14,1.3713100000000004e-13,3.29157,2,5.591,1,1.0
1774389186553,0.0732038,1.22378,-0.489824,-4.786800000000002e-13,1.0980900000000003e-13,9.597220000000004e-14,3.23955,5,5.605,1,1.0
1774389186566,0.0641408,1.23106,-0.470581,-3.1586800000000005e-13,1.3099300000000005e-13,7.12606e-14,3.27391,5,5.618,1,1.0
1774389186580,0.0576736,1.21652,-0.450898,-1.7163800000000002e-13,1.45286e-13,5.3929700000000013e-14,3.70671,5,5.632,1,1.0
1774389186593,0.0515746,1.20983,-0.44224,-5.5079600000000006e-14,1.53099e-13,4.541960000000001e-14,3.304,5,5.645,1,1.0
1774389186606,0.0555545,1.19156,-0.438456,3.48761e-14,1.5189800000000002e-13,4.549670000000001e-14,3.27205,5,5.658,1,1.0
1774389186620,0.0568725,1.17852,-0.433044,1.0000400000000003e-13,1.4694400000000004e-13,5.4278700000000016e-14,3.24628,5,5.672,1,1.0
1774389186633,0.0542145,1.16161,-0.427655,1.46025e-13,1.44123e-13,6.06842e-14,3.30422,5,5.685,1,1.0
1774389186647,0.0563812,1.14866,-0.420259,1.76161e-13,1.44452e-13,6.282959999999999e-14,3.24442,5,5.699,1,1.0
1774389186660,0.0618378,1.13912,-0.411895,1.9848800000000003e-13,1.43201e-13,6.270080000000001e-14,3.27122,5,5.712,2,2.0
1774389186673,0.0663938,1.12942,-0.404153,2.1387200000000002e-13,1.3837500000000003e-13,6.166730000000002e-14,3.26222,5,5.725,2,2.0
1774389186687,0.0678784,1.12134,-0.396878,2.24055e-13,1.3329800000000003e-13,5.981820000000001e-14,3.32183,5,5.739,2,2.0
1774389186700,0.0683372,1.11434,-0.389579,2.29142e-13,1.30219e-13,5.583770000000001e-14,3.26604,5,5.752,2,2.0
1774389186713,0.0695019,1.1077,-0.382012,2.32538e-13,1.2666500000000002e-13,5.1660800000000005e-14,3.25583,5,5.765,2,2.0
1774389186727,0.071235,1.10168,-0.377862,2.333420000000001e-13,1.2206500000000002e-13,4.81251e-14,3.27522,5,5.779,2,2.0
1774389186740,0.074387,1.09577,-0.372611,2.3158800000000003e-13,1.1724400000000003e-13,4.3952600000000016e-14,3.25353,5,5.792,2,2.0
1774389186754,0.0773585,1.08851,-0.369855,2.28004e-13,1.1315500000000001e-13,3.7582200000000004e-14,3.29837,5,5.806,2,2.0
1774389186767,0.0804136,1.08402,-0.366706,2.2299500000000003e-13,1.0964200000000002e-13,2.9894800000000006e-14,3.25331,5,5.819,2,2.0
1774389186780,0.0810716,1.07864,-0.360748,2.16803e-13,1.0635300000000005e-13,2.11786e-14,3.30846,5,5.832,2,2.0
1774389186794,0.0814552,1.07434,-0.35615,2.0958300000000002e-13,1.0400100000000001e-13,1.2009200000000001e-14,3.27996,5,5.846,2,2.0
1774389186807,0.0824413,1.07108,-0.351956,2.0289700000000006e-13,1.0193500000000001e-13,2.7761500000000007e-15,3.286,5,5.859,2,2.0
1774389186821,0.081644,1.06684,-0.34817,1.9595600000000002e-13,1.00281e-13,-5.767740000000001e-15,3.27502,5,5.873,2,2.0
1774389186834,0.0836682,1.06512,-0.344048,1.90629e-13,9.88437e-14,-1.4217800000000003e-14,3.26337,5,5.886,2,2.0
1774389186847,0.0831055,1.06094,-0.339913,1.85383e-13,9.7487e-14,-2.17057e-14,3.30922,5,5.899,2,2.0
1774389186861,0.0822364,1.059,-0.338127,1.79973e-13,9.555980000000002e-14,-2.7458999999999998e-14,3.25415,5,5.913,2,2.0
1774389186874,0.0785972,1.05251,-0.335907,1.7201400000000003e-13,9.284150000000002e-14,-2.8843300000000005e-14,3.29868,5,5.926,2,2.0
1774389186888,0.0763131,1.05259,-0.333442,1.6545300000000006e-13,8.972759999999999e-14,-2.8655500000000003e-14,3.28126,5,5.94,2,2.0
1774389186901,0.0747054,1.0486,-0.330967,1.5753e-13,8.688690000000001e-14,-2.6542900000000005e-14,3.29072,5,5.953,3,3.0
1774389186914,0.0754315,1.04859,-0.327981,1.51956e-13,8.374740000000002e-14,-2.4249100000000008e-14,3.27272,5,5.966,3,3.0
1774389186928,0.0775565,1.04672,-0.324998,1.4807800000000002e-13,8.027440000000002e-14,-2.2828900000000008e-14,3.25309,5,5.98,3,3.0
1774389186941,0.0779124,1.04847,-0.322017,1.4664900000000001e-13,7.678640000000001e-14,-2.1835300000000005e-14,3.29413,5,5.993,3,3.0
1774389186954,0.0794912,1.04832,-0.318718,1.4755200000000003e-13,7.269760000000002e-14,-2.2845600000000005e-14,3.24811,5,6.006,3,3.0
1774389186968,0.0789083,1.04913,-0.316888,1.5219800000000005e-13,6.863700000000001e-14,-2.454010000000001e-14,3.29505,5,6.02,3,3.0
1774389186981,0.0793224,1.04996,-0.315681,1.58639e-13,6.416610000000001e-14,-2.6631900000000004e-14,3.26324,5,6.033,3,3.0
1774389186995,0.0786295,1.04994,-0.314101,1.6691900000000001e-13,6.039560000000001e-14,-2.6662300000000006e-14,3.33,5,6.047,3,3.0
1774389187008,0.0761197,1.04826,-0.313294,1.7554000000000003e-13,5.750030000000002e-14,-2.6451399999999997e-14,3.29804,5,6.06,3,3.0
1774389187021,0.075065,1.04744,-0.312608,1.8436300000000002e-13,5.492580000000002e-14,-2.4526599999999997e-14,3.26705,5,6.073,3,3.0
1774389187035,0.072647,1.04857,-0.312379,1.9419300000000002e-13,5.284250000000001e-14,-2.0932800000000003e-14,3.31561,5,6.087,3,3.0
1774389187048,0.0710822,1.04849,-0.312331,2.02826e-13,5.100030000000002e-14,-1.5515300000000003e-14,3.26911,5,6.1,3,3.0
1774389187062,0.0711873,1.04732,-0.312007,2.1194199999999997e-13,4.944559999999999e-14,-9.14285e-15,3.28981,5,6.114,3,3.0
1774389187075,0.073167,1.04816,-0.311944,2.22302e-13,4.7489900000000007e-14,-3.513180000000001e-15,3.29116,5,6.127,3,3.0
1774389187089,0.0734799,1.04608,-0.312299,2.32458e-13,4.5297100000000005e-14,1.01713e-15,3.33581,5,6.141,3,3.0
1774389187102,0.0742703,1.0446,-0.312991,2.42185e-13,4.292750000000001e-14,4.9165200000000005e-15,3.35079,5,6.154,3,3.0
1774389187116,0.0757948,1.04346,-0.31424,2.518680000000001e-13,4.0207000000000004e-14,8.661410000000003e-15,3.27135,5,6.168,3,3.0
1774389187129,0.0766121,1.04426,-0.315541,2.62151e-13,3.735230000000001e-14,1.2114900000000001e-14,3.29711,5,6.181,3,3.0
1774389187143,0.0771694,1.04371,-0.317811,2.723580000000001e-13,3.46533e-14,1.5486000000000003e-14,3.28854,5,6.195,3,3.0
1774389187156,0.0782789,1.04403,-0.319319,2.8339800000000004e-13,3.14121e-14,1.8235500000000002e-14,3.32763,5,6.208,3,3.0
1774389187169,0.07887,1.04329,-0.321967,2.9505100000000006e-13,2.79588e-14,2.0591e-14,3.2837,5,6.221,3,3.0
1774389187183,0.0788802,1.04233,-0.324917,3.06906e-13,2.4360900000000005e-14,2.3786399999999997e-14,3.32494,5,6.235,3,3.0
1774389187196,0.0781104,1.04357,-0.328207,3.196260000000001e-13,2.0703700000000005e-14,2.7157900000000007e-14,3.29615,5,6.248,3,3.0
1774389187210,0.07841,1.04466,-0.331438,3.3359300000000006e-13,1.6896200000000002e-14,3.08456e-14,3.28479,5,6.262,3,3.0
1774389187223,0.0782054,1.0459,-0.335009,3.4916600000000003e-13,1.2689899999999998e-14,3.457480000000001e-14,3.30116,5,6.275,3,3.0
1774389187236,0.0755326,1.04728,-0.339245,3.6613400000000006e-13,8.950840000000001e-15,3.95592e-14,3.27448,5,6.288,3,3.0
1774389187250,0.0750908,1.04975,-0.342976,3.8442900000000004e-13,5.074660000000001e-15,4.48591e-14,3.32524,5,6.302,4,4.0
1774389187263,0.0748178,1.05265,-0.346811,4.0551699999999996e-13,6.580110000000001e-16,5.0551199999999995e-14,3.2702,5,6.315,4,4.0
1774389187277,0.0740869,1.05542,-0.350446,4.2874500000000006e-13,-3.9562100000000004e-15,5.777380000000003e-14,3.28598,5,6.329,4,4.0
1774389187290,0.0748507,1.05957,-0.354563,4.552180000000001e-13,-9.227930000000001e-15,6.69419e-14,3.31387,5,6.342,4,4.0
1774389187303,0.0753463,1.06512,-0.357912,4.84979e-13,-1.53301e-14,7.72058e-14,3.28826,5,6.355,4,4.0
1774389187317,0.0755745,1.07188,-0.361948,5.191310000000001e-13,-2.2901200000000004e-14,8.8945e-14,3.31768,5,6.369,4,4.0
1774389187330,0.0751522,1.08242,-0.364313,5.580930000000001e-13,-2.9863400000000005e-14,1.0196999999999999e-13,3.27894,5,6.382,4,4.0
1774389187344,0.0845284,1.09483,-0.365261,6.047440000000002e-13,-4.03231e-14,1.1519700000000004e-13,3.29672,5,6.396,4,4.0
1774389187357,0.0925977,1.1088,-0.3659,6.5872e-13,-5.518880000000001e-14,1.2901400000000003e-13,3.29198,5,6.409,4,4.0
1774389187371,0.091858,1.12935,-0.364686,7.215900000000002e-13,-7.206800000000001e-14,1.4585900000000003e-13,3.28409,5,6.423,4,4.0
1774389187384,0.0948449,1.15446,-0.363247,7.97855e-13,-8.886110000000003e-14,1.61159e-13,3.29089,5,6.436,4,4.0
1774389187398,0.0933449,1.18165,-0.361957,8.85094e-13,-1.0614200000000001e-13,1.7262100000000002e-13,3.40633,5,6.45,4,4.0
1774389187411,0.0890599,1.21051,-0.367481,9.757510000000001e-13,-1.17286e-13,1.74169e-13,3.30048,5,6.463,4,4.0
1774389187424,0.0855708,1.23401,-0.378508,1.0613200000000004e-12,-1.21455e-13,1.69285e-13,3.25172,5,6.476,4,4.0
1774389187438,0.101602,1.26358,-0.397231,1.1420900000000002e-12,-1.26391e-13,1.6095400000000002e-13,3.31961,3,6.49,4,4.0
1774389187451,0.125111,1.26867,-0.4212,1.2183400000000002e-12,-1.3660900000000004e-13,1.4754600000000003e-13,3.24824,3,6.503,4,4.0
1774389187465,0.14568,1.27523,-0.434971,1.2902999999999999e-12,-1.5364800000000001e-13,1.34658e-13,3.27672,3,6.517,4,4.0
1774389187478,0.159574,1.27916,-0.44547,1.3582300000000004e-12,-1.7196700000000003e-13,1.33562e-13,3.26772,3,6.53,4,4.0
1774389187491,0.178829,1.27362,-0.448955,1.4223400000000004e-12,-1.92962e-13,1.3657800000000002e-13,3.27668,3,6.543,4,4.0
1774389187505,0.19612,1.25012,-0.439613,1.48278e-12,-2.1884300000000007e-13,1.4446000000000002e-13,3.28113,3,6.557,4,4.0
1774389187518,0.212794,1.1929,-0.40386,1.52498e-12,-2.5028099999999994e-13,1.58995e-13,3.27324,4,6.57,4,4.0
1774389187531,0.277191,0.986444,-0.358481,1.4746900000000003e-12,-3.168690000000001e-13,1.94094e-13,3.27572,3,6.583,5,5.0
1774389187545,0.258897,0.932841,-0.340049,1.3270400000000004e-12,-3.8033900000000015e-13,2.19393e-13,3.2554,3,6.597,5,5.0
1774389187558,0.2374,0.885949,-0.30755,1.1653400000000002e-12,-4.3029399999999996e-13,2.0996800000000002e-13,3.30244,3,6.61,5,5.0
1774389187572,0.199621,0.877847,-0.281918,9.942740000000005e-13,-4.57373e-13,1.80849e-13,3.2557,3,6.624,5,5.0
1774389187585,0.167007,0.87248,-0.260909,8.356650000000003e-13,-4.608390000000001e-13,1.4990400000000003e-13,3.28617,3,6.637,5,5.0
1774389187598,0.140773,0.870241,-0.241534,6.87332e-13,-4.442340000000001e-13,1.25717e-13,3.28148,2,6.65,5,5.0
1774389187612,0.12221,0.857253,-0.226647,5.44484e-13,-4.11446e-13,1.0888900000000002e-13,3.2767,2,6.664,5,5.0
1774389187625,0.108612,0.836291,-0.212934,3.985470000000001e-13,-3.6566000000000003e-13,9.60546e-14,3.27659,2,6.677,5,5.0
1774389187638,0.0986521,0.81442,-0.199137,2.451620000000001e-13,-3.1035900000000003e-13,8.189740000000001e-14,3.24746,2,6.69,5,5.0
1774389187652,0.0966974,0.803787,-0.184012,9.110220000000003e-14,-2.500970000000001e-13,6.58153e-14,3.31439,2,6.704,5,5.0
1774389187665,0.101448,0.798178,-0.170082,-5.4316100000000017e-14,-1.9260400000000002e-13,5.429210000000001e-14,3.25255,2,6.717,5,5.0
1774389187679,0.111639,0.788683,-0.156269,-1.91577e-13,-1.4110500000000003e-13,5.33363e-14,3.28679,2,6.731,5,5.0
1774389187692,0.122238,0.786746,-0.14352,-3.2114000000000003e-13,-9.763370000000002e-14,6.546380000000002e-14,3.26687,3,6.744,5,5.0
1774389187705,0.129993,0.800225,-0.133966,-4.4343400000000025e-13,-6.085680000000003e-14,8.52649e-14,3.35602,3,6.757,5,5.0
1774389187719,0.134397,0.817664,-0.128737,-5.588689999999999e-13,-2.889600000000001e-14,1.0330000000000004e-13,3.27587,3,6.771,5,5.0
1774389187732,0.133207,0.834414,-0.126246,-6.678290000000001e-13,4.413700000000001e-16,1.1524600000000003e-13,3.26276,5,6.784,5,5.0
1774389187746,0.128332,0.847357,-0.123448,-7.70677e-13,2.7833400000000006e-14,1.2082600000000001e-13,3.29142,5,6.798,5,5.0
1774389187759,0.122559,0.863684,-0.118028,-8.67756e-13,5.3012399999999997e-14,1.23507e-13,3.24953,5,6.811,5,5.0
1774389187772,0.118684,0.888042,-0.112322,-9.593890000000002e-13,7.454819999999999e-14,1.2549400000000002e-13,3.28039,5,6.824,5,5.0
1774389187786,0.119931,0.9171,-0.10836,-1.04588e-12,9.065829999999999e-14,1.2388000000000005e-13,3.26498,5,6.838,5,5.0
1774389187800,0.12705,0.957198,-0.108564,-1.1275200000000002e-12,9.851720000000002e-14,1.15039e-13,3.70715,5,6.852,5,5.0
1774389187813,0.140275,0.99898,-0.111386,-1.20459e-12,9.590280000000001e-14,1.0179900000000001e-13,3.27316,5,6.865,5,5.0
1774389187826,0.157779,1.0395,-0.116904,-1.2773300000000004e-12,8.178410000000001e-14,8.996180000000003e-14,3.25061,5,6.878,5,5.0
1774389187840,0.177069,1.07837,-0.125105,-1.34599e-12,5.6772100000000014e-14,8.242790000000001e-14,3.29224,5,6.892,5,5.0
1774389187853,0.189056,1.12026,-0.138329,-1.4108e-12,2.6226500000000004e-14,8.374320000000002e-14,3.25798,5,6.905,5,5.0
1774389187866,0.191668,1.16562,-0.156218,-1.4719700000000002e-12,-2.2888400000000003e-15,9.777900000000002e-14,3.28926,5,6.918,5,5.0
1774389187880,0.187909,1.2095,-0.180947,-1.5297100000000004e-12,-2.4062200000000002e-14,1.2311100000000004e-13,3.27528,3,6.932,1,1.0
1774389187893,0.182649,1.23665,-0.210787,-1.5840799999999998e-12,-3.867530000000001e-14,1.5831300000000002e-13,3.3038,3,6.945,1,1.0
1774389187907,0.181986,1.26314,-0.245355,-1.62765e-12,-4.94756e-14,2.00918e-13,3.2735,3,6.959,1,1.0
1774389187920,0.186914,1.29792,-0.288949,-1.64736e-12,-6.268030000000001e-14,2.4568900000000007e-13,3.61796,3,6.972,1,1.0
1774389187934,0.178142,1.32406,-0.344046,-1.63874e-12,-7.750800000000001e-14,2.8657900000000006e-13,3.28531,3,6.986,1,1.0
1774389187947,0.1492,1.33749,-0.408009,-1.6075600000000005e-12,-8.418190000000001e-14,3.0874100000000003e-13,3.25927,3,6.999,1,1.0
1774389187960,0.11294,1.34965,-0.477012,-1.55328e-12,-7.714339999999999e-14,3.0658900000000004e-13,3.31661,3,7.012,1,1.0
1774389187974,0.0758209,1.35882,-0.547396,-1.4744300000000004e-12,-5.604420000000001e-14,2.89096e-13,3.26455,2,7.026,1,1.0
1774389187987,0.0400687,1.36173,-0.611306,-1.3802200000000004e-12,-2.0679500000000008e-14,2.65952e-13,3.30424,2,7.039,1,1.0
1774389188001,0.00582658,1.37113,-0.663453,-1.2702700000000002e-12,2.901970000000001e-14,2.385230000000001e-13,3.31315,5,7.053,1,1.0
1774389188015,0.0592658,1.48609,-0.459514,-1.20244e-12,6.84036e-14,2.41008e-13,3.73126,3,7.067,1,1.0
1774389188028,0.0855336,1.27994,-0.340657,-9.946870000000002e-13,9.492500000000003e-14,2.2059100000000007e-13,3.26981,5,7.08,1,1.0
1774389188041,0.103851,1.37949,-0.284482,-7.985890000000001e-13,1.03795e-13,1.5831200000000003e-13,3.25155,5,7.093,1,1.0
1774389188055,0.0959145,1.31242,-0.282963,-6.134899999999999e-13,9.150710000000004e-14,9.240640000000004e-14,3.3029,2,7.107,1,1.0
1774389188068,0.0721813,1.26787,-0.278778,-4.43176e-13,1.0155799999999999e-13,6.192150000000001e-14,3.25735,5,7.12,1,1.0
1774389188081,0.0718753,1.28656,-0.266725,-2.8193500000000005e-13,1.0784200000000002e-13,3.79381e-14,3.31587,5,7.133,1,1.0
1774389188095,0.0612582,1.26977,-0.266463,-1.3894100000000003e-13,1.1034400000000001e-13,2.7220600000000005e-14,3.27329,5,7.147,1,1.0
1774389188109,0.0676546,1.24659,-0.274167,-4.41572e-14,1.0663800000000005e-13,3.08063e-14,3.80837,5,7.161,1,1.0
1774389188122,0.0671302,1.22737,-0.276858,2.7317600000000007e-14,1.0123000000000001e-13,3.75221e-14,3.26889,5,7.174,1,1.0
1774389188135,0.067547,1.20669,-0.276783,7.464140000000004e-14,1.0222700000000003e-13,4.40754e-14,3.26063,5,7.187,1,1.0
1774389188149,0.0701129,1.19187,-0.274961,1.0900800000000001e-13,1.0477399999999999e-13,4.587640000000001e-14,3.29435,5,7.201,1,1.0
1774389188162,0.0746487,1.17776,-0.271905,1.3192500000000002e-13,1.0386000000000002e-13,4.65616e-14,3.25983,5,7.214,1,1.0
1774389188176,0.0778436,1.16948,-0.268672,1.5007100000000006e-13,1.0002500000000002e-13,4.6805800000000016e-14,3.28883,5,7.228,1,1.0
1774389188189,0.0785713,1.15798,-0.266361,1.6145600000000004e-13,9.711620000000001e-14,4.58674e-14,3.27468,5,7.241,1,1.0
1774389188202,0.077388,1.15065,-0.261898,1.68645e-13,9.702960000000001e-14,4.31918e-14,3.33142,5,7.254,2,2.0
1774389188216,0.0759575,1.1421,-0.258954,1.7254500000000002e-13,9.77871e-14,3.954020000000001e-14,3.2685,5,7.268,2,2.0
1774389188230,0.0784866,1.13611,-0.257121,1.7480400000000003e-13,9.78984e-14,3.532690000000001e-14,3.58385,5,7.282,2,2.0
1774389188243,0.0800296,1.12514,-0.257749,1.7324600000000003e-13,9.769940000000005e-14,2.817290000000001e-14,3.29698,5,7.295,2,2.0
1774389188256,0.0815799,1.11587,-0.257197,1.68161e-13,9.738740000000002e-14,2.1073300000000004e-14,3.26096,5,7.308,2,2.0
1774389188270,0.0830623,1.11144,-0.254821,1.6230799999999997e-13,9.717430000000004e-14,1.3811000000000003e-14,3.32702,5,7.322,2,2.0
1774389188283,0.0823553,1.10476,-0.25382,1.55413e-13,9.705019999999999e-14,7.61545e-15,3.26811,5,7.335,2,2.0
1774389188297,0.0821382,1.09997,-0.25218,1.47955e-13,9.680030000000002e-14,2.1528100000000004e-15,3.27607,5,7.349,2,2.0
1774389188310,0.084365,1.09561,-0.251337,1.4155300000000003e-13,9.69455e-14,-3.0890600000000005e-15,3.29013,5,7.362,2,2.0
1774389188324,0.0836864,1.09057,-0.250222,1.3549200000000003e-13,9.682140000000002e-14,-7.904150000000002e-15,3.70846,5,7.376,2,2.0
1774389188337,0.0842547,1.08722,-0.248963,1.3094500000000003e-13,9.5621e-14,-1.2188000000000003e-14,3.27468,5,7.389,2,2.0
1774389188350,0.0842428,1.08242,-0.247791,1.26914e-13,9.377700000000002e-14,-1.53666e-14,3.25239,5,7.402,2,2.0
1774389188364,0.0847013,1.0808,-0.246436,1.2499800000000003e-13,9.17411e-14,-1.83968e-14,3.31915,5,7.416,2,2.0
1774389188377,0.0852038,1.07613,-0.245396,1.2339000000000007e-13,8.913860000000002e-14,-2.2147700000000006e-14,3.26285,5,7.429,2,2.0
1774389188391,0.0846273,1.07238,-0.245287,1.2174400000000003e-13,8.561150000000001e-14,-2.4600700000000004e-14,3.30405,5,7.443,3,3.0
1774389188404,0.0842041,1.06979,-0.242899,1.1954000000000004e-13,8.196550000000002e-14,-2.5777e-14,3.26896,5,7.456,3,3.0
1774389188418,0.0844935,1.06935,-0.241587,1.20169e-13,7.748770000000002e-14,-2.69345e-14,3.78384,5,7.47,3,3.0
1774389188431,0.0826668,1.06584,-0.241015,1.20566e-13,7.35352e-14,-2.66397e-14,3.27213,5,7.483,3,3.0
1774389188445,0.0804396,1.06561,-0.239988,1.2364800000000001e-13,6.970590000000001e-14,-2.4755800000000002e-14,3.24885,5,7.497,3,3.0
1774389188458,0.0798366,1.06392,-0.239433,1.27044e-13,6.63011e-14,-2.22924e-14,3.28494,5,7.51,3,3.0
1774389188471,0.0807547,1.06368,-0.2395,1.3221100000000005e-13,6.33871e-14,-1.9945800000000002e-14,3.25326,5,7.523,3,3.0
1774389188485,0.0827323,1.06129,-0.23934,1.3903200000000003e-13,6.03155e-14,-2.0227200000000005e-14,3.29041,5,7.537,3,3.0
1774389188498,0.0845274,1.06057,-0.239635,1.4662700000000006e-13,5.64612e-14,-2.33145e-14,3.26594,5,7.55,3,3.0
1774389188512,0.0881338,1.05855,-0.240355,1.5454100000000001e-13,5.22879e-14,-2.8095600000000005e-14,3.30741,5,7.564,3,3.0
1774389188525,0.0870875,1.05675,-0.241621,1.6350500000000004e-13,4.86185e-14,-3.2308700000000004e-14,3.26965,5,7.577,3,3.0
1774389188539,0.0867917,1.05566,-0.242841,1.7142200000000003e-13,4.5360400000000006e-14,-3.572460000000001e-14,3.55669,5,7.591,3,3.0
1774389188552,0.0851528,1.0556,-0.244233,1.80553e-13,4.2477800000000004e-14,-3.8328000000000006e-14,3.29081,5,7.604,3,3.0
1774389188566,0.082347,1.05444,-0.246044,1.8906800000000003e-13,4.015500000000001e-14,-3.93424e-14,3.25389,5,7.618,3,3.0
1774389188579,0.079963,1.0556,-0.247765,1.9744000000000004e-13,3.8883200000000005e-14,-3.9456300000000007e-14,3.298,5,7.631,3,3.0
1774389188592,0.079637,1.05817,-0.249304,2.0872500000000003e-13,3.7759800000000006e-14,-4.059580000000001e-14,3.25974,5,7.644,3,3.0
1774389188606,0.0788555,1.05877,-0.251438,2.2115900000000002e-13,3.669510000000001e-14,-4.1003400000000015e-14,3.2982,5,7.658,3,3.0
1774389188619,0.0790585,1.05784,-0.253126,2.3313000000000004e-13,3.509920000000001e-14,-4.065170000000001e-14,3.28124,5,7.671,3,3.0
1774389188633,0.0792632,1.05834,-0.255819,2.4497800000000004e-13,3.32289e-14,-4.0452400000000004e-14,3.72298,5,7.685,3,3.0
1774389188646,0.0768005,1.05582,-0.258789,2.558830000000001e-13,3.1189400000000005e-14,-3.91083e-14,3.27035,5,7.698,3,3.0
1774389188660,0.0749045,1.05551,-0.262024,2.658040000000001e-13,2.961120000000001e-14,-3.65806e-14,3.25485,5,7.712,3,3.0
1774389188673,0.0723014,1.05588,-0.265459,2.76799e-13,2.8151499999999997e-14,-3.2666100000000015e-14,3.29865,5,7.725,3,3.0
1774389188686,0.0709759,1.05751,-0.269086,2.8839900000000004e-13,2.6829300000000007e-14,-2.8294600000000007e-14,3.25331,5,7.738,3,3.0
1774389188700,0.070317,1.0583,-0.272543,3.016340000000001e-13,2.5247300000000003e-14,-2.3474700000000003e-14,3.31411,5,7.752,3,3.0
1774389188713,0.0706264,1.05979,-0.276714,3.1532500000000007e-13,2.3441500000000004e-14,-1.82315e-14,3.31313,5,7.765,4,4.0
1774389188727,0.0699614,1.06077,-0.280671,3.3033000000000007e-13,2.1411500000000002e-14,-1.2563000000000002e-14,3.79006,5,7.779,4,4.0
1774389188741,0.0677453,1.06234,-0.28486,3.4638599999999996e-13,1.8913100000000008e-14,-6.08637e-15,3.26783,5,7.793,4,4.0
1774389188754,0.0686796,1.06386,-0.289005,3.64568e-13,1.6011000000000002e-14,8.490990000000001e-16,3.24972,5,7.806,4,4.0
1774389188767,0.0679716,1.0659,-0.293118,3.8431200000000005e-13,1.2496700000000004e-14,8.585900000000003e-15,3.29355,5,7.819,4,4.0
1774389188781,0.0658639,1.06672,-0.297874,4.065890000000001e-13,9.021090000000002e-15,1.8350800000000003e-14,3.27248,5,7.833,4,4.0
1774389188794,0.0648626,1.07062,-0.302901,4.3111800000000014e-13,5.406440000000001e-15,2.89938e-14,3.26881,5,7.846,4,4.0
1774389188807,0.062656,1.07405,-0.307902,4.583690000000001e-13,1.6049000000000003e-15,4.03158e-14,3.27033,5,7.859,4,4.0
1774389188821,0.0641439,1.0793,-0.312277,4.890630000000002e-13,-3.28081e-15,5.2707e-14,3.27602,5,7.873,4,4.0
1774389188834,0.0666238,1.08525,-0.31628,5.231610000000001e-13,-9.112800000000001e-15,6.617140000000001e-14,3.28026,5,7.886,4,4.0
1774389188848,0.0704473,1.09432,-0.320193,5.620940000000001e-13,-1.67115e-14,7.977130000000002e-14,3.57224,5,7.9,4,4.0
1774389188862,0.0765806,1.10671,-0.322163,6.091420000000002e-13,-2.7262300000000008e-14,9.340470000000002e-14,4.43133,5,7.914,4,4.0
1774389188876,0.0839511,1.1246,-0.323225,6.636339999999999e-13,-4.1982799999999996e-14,1.0639300000000002e-13,3.28807,5,7.928,4,4.0
1774389188889,0.0926756,1.15201,-0.321688,7.298799999999999e-13,-5.96884e-14,1.1771600000000002e-13,3.29424,5,7.941,4,4.0
1774389188902,0.106005,1.18722,-0.3163,8.123850000000001e-13,-8.232700000000001e-14,1.2645500000000002e-13,3.25361,5,7.954,4,4.0
1774389188916,0.120769,1.22619,-0.311586,9.071210000000001e-13,-1.0973300000000002e-13,1.2693200000000001e-13,3.66348,4,7.968,4,4.0
1774389188930,0.132004,1.26025,-0.314562,9.96542e-13,-1.3729300000000003e-13,1.1845000000000004e-13,3.26483,3,7.982,4,4.0
1774389188943,0.136268,1.2887,-0.332046,1.0809500000000002e-12,-1.61347e-13,1.0758000000000003e-13,3.28253,3,7.995,4,4.0
1774389188956,0.144914,1.31118,-0.353623,1.1606200000000002e-12,-1.8335300000000004e-13,1.0005500000000003e-13,3.26946,3,8.008,4,4.0
1774389188970,0.156674,1.30074,-0.379499,1.2358200000000005e-12,-2.0880400000000002e-13,8.618760000000001e-14,3.26796,3,8.022,4,4.0
1774389188983,0.16067,1.30237,-0.394239,1.3068e-12,-2.33098e-13,7.738810000000003e-14,3.28013,3,8.035,4,4.0
1774389188996,0.170417,1.30033,-0.402078,1.3738100000000004e-12,-2.5707000000000003e-13,7.15272e-14,3.25102,3,8.048,4,4.0
1774389189010,0.183955,1.27691,-0.400157,1.4370500000000002e-12,-2.8232600000000003e-13,6.7301e-14,3.30124,3,8.062,4,4.0
1774389189023,0.194798,1.23187,-0.36283,1.4809700000000003e-12,-3.1245100000000007e-13,6.73068e-14,3.28039,3,8.075,5,5.0
1774389189037,0.237965,1.02468,-0.311815,1.4448100000000002e-12,-3.63931e-13,9.093530000000001e-14,3.31061,3,8.089,5,5.0
1774389189050,0.213123,0.921931,-0.297762,1.27133e-12,-4.08285e-13,1.2038500000000002e-13,3.26598,3,8.102,5,5.0
1774389189063,0.190115,0.92243,-0.264155,1.1151500000000004e-12,-4.342780000000001e-13,1.2369900000000005e-13,3.25935,3,8.115,5,5.0
1774389189077,0.154917,0.902718,-0.239128,9.517990000000003e-13,-4.3665400000000005e-13,1.0234800000000002e-13,3.27415,3,8.129,5,5.0
1774389189090,0.123638,0.90472,-0.21778,8.114200000000002e-13,-4.1615200000000004e-13,7.490190000000001e-14,3.25259,2,8.142,5,5.0
1774389189104,0.0996535,0.882803,-0.198636,6.739950000000002e-13,-3.7939399999999995e-13,5.4305200000000016e-14,3.30466,2,8.156,5,5.0
1774389189117,0.0852698,0.860424,-0.179668,5.359940000000002e-13,-3.313730000000001e-13,4.108960000000001e-14,3.49854,2,8.169,5,5.0
1774389189131,0.0777931,0.837658,-0.160589,3.9397900000000013e-13,-2.7698900000000004e-13,3.007120000000001e-14,3.29909,2,8.183,5,5.0
1774389189144,0.0763236,0.822294,-0.142611,2.5138800000000006e-13,-2.2112500000000005e-13,1.78382e-14,3.26561,2,8.196,5,5.0
1774389189157,0.0779825,0.80853,-0.126584,1.0812500000000002e-13,-1.6610000000000002e-13,8.462320000000001e-15,3.26739,2,8.209,5,5.0
1774389189171,0.0846511,0.795208,-0.111503,-3.785440000000001e-14,-1.18203e-13,5.7739200000000005e-15,3.2752,2,8.223,5,5.0
1774389189184,0.0939109,0.782917,-0.0982774,-1.7603900000000005e-13,-7.770360000000001e-14,1.0549700000000002e-14,3.24852,3,8.236,5,5.0
1774389189197,0.102862,0.781851,-0.0865911,-3.0647299999999997e-13,-4.562000000000001e-14,2.2281200000000006e-14,3.29459,3,8.249,5,5.0
1774389189211,0.109414,0.791188,-0.0784054,-4.2959000000000004e-13,-2.0833900000000006e-14,4.02184e-14,3.25203,3,8.263,5,5.0
1774389189224,0.111185,0.80773,-0.0740476,-5.45801e-13,-6.70928e-16,6.166690000000001e-14,3.32355,5,8.276,5,5.0
1774389189238,0.105201,0.825609,-0.0733718,-6.554940000000002e-13,1.85966e-14,8.27001e-14,3.27353,5,8.29,5,5.0
1774389189251,0.0961588,0.844158,-0.0733661,-7.590340000000001e-13,3.8491700000000005e-14,9.708980000000003e-14,3.31333,5,8.303,5,5.0
1774389189264,0.0864656,0.861757,-0.0727734,-8.56766e-13,5.92021e-14,1.0368899999999999e-13,3.28235,5,8.316,5,5.0
1774389189278,0.0789047,0.885697,-0.0705198,-9.49016e-13,7.900760000000001e-14,1.0554600000000003e-13,3.24992,5,8.33,5,5.0
1774389189291,0.0788599,0.914858,-0.0696459,-1.03609e-12,9.421250000000003e-14,1.0761100000000002e-13,3.30359,5,8.343,5,5.0
1774389189305,0.0874013,0.951583,-0.0704331,-1.1182800000000004e-12,1.0075000000000001e-13,1.10849e-13,3.25655,5,8.357,5,5.0
1774389189318,0.104324,0.997081,-0.0748908,-1.19586e-12,9.53429e-14,1.1294700000000004e-13,3.28763,5,8.37,5,5.0
1774389189331,0.125728,1.04331,-0.0854208,-1.2690900000000002e-12,7.666120000000001e-14,1.1149700000000001e-13,3.27929,5,8.383,5,5.0
1774389189345,0.142107,1.08679,-0.101875,-1.3382100000000002e-12,4.8241300000000004e-14,1.0984600000000002e-13,3.27579,5,8.397,5,5.0
1774389189358,0.148202,1.13306,-0.12392,-1.4034600000000002e-12,1.7369199999999998e-14,1.1498900000000003e-13,3.27546,5,8.41,5,5.0
1774389189371,0.144486,1.18429,-0.15288,-1.4650400000000002e-12,-8.688190000000001e-15,1.2803e-13,3.25372,5,8.423,1,1.0
1774389189385,0.137217,1.23176,-0.188955,-1.51813e-12,-2.5144200000000005e-14,1.4523300000000002e-13,3.28435,5,8.437,1,1.0
1774389189398,0.131003,1.26179,-0.233799,-1.5534200000000007e-12,-3.205770000000001e-14,1.6700000000000002e-13,3.25194,3,8.45,1,1.0
1774389189411,0.126288,1.28384,-0.284293,-1.57381e-12,-3.3518e-14,2.0173600000000002e-13,3.27774,1,8.463,1,1.0
1774389189425,0.119687,1.30498,-0.34062,-1.5740700000000004e-12,-3.18006e-14,2.4935100000000007e-13,3.58976,3,8.477,1,1.0
1774389189439,0.104908,1.32233,-0.403558,-1.5506400000000001e-12,-2.5568e-14,2.88545e-13,3.30346,5,8.491,1,1.0
1774389189452,0.0848702,1.33237,-0.470663,-1.5028900000000003e-12,-1.1202600000000001e-14,2.99665e-13,3.27239,3,8.504,1,1.0
1774389189465,0.0636699,1.33966,-0.538698,-1.4319900000000002e-12,1.1738600000000002e-14,2.8638500000000005e-13,3.27535,3,8.517,1,1.0
1774389189479,0.0456495,1.34415,-0.601312,-1.3419100000000005e-12,4.16012e-14,2.6549900000000006e-13,3.27505,1,8.531,1,1.0
1774389189492,0.0277766,1.34587,-0.654846,-1.2368500000000003e-12,7.72307e-14,2.42827e-13,3.25924,5,8.544,1,1.0
1774389189506,0.0084966,1.34463,-0.697412,-1.1264800000000003e-12,1.1983600000000004e-13,2.1362900000000007e-13,3.28491,5,8.558,1,1.0
1774389189519,0.0370914,1.37823,-0.604923,-9.229870000000002e-13,1.352e-13,1.6814900000000002e-13,3.27233,5,8.571,1,1.0
1774389189532,0.0741517,1.30389,-0.496704,-7.945270000000001e-13,1.2557000000000004e-13,1.2108800000000002e-13,3.31529,5,8.584,1,1.0
1774389189546,0.0840628,1.37197,-0.470402,-6.096560000000002e-13,1.0803600000000001e-13,6.183420000000001e-14,3.27816,5,8.598,1,1.0
1774389189559,0.0544844,1.28665,-0.468184,-4.3515500000000003e-13,1.0967900000000002e-13,3.39506e-14,3.28311,5,8.611,1,1.0
1774389189573,0.0556143,1.2822,-0.443812,-2.914280000000001e-13,1.1790500000000002e-13,2.23392e-14,3.27402,5,8.625,1,1.0
1774389189586,0.0594495,1.29367,-0.424125,-1.4559700000000002e-13,1.1235800000000002e-13,1.4329400000000004e-14,3.25965,5,8.638,1,1.0
1774389189599,0.0545007,1.26567,-0.421058,-3.435730000000001e-14,1.0415e-13,2.03681e-14,3.29928,5,8.651,1,1.0
1774389189613,0.0515834,1.24968,-0.416332,4.54913e-14,9.58502e-14,3.070520000000001e-14,3.26118,5,8.665,1,1.0
1774389189626,0.0474591,1.22381,-0.412496,9.860810000000001e-14,9.508530000000003e-14,3.970040000000001e-14,3.49372,5,8.678,1,1.0
1774389189640,0.0489176,1.20993,-0.404311,1.3306499999999997e-13,9.780590000000002e-14,4.24747e-14,3.27124,5,8.692,1,1.0
1774389189653,0.0546579,1.19448,-0.396751,1.5743700000000004e-13,9.882820000000004e-14,4.1689400000000004e-14,3.32057,5,8.705,1,1.0
1774389189667,0.0600296,1.17911,-0.389939,1.6959600000000002e-13,9.774639999999999e-14,3.83661e-14,3.27689,5,8.719,1,1.0
1774389189680,0.0628069,1.16829,-0.383701,1.7631500000000002e-13,9.76972e-14,3.3114e-14,3.25687,5,8.732,2,2.0
1774389189693,0.0666585,1.15716,-0.378484,1.7907e-13,9.745390000000002e-14,2.4906500000000007e-14,3.31553,5,8.745,2,2.0
1774389189707,0.0707901,1.14791,-0.373228,1.79725e-13,9.701440000000002e-14,1.49243e-14,3.28142,5,8.759,2,2.0
1774389189720,0.0731288,1.14002,-0.366238,1.7828100000000005e-13,9.658239999999999e-14,5.1081e-15,3.30422,5,8.772,2,2.0
1774389189734,0.0747033,1.13336,-0.360215,1.76647e-13,9.608040000000002e-14,-3.810660000000001e-15,3.2814,5,8.786,2,2.0
1774389189747,0.0741055,1.12674,-0.353622,1.7334100000000002e-13,9.617180000000001e-14,-1.1492700000000003e-14,3.3262,5,8.799,2,2.0
1774389189760,0.0750821,1.12256,-0.346614,1.70568e-13,9.520480000000001e-14,-1.98057e-14,3.27424,5,8.812,2,2.0
1774389189774,0.0754928,1.11572,-0.341673,1.6765000000000002e-13,9.374809999999999e-14,-2.7695200000000007e-14,3.26848,5,8.826,2,2.0
1774389189787,0.0763553,1.11168,-0.335529,1.6511800000000004e-13,9.307970000000001e-14,-3.68164e-14,3.29741,5,8.839,2,2.0
1774389189801,0.0780235,1.10863,-0.32834,1.64591e-13,9.277430000000003e-14,-4.805500000000001e-14,3.26261,5,8.853,2,2.0
1774389189814,0.0813591,1.10548,-0.322191,1.6660800000000002e-13,9.230180000000001e-14,-6.149780000000001e-14,3.29241,5,8.866,2,2.0
1774389189827,0.0841432,1.09666,-0.318447,1.6853600000000002e-13,9.004030000000001e-14,-7.538130000000002e-14,3.27768,5,8.879,2,2.0
1774389189841,0.0848516,1.08761,-0.316991,1.6434500000000002e-13,8.720340000000003e-14,-8.656340000000002e-14,3.28922,5,8.893,2,2.0
1774389189854,0.0801051,1.08482,-0.314915,1.59665e-13,8.453000000000001e-14,-9.23911e-14,3.27646,5,8.906,2,2.0
1774389189868,0.0739327,1.08256,-0.312365,1.5639100000000005e-13,8.147130000000001e-14,-9.146050000000003e-14,3.26059,5,8.92,2,2.0
1774389189881,0.0690125,1.07798,-0.308676,1.50972e-13,7.819880000000001e-14,-8.693400000000004e-14,3.28253,5,8.933,2,2.0
1774389189894,0.0643608,1.07401,-0.305064,1.4317099999999998e-13,7.50242e-14,-7.990819999999999e-14,3.2587,5,8.946,2,2.0
1774389189908,0.0623363,1.07079,-0.301481,1.34871e-13,7.19249e-14,-7.271979999999999e-14,3.28718,5,8.96,2,2.0
1774389189921,0.0612864,1.07067,-0.297607,1.2820500000000003e-13,6.923070000000002e-14,-6.544650000000001e-14,3.29115,5,8.973,2,2.0
1774389189935,0.0635283,1.0699,-0.294479,1.2510700000000002e-13,6.614810000000001e-14,-6.001990000000002e-14,3.32048,5,8.987,2,2.0
1774389189948,0.0634086,1.06762,-0.292245,1.2352700000000004e-13,6.29258e-14,-5.579690000000002e-14,3.26996,5,9.0,3,3.0
1774389189962,0.0629311,1.06648,-0.289202,1.2374500000000002e-13,5.945610000000001e-14,-5.247440000000002e-14,3.27567,5,9.014,3,3.0
1774389189975,0.0638945,1.06741,-0.286313,1.27179e-13,5.577420000000001e-14,-5.064860000000001e-14,3.27194,5,9.027,3,3.0
1774389189988,0.0655418,1.07134,-0.283145,1.3385400000000002e-13,5.282980000000002e-14,-4.9173500000000014e-14,3.25609,5,9.04,3,3.0
1774389190002,0.0664338,1.07364,-0.280617,1.4495500000000004e-13,4.9738e-14,-4.9065700000000004e-14,3.31103,5,9.054,3,3.0
1774389190015,0.0635498,1.07436,-0.278766,1.5781300000000003e-13,4.741480000000001e-14,-4.5979500000000005e-14,3.26355,5,9.067,3,3.0
1774389190028,0.0623188,1.07744,-0.277251,1.7303400000000003e-13,4.520050000000001e-14,-4.3695800000000005e-14,3.31691,5,9.08,3,3.0
1774389190042,0.062316,1.07926,-0.275622,1.8826100000000004e-13,4.3418700000000006e-14,-3.92409e-14,3.27476,5,9.094,3,3.0
1774389190055,0.0622173,1.07953,-0.274832,2.0319600000000002e-13,4.166410000000001e-14,-3.2912099999999996e-14,3.2837,5,9.107,3,3.0
1774389190069,0.0601156,1.08094,-0.274163,2.2004500000000007e-13,4.0059199999999994e-14,-2.56879e-14,3.29835,5,9.121,3,3.0
1774389190082,0.0595686,1.08032,-0.274718,2.360910000000001e-13,3.8334600000000004e-14,-1.9502700000000005e-14,3.25764,5,9.134,3,3.0
1774389190095,0.0590775,1.07974,-0.275271,2.5287700000000006e-13,3.67067e-14,-1.3681600000000002e-14,3.29931,5,9.147,3,3.0
1774389190109,0.0572627,1.07868,-0.27612,2.6949200000000004e-13,3.5641100000000004e-14,-7.206450000000002e-15,3.25666,5,9.161,3,3.0
1774389190122,0.0563493,1.07772,-0.27755,2.8589400000000004e-13,3.42928e-14,-4.86473e-16,3.30807,5,9.174,3,3.0
1774389190136,0.0559349,1.07594,-0.279517,3.02327e-13,3.26604e-14,7.33381e-15,3.73035,5,9.188,3,3.0
1774389190150,0.0543002,1.07422,-0.281984,3.1775300000000005e-13,3.115380000000001e-14,1.5323500000000002e-14,3.30207,5,9.202,3,3.0
1774389190163,0.0545841,1.0728,-0.285304,3.3412400000000003e-13,2.977880000000001e-14,2.3117600000000006e-14,3.27561,5,9.215,4,4.0
1774389190176,0.0557737,1.07207,-0.287636,3.5083199999999997e-13,2.77359e-14,3.0555800000000003e-14,3.25453,5,9.228,4,4.0
1774389190190,0.055534,1.07034,-0.291008,3.686530000000001e-13,2.5405200000000005e-14,3.8416100000000004e-14,3.30454,5,9.242,4,4.0
1774389190203,0.0580168,1.06813,-0.29513,3.860750000000001e-13,2.2472900000000003e-14,4.620380000000002e-14,3.25648,5,9.255,4,4.0
1774389190217,0.0582555,1.06698,-0.299883,4.0481000000000007e-13,1.8895900000000003e-14,5.40085e-14,3.27613,5,9.269,4,4.0
1774389190230,0.0578005,1.06558,-0.304812,4.235130000000001e-13,1.53482e-14,6.103710000000002e-14,3.28196,5,9.282,4,4.0
1774389190243,0.0589563,1.06509,-0.31006,4.435000000000001e-13,1.1498500000000002e-14,6.740600000000001e-14,3.28563,5,9.295,4,4.0
1774389190257,0.060873,1.06576,-0.315088,4.652620000000001e-13,6.695850000000002e-15,7.311360000000002e-14,3.27572,5,9.309,4,4.0
1774389190270,0.0636027,1.06565,-0.320292,4.887180000000001e-13,1.20344e-15,7.862530000000001e-14,3.26283,5,9.322,4,4.0
1774389190283,0.0645474,1.06431,-0.325098,5.132990000000002e-13,-4.77304e-15,8.47398e-14,3.28153,5,9.335,4,4.0
1774389190297,0.0650237,1.06391,-0.330707,5.39636e-13,-1.10608e-14,9.16846e-14,3.26276,5,9.349,4,4.0
1774389190310,0.0664081,1.06389,-0.336712,5.6745e-13,-1.7830900000000003e-14,9.904909999999999e-14,3.2869,5,9.362,4,4.0
1774389190324,0.0701877,1.06309,-0.343106,5.96449e-13,-2.4773600000000013e-14,1.0639000000000003e-13,3.27281,5,9.376,4,4.0
1774389190337,0.0687197,1.06538,-0.349743,6.280170000000002e-13,-3.1108500000000004e-14,1.14583e-13,3.32816,5,9.389,4,4.0
1774389190350,0.0773843,1.07004,-0.354702,6.645620000000001e-13,-3.9575800000000005e-14,1.2234600000000002e-13,3.28592,5,9.402,4,4.0
1774389190364,0.0900474,1.07699,-0.358579,7.051850000000002e-13,-5.168300000000001e-14,1.3058100000000003e-13,3.27118,5,9.416,4,4.0
1774389190377,0.0927718,1.08832,-0.362191,7.529880000000001e-13,-6.45669e-14,1.3865400000000003e-13,3.27733,5,9.429,4,4.0
1774389190391,0.0989218,1.1115,-0.362868,8.101720000000001e-13,-8.049620000000003e-14,1.4946000000000003e-13,3.29726,5,9.443,4,4.0
1774389190404,0.106127,1.13841,-0.366453,8.786169999999999e-13,-9.88418e-14,1.5839600000000005e-13,3.31202,5,9.456,4,4.0
1774389190418,0.10251,1.17406,-0.371236,9.581100000000002e-13,-1.16351e-13,1.61398e-13,3.28185,5,9.47,4,4.0
1774389190431,0.093682,1.21635,-0.383529,1.04467e-12,-1.2555200000000002e-13,1.5803900000000003e-13,3.27796,1,9.483,4,4.0
1774389190444,0.0946245,1.24509,-0.39978,1.1263800000000003e-12,-1.30537e-13,1.4860900000000004e-13,3.28459,3,9.496,4,4.0
1774389190458,0.111605,1.25732,-0.421193,1.2035000000000003e-12,-1.3611200000000003e-13,1.3266000000000004e-13,3.27502,3,9.51,4,4.0
1774389190471,0.131345,1.26807,-0.438124,1.2763000000000001e-12,-1.45759e-13,1.14656e-13,3.28315,3,9.523,4,4.0
1774389190485,0.146827,1.27572,-0.450322,1.3450100000000001e-12,-1.59056e-13,9.542600000000002e-14,3.25711,3,9.537,4,4.0
1774389190498,0.165304,1.26928,-0.455965,1.4098700000000003e-12,-1.7402300000000001e-13,8.86432e-14,3.29753,3,9.55,4,4.0
1774389190511,0.181116,1.24679,-0.446957,1.4710900000000001e-12,-1.94166e-13,9.224330000000002e-14,3.26311,3,9.563,4,4.0
1774389190525,0.200261,1.1959,-0.418282,1.5170300000000003e-12,-2.1934500000000004e-13,1.0572500000000002e-13,3.29903,3,9.577,5,5.0
1774389190538,0.274762,1.01836,-0.356897,1.50613e-12,-2.70495e-13,1.51417e-13,3.27191,3,9.59,5,5.0
1774389190552,0.255336,0.902301,-0.352383,1.35528e-12,-3.3955100000000007e-13,1.8877400000000005e-13,3.31472,3,9.604,5,5.0
1774389190565,0.230332,0.866546,-0.321501,1.19594e-12,-3.9187e-13,1.91039e-13,3.27448,3,9.617,5,5.0
1774389190578,0.187107,0.841302,-0.299135,1.01569e-12,-4.189040000000001e-13,1.7179000000000004e-13,3.25646,3,9.63,5,5.0
1774389190592,0.147556,0.841975,-0.280127,8.579600000000001e-13,-4.202030000000001e-13,1.4866599999999997e-13,3.30707,2,9.644,5,5.0
1774389190605,0.115436,0.8305,-0.263702,7.068089999999998e-13,-4.013000000000002e-13,1.2874800000000001e-13,3.26492,2,9.657,5,5.0
1774389190619,0.0951622,0.82399,-0.24997,5.699730000000002e-13,-3.676480000000001e-13,1.0960200000000001e-13,3.27363,2,9.671,5,5.0
1774389190632,0.0844769,0.810046,-0.238654,4.4005800000000005e-13,-3.2647300000000004e-13,9.057829999999998e-14,3.27305,2,9.684,5,5.0
1774389190645,0.0802166,0.785318,-0.228281,3.095990000000001e-13,-2.82504e-13,7.40264e-14,3.34442,2,9.697,5,5.0
1774389190659,0.081684,0.762815,-0.218895,1.7297100000000004e-13,-2.4097900000000003e-13,6.144740000000002e-14,3.2717,2,9.711,5,5.0
1774389190672,0.0864184,0.744681,-0.209173,3.0967200000000005e-14,-2.02302e-13,5.4031400000000005e-14,3.26077,2,9.724,5,5.0
1774389190686,0.0909777,0.733275,-0.199022,-1.1107800000000002e-13,-1.6917600000000006e-13,5.02556e-14,3.28207,2,9.738,5,5.0
1774389190699,0.093608,0.730676,-0.190841,-2.4515500000000003e-13,-1.4227300000000005e-13,4.944910000000001e-14,3.25783,2,9.751,5,5.0
1774389190712,0.0907635,0.734008,-0.184193,-3.717120000000001e-13,-1.1610300000000002e-13,5.21604e-14,3.27694,2,9.764,5,5.0
1774389190726,0.0840289,0.743911,-0.179917,-4.9117e-13,-8.760730000000002e-14,5.698050000000001e-14,3.30233,5,9.778,5,5.0
1774389190739,0.0767453,0.76047,-0.178583,-6.03927e-13,-5.6227000000000014e-14,6.135470000000001e-14,3.2999,5,9.791,5,5.0
1774389190753,0.070549,0.777555,-0.179219,-7.103600000000001e-13,-2.2449200000000007e-14,6.550490000000001e-14,3.28181,5,9.805,5,5.0
1774389190766,0.0676772,0.792066,-0.182357,-8.108220000000001e-13,1.1360800000000001e-14,7.047140000000001e-14,3.26565,5,9.818,5,5.0
1774389190779,0.0686253,0.806733,-0.1846,-9.056489999999999e-13,4.274330000000001e-14,7.52663e-14,3.2765,5,9.831,5,5.0
1774389190793,0.072863,0.828307,-0.186168,-9.95157e-13,6.936390000000002e-14,7.8071e-14,3.25985,5,9.845,5,5.0
1774389190806,0.0808659,0.857201,-0.187604,-1.0796400000000002e-12,8.932309999999999e-14,7.7477e-14,3.31259,5,9.858,5,5.0
1774389190820,0.0947114,0.892434,-0.189831,-1.1593900000000002e-12,9.991590000000005e-14,7.23775e-14,3.26648,5,9.872,5,5.0
1774389190833,0.1114,0.93029,-0.194426,-1.2346700000000004e-12,9.968080000000002e-14,6.63951e-14,3.3032,5,9.885,5,5.0
1774389190846,0.131459,0.967472,-0.201373,-1.3057200000000002e-12,8.795360000000001e-14,6.091100000000001e-14,3.27092,5,9.898,5,5.0
1774389190860,0.147448,0.99911,-0.208251,-1.37279e-12,6.739550000000002e-14,6.066290000000001e-14,3.28242,5,9.912,5,5.0
1774389190873,0.160656,1.03376,-0.215629,-1.4360900000000002e-12,4.177330000000001e-14,6.79135e-14,3.28055,5,9.925,5,5.0
1774389190887,0.165524,1.07249,-0.226794,-1.4958500000000001e-12,1.5614400000000002e-14,8.4854e-14,3.26037,5,9.939,5,5.0
1774389190900,0.161467,1.11665,-0.244027,-1.5522500000000004e-12,-4.328540000000001e-15,1.1116800000000003e-13,3.30348,5,9.952,5,5.0
1774389190913,0.154085,1.15738,-0.268728,-1.59255e-12,-1.5398400000000007e-14,1.41097e-13,3.25839,3,9.965,1,1.0
1774389190927,0.148756,1.18224,-0.298915,-1.6187700000000004e-12,-1.9446000000000006e-14,1.6990400000000005e-13,3.298,3,9.979,1,1.0
1774389190941,0.145731,1.20245,-0.332554,-1.63173e-12,-2.0778800000000005e-14,1.9939400000000003e-13,4.00441,3,9.993,1,1.0
1774389190954,0.143319,1.22382,-0.369505,-1.6269800000000002e-12,-2.2011100000000003e-14,2.3057e-13,3.31105,3,10.006,1,1.0
1774389190968,0.136251,1.23841,-0.410979,-1.6009900000000002e-12,-2.3456899999999998e-14,2.5801899999999997e-13,3.37376,3,10.02,1,1.0
1774389190981,0.11748,1.24545,-0.454388,-1.55837e-12,-2.0419800000000007e-14,2.7380600000000004e-13,3.27807,3,10.033,1,1.0
1774389190995,0.0913621,1.2498,-0.498866,-1.49904e-12,-8.265730000000001e-15,2.71516e-13,3.35359,3,10.047,1,1.0
1774389191008,0.0633009,1.25243,-0.541634,-1.4248000000000001e-12,1.4874700000000003e-14,2.5368700000000004e-13,3.27692,2,10.06,1,1.0
1774389191022,0.0375345,1.25753,-0.580588,-1.33635e-12,4.8261000000000016e-14,2.2966000000000005e-13,3.2792,5,10.074,1,1.0
1774389191035,0.0157137,1.2619,-0.612959,-1.2350400000000002e-12,9.003390000000001e-14,2.031360000000001e-13,3.28989,5,10.087,1,1.0
1774389191048,0.0461497,1.38164,-0.692901,-1.07247e-12,1.21786e-13,2.0960500000000007e-13,3.30796,5,10.1,1,1.0
1774389191062,0.0693075,1.20961,-0.598654,-8.72012e-13,1.3964000000000002e-13,1.85966e-13,3.28733,5,10.114,1,1.0
1774389191075,0.0730563,1.26128,-0.538436,-7.058920000000001e-13,1.5132400000000004e-13,1.4144700000000005e-13,3.25657,5,10.127,1,1.0
1774389191089,0.0659003,1.23699,-0.522117,-5.259930000000001e-13,1.4191500000000003e-13,9.53654e-14,3.27318,5,10.141,1,1.0
1774389191102,0.0480707,1.1927,-0.496433,-3.7830000000000006e-13,1.4532300000000002e-13,7.642550000000002e-14,3.28253,5,10.154,1,1.0
1774389191115,0.0400854,1.21135,-0.47279,-2.38088e-13,1.41325e-13,6.738150000000001e-14,3.31109,5,10.167,1,1.0
1774389191129,0.0342111,1.20732,-0.460153,-1.08172e-13,1.32666e-13,6.433410000000002e-14,3.29528,5,10.181,1,1.0
1774389191142,0.0306543,1.18825,-0.457123,-1.74433e-14,1.2379800000000002e-13,7.649980000000003e-14,3.32448,5,10.194,1,1.0
1774389191156,0.0284809,1.17438,-0.450702,5.05078e-14,1.17372e-13,8.381690000000003e-14,3.28046,5,10.208,1,1.0
1774389191169,0.0290932,1.15552,-0.443505,9.468950000000003e-14,1.16167e-13,8.644170000000004e-14,3.28031,5,10.221,1,1.0
1774389191183,0.0317073,1.14422,-0.435,1.2641200000000003e-13,1.1765300000000002e-13,8.59305e-14,3.28459,5,10.235,1,1.0
1774389191196,0.0372499,1.13147,-0.425842,1.47004e-13,1.18791e-13,8.158570000000001e-14,3.26007,5,10.248,1,1.0
1774389191209,0.0425288,1.12202,-0.415921,1.59974e-13,1.1956500000000003e-13,7.552780000000001e-14,3.25192,5,10.261,1,1.0
1774389191223,0.0453561,1.1133,-0.406743,1.6693800000000003e-13,1.20382e-13,6.80842e-14,3.2332,5,10.275,1,1.0
1774389191236,0.048049,1.10797,-0.397571,1.7072400000000002e-13,1.20549e-13,5.886150000000001e-14,3.306,5,10.288,1,1.0
1774389191249,0.0536778,1.10249,-0.388053,1.7344100000000004e-13,1.18784e-13,4.782250000000001e-14,3.26009,5,10.301,1,1.0
1774389191263,0.0561883,1.09526,-0.380649,1.74108e-13,1.1745200000000004e-13,3.58912e-14,3.3035,5,10.315,2,2.0
1774389191276,0.0579484,1.08873,-0.374252,1.7141600000000005e-13,1.16469e-13,2.4063900000000002e-14,3.27722,5,10.328,2,2.0
1774389191290,0.0580087,1.08559,-0.366437,1.6848900000000003e-13,1.1686000000000002e-13,1.4522900000000006e-14,3.28411,5,10.342,2,2.0
1774389191303,0.0586108,1.08136,-0.35985,1.6561500000000002e-13,1.1668500000000002e-13,5.195920000000002e-15,3.27626,5,10.355,2,2.0
1774389191316,0.0604678,1.07683,-0.35243,1.61566e-13,1.1607e-13,-3.325270000000002e-15,3.26137,5,10.368,2,2.0
1774389191330,0.0611333,1.0727,-0.344534,1.5729900000000005e-13,1.1570400000000001e-13,-1.19208e-14,3.2825,5,10.382,2,2.0
1774389191343,0.0637982,1.07031,-0.338062,1.5376000000000002e-13,1.1498100000000005e-13,-2.0543800000000004e-14,3.2562,5,10.395,2,2.0
1774389191357,0.0681617,1.06707,-0.33341,1.5096700000000007e-13,1.12265e-13,-2.81093e-14,3.3615,5,10.409,2,2.0
1774389191371,0.0677005,1.06438,-0.32862,1.48481e-13,1.0944900000000003e-13,-3.45782e-14,3.25659,5,10.423,2,2.0
1774389191384,0.0675265,1.05918,-0.325256,1.4508900000000002e-13,1.0568700000000001e-13,-3.872320000000001e-14,3.28009,5,10.436,2,2.0
1774389191397,0.0688335,1.05972,-0.321122,1.4321500000000004e-13,1.0153100000000002e-13,-4.215610000000001e-14,3.27842,5,10.449,2,2.0
1774389191411,0.0651292,1.0567,-0.316463,1.4246100000000003e-13,9.783980000000003e-14,-4.377360000000001e-14,3.27881,5,10.463,2,2.0
1774389191424,0.0644483,1.05523,-0.312478,1.41582e-13,9.374760000000002e-14,-4.554870000000002e-14,3.27065,5,10.476,2,2.0
1774389191438,0.0629324,1.05407,-0.308806,1.4246500000000004e-13,8.929840000000002e-14,-4.6950200000000006e-14,3.2854,5,10.49,2,2.0
1774389191451,0.0612052,1.05297,-0.305348,1.4377400000000001e-13,8.453350000000001e-14,-4.7789200000000015e-14,3.28694,5,10.503,2,2.0
1774389191464,0.0580481,1.05177,-0.302501,1.4653800000000003e-13,7.990740000000002e-14,-4.8645399999999995e-14,3.28002,5,10.516,2,2.0
1774389191478,0.0540254,1.05051,-0.299863,1.4964e-13,7.594330000000004e-14,-4.9770500000000004e-14,3.27783,5,10.53,2,2.0
1774389191491,0.0524742,1.04844,-0.297095,1.5258900000000004e-13,7.314360000000001e-14,-5.0113100000000017e-14,3.282,5,10.543,2,2.0
1774389191505,0.0526137,1.04504,-0.29463,1.5578800000000002e-13,7.038100000000001e-14,-5.1566800000000003e-14,3.26057,5,10.557,2,2.0
1774389191518,0.0502594,1.04136,-0.29302,1.5734700000000002e-13,6.824870000000001e-14,-5.254940000000001e-14,3.30405,5,10.57,2,2.0
1774389191531,0.0493853,1.0386,-0.290754,1.5899000000000004e-13,6.62402e-14,-5.31686e-14,3.26263,5,10.583,2,2.0
1774389191545,0.0490086,1.03636,-0.289292,1.59522e-13,6.412610000000001e-14,-5.2733900000000004e-14,3.30709,5,10.597,2,2.0
1774389191559,0.0475487,1.03532,-0.287777,1.60491e-13,6.21177e-14,-5.105620000000001e-14,3.63976,5,10.611,2,2.0
1774389191572,0.0471349,1.03299,-0.286135,1.6080600000000006e-13,5.998210000000001e-14,-4.878750000000001e-14,3.33257,5,10.624,2,2.0
1774389191585,0.0460558,1.03184,-0.284758,1.6044400000000003e-13,5.76666e-14,-4.6217900000000003e-14,3.26826,5,10.637,2,2.0
1774389191599,0.0445328,1.03163,-0.283772,1.60291e-13,5.56609e-14,-4.303460000000001e-14,3.25755,5,10.651,2,2.0
1774389191612,0.0421262,1.03234,-0.283127,1.6095900000000006e-13,5.400310000000001e-14,-3.835980000000001e-14,3.30085,5,10.664,2,2.0
1774389191626,0.0409138,1.03357,-0.282298,1.6317500000000003e-13,5.254970000000001e-14,-3.30181e-14,3.26365,5,10.678,2,2.0
1774389191639,0.0398826,1.03469,-0.281505,1.6659400000000004e-13,5.1353299999999996e-14,-2.7325200000000005e-14,3.2737,5,10.691,2,2.0
1774389191652,0.0388645,1.03625,-0.28128,1.7118200000000005e-13,5.037390000000002e-14,-2.1155200000000007e-14,3.27522,5,10.704,2,2.0
1774389191666,0.0383393,1.0391,-0.280798,1.7726e-13,4.93981e-14,-1.47147e-14,3.28257,5,10.718,2,2.0
1774389191679,0.0382108,1.04119,-0.280722,1.8490700000000003e-13,4.840420000000001e-14,-8.13882e-15,3.2755,5,10.731,3,3.0
1774389191692,0.0378316,1.0434,-0.280873,1.93222e-13,4.741470000000001e-14,-1.4307700000000002e-15,3.24833,5,10.744,3,3.0
1774389191706,0.037437,1.04448,-0.280954,2.0217799999999996e-13,4.658350000000001e-14,5.7274000000000015e-15,3.28405,5,10.758,3,3.0
1774389191719,0.0370917,1.04855,-0.28165,2.1237500000000004e-13,4.577740000000001e-14,1.2728100000000001e-14,3.26142,5,10.771,3,3.0
1774389191733,0.037306,1.04865,-0.282348,2.23915e-13,4.482390000000001e-14,1.9468900000000004e-14,3.28503,5,10.785,3,3.0
1774389191746,0.0391979,1.05018,-0.283667,2.3607800000000005e-13,4.3517100000000005e-14,2.5112200000000004e-14,3.27565,5,10.798,3,3.0
1774389191760,0.0404091,1.0501,-0.285483,2.48823e-13,4.1628500000000007e-14,2.989520000000001e-14,3.50989,5,10.812,3,3.0
1774389191773,0.0410976,1.04952,-0.287593,2.6117300000000005e-13,3.957610000000001e-14,3.402020000000001e-14,3.27526,5,10.825,3,3.0
1774389191786,0.043507,1.04921,-0.289867,2.7423100000000006e-13,3.7013600000000006e-14,3.707030000000001e-14,3.27289,5,10.838,3,3.0
1774389191800,0.0458538,1.04725,-0.292811,2.87597e-13,3.364000000000001e-14,3.9555400000000005e-14,3.29511,5,10.852,3,3.0
1774389191813,0.0470835,1.04644,-0.296491,3.0107500000000006e-13,2.9881900000000006e-14,4.124170000000001e-14,3.26633,5,10.865,3,3.0
1774389191827,0.048676,1.04404,-0.299401,3.1495600000000007e-13,2.5829300000000002e-14,4.316320000000001e-14,3.30639,5,10.879,3,3.0
1774389191840,0.0467928,1.04194,-0.303722,3.2883000000000007e-13,2.2051100000000005e-14,4.6852200000000005e-14,3.28767,5,10.892,3,3.0
1774389191854,0.0443834,1.04018,-0.308248,3.4283300000000003e-13,1.91614e-14,5.100240000000001e-14,3.33202,5,10.906,3,3.0
1774389191867,0.0441507,1.03768,-0.312822,3.5772000000000007e-13,1.61298e-14,5.5425000000000014e-14,3.28033,5,10.919,3,3.0
1774389191880,0.0437574,1.03171,-0.317954,3.7120800000000005e-13,1.3092700000000004e-14,6.04773e-14,3.29633,5,10.932,3,3.0
1774389191894,0.0449721,1.02454,-0.323684,3.83707e-13,1.0153100000000003e-14,6.57643e-14,3.28016,5,10.946,3,3.0
1774389191907,0.0446496,1.01476,-0.330616,3.94092e-13,7.57542e-15,7.141420000000001e-14,3.26016,5,10.959,3,3.0
1774389191921,0.0447683,1.00438,-0.337607,4.01262e-13,4.5214300000000006e-15,7.774910000000003e-14,3.30144,5,10.973,3,3.0
1774389191934,0.0444333,0.995337,-0.345349,4.0603000000000004e-13,1.9727400000000006e-15,8.315920000000003e-14,3.28618,5,10.986,3,3.0
1774389191947,0.0438141,0.982803,-0.353821,4.078320000000001e-13,3.7627600000000005e-16,8.87453e-14,3.30952,5,10.999,3,3.0
1774389191961,0.0449088,0.971736,-0.36158,4.067940000000001e-13,-7.53833e-16,9.404820000000003e-14,3.27452,5,11.013,3,3.0
1774389191974,0.0462547,0.960331,-0.370111,4.027770000000001e-13,-1.5465100000000006e-15,9.828280000000002e-14,3.33065,5,11.026,3,3.0
1774389191988,0.0491326,0.947769,-0.37909,3.9572800000000013e-13,-1.7552100000000002e-15,1.0067000000000003e-13,3.27296,5,11.04,3,3.0
1774389192001,0.0546926,0.93234,-0.387485,3.847320000000001e-13,-2.9456000000000008e-15,1.0179700000000002e-13,3.27415,5,11.053,3,3.0
1774389192015,0.0564647,0.914896,-0.396292,3.6754000000000007e-13,-4.5145300000000004e-15,1.0186700000000002e-13,3.30155,5,11.067,4,4.0
1774389192028,0.0627718,0.905378,-0.403828,3.44706e-13,-5.2033100000000005e-15,9.491170000000003e-14,3.2589,1,11.08,4,4.0
1774389192041,0.0830567,0.907125,-0.409336,3.2307999999999997e-13,-1.0058200000000001e-14,8.20861e-14,3.28257,3,11.093,4,4.0
1774389192055,0.0975004,0.920497,-0.412949,3.0515900000000006e-13,-1.8524500000000004e-14,6.501720000000001e-14,3.3182,3,11.107,4,4.0
1774389192068,0.105931,0.933711,-0.416286,2.9701200000000006e-13,-2.9701600000000004e-14,4.5488800000000005e-14,3.28544,1,11.12,4,4.0
1774389192082,0.0986187,0.945183,-0.420812,2.9274400000000006e-13,-4.0059000000000005e-14,2.90468e-14,3.31163,1,11.134,4,4.0
1774389192095,0.0886044,0.954072,-0.426111,2.93883e-13,-4.7754500000000015e-14,1.7350900000000002e-14,3.26742,5,11.147,4,4.0
1774389192111,0.0787718,0.958611,-0.43119,2.97339e-13,-5.25948e-14,1.1838800000000003e-14,3.27683,5,11.163,4,4.0
1774389192124,0.072647,0.961702,-0.435736,3.0389800000000005e-13,-5.5793400000000014e-14,1.0481100000000002e-14,3.24903,1,11.176,4,4.0
1774389192142,0.068082,0.959854,-0.441195,3.11935e-13,-5.78363e-14,1.3434300000000003e-14,7.24763,3,11.194,4,4.0
1774389192155,0.0643785,0.954339,-0.447994,3.19645e-13,-5.886540000000003e-14,1.8054500000000003e-14,3.28357,3,11.207,4,4.0
1774389192173,0.0618514,0.946801,-0.4547,3.26409e-13,-5.9019e-14,2.37386e-14,7.42421,3,11.225,4,4.0
1774389192186,0.0608761,0.938098,-0.461976,3.308490000000001e-13,-5.878280000000002e-14,2.9960200000000014e-14,3.23996,3,11.238,4,4.0
1774389192199,0.0601891,0.928495,-0.469661,3.3337100000000004e-13,-5.824310000000001e-14,3.539620000000001e-14,3.27753,3,11.251,4,4.0
1774389192213,0.0596495,0.917849,-0.477437,3.3383300000000007e-13,-5.73354e-14,4.01075e-14,3.24605,3,11.265,4,4.0
1774389192226,0.059977,0.90817,-0.485171,3.32517e-13,-5.5943400000000006e-14,4.460600000000001e-14,3.2542,3,11.278,4,4.0
1774389192239,0.0591585,0.899256,-0.492973,3.293490000000001e-13,-5.346910000000002e-14,4.882650000000001e-14,3.24989,3,11.291,4,4.0
1774389192253,0.0539769,0.8918,-0.502452,3.242810000000001e-13,-4.9562100000000006e-14,5.385500000000001e-14,3.27507,5,11.305,4,4.0
1774389192266,0.0556735,0.88703,-0.509915,3.19361e-13,-4.626390000000001e-14,5.664030000000001e-14,3.36211,5,11.318,4,4.0
1774389192280,0.0589936,0.880994,-0.516805,3.13389e-13,-4.343340000000001e-14,5.727840000000001e-14,3.23803,5,11.332,4,4.0
1774389192293,0.0650513,0.877027,-0.523352,3.074190000000001e-13,-4.1780699999999994e-14,5.61379e-14,3.27372,1,11.345,4,4.0
1774389192306,0.0698724,0.872305,-0.529815,3.00499e-13,-4.1501e-14,5.334440000000001e-14,3.23946,5,11.358,4,4.0
1774389192320,0.073682,0.869743,-0.536028,2.9347000000000006e-13,-4.214470000000002e-14,4.91618e-14,3.25242,3,11.372,4,4.0
1774389192333,0.0766202,0.867346,-0.541958,2.8663800000000004e-13,-4.3839900000000005e-14,4.434470000000001e-14,3.25894,3,11.385,4,4.0
1774389192346,0.0778712,0.865887,-0.547715,2.8011300000000007e-13,-4.6138000000000006e-14,3.968640000000001e-14,3.24846,3,11.398,4,4.0
1774389192360,0.0773271,0.863488,-0.552867,2.738210000000001e-13,-4.8718199999999996e-14,3.549060000000001e-14,3.25335,5,11.412,4,4.0
1774389192373,0.0753654,0.860757,-0.558531,2.67804e-13,-5.0716900000000007e-14,3.2253800000000005e-14,3.28326,5,11.425,4,4.0
1774389192386,0.071952,0.858507,-0.564139,2.6204000000000006e-13,-5.180280000000001e-14,3.0157700000000005e-14,3.27524,5,11.438,5,5.0
1774389192400,0.0685705,0.855385,-0.56963,2.56526e-13,-5.18259e-14,2.940380000000001e-14,3.25335,5,11.452,5,5.0
1774389192413,0.0645361,0.852207,-0.575564,2.51043e-13,-5.0541699999999995e-14,2.93602e-14,3.27487,5,11.465,5,5.0
1774389192427,0.0620447,0.848186,-0.581345,2.45611e-13,-4.833610000000001e-14,2.98371e-14,3.30163,3,11.479,5,5.0
1774389192440,0.0618725,0.844169,-0.587312,2.39738e-13,-4.544500000000002e-14,3.102810000000001e-14,3.32746,3,11.492,5,5.0
1774389192454,0.0620707,0.838983,-0.592857,2.328460000000001e-13,-4.2519099999999996e-14,3.139430000000001e-14,3.30318,3,11.506,5,5.0
1774389192467,0.0642035,0.834569,-0.598427,2.2557500000000005e-13,-3.9997000000000004e-14,3.1650100000000004e-14,3.27674,3,11.519,5,5.0
1774389192480,0.0671079,0.830881,-0.603443,2.1770900000000007e-13,-3.8451399999999997e-14,3.145050000000001e-14,3.32866,3,11.532,5,5.0
1774389192494,0.0704297,0.828187,-0.608262,2.1010400000000002e-13,-3.787890000000001e-14,3.001180000000001e-14,3.30663,3,11.546,5,5.0
1774389192507,0.0738519,0.825708,-0.612517,2.0243000000000003e-13,-3.83147e-14,2.796870000000001e-14,3.31183,3,11.559,5,5.0
1774389192521,0.0750851,0.823283,-0.617195,1.9510000000000005e-13,-3.938550000000001e-14,2.53807e-14,3.29479,3,11.573,5,5.0
1774389192534,0.0751113,0.820986,-0.621561,1.8793300000000005e-13,-4.050760000000001e-14,2.3006500000000003e-14,3.31029,3,11.586,5,5.0
1774389192548,0.0733853,0.818853,-0.625641,1.8097900000000003e-13,-4.108710000000001e-14,2.10866e-14,3.28978,5,11.6,5,5.0
1774389192561,0.0716601,0.818159,-0.629649,1.7455300000000004e-13,-4.11032e-14,1.9749600000000004e-14,3.29113,5,11.613,5,5.0
1774389192575,0.0694551,0.81789,-0.633471,1.6861100000000002e-13,-4.045470000000001e-14,1.8894500000000003e-14,3.29185,5,11.627,5,5.0
1774389192588,0.0687132,0.816768,-0.6372,1.6400900000000005e-13,-3.943160000000001e-14,1.8429800000000005e-14,3.26565,5,11.64,5,5.0
1774389192601,0.067961,0.815909,-0.640916,1.59519e-13,-3.81061e-14,1.8368000000000005e-14,3.33789,5,11.653,5,5.0
1774389192615,0.0671883,0.813549,-0.64432,1.5517e-13,-3.66623e-14,1.85623e-14,3.27757,5,11.667,5,5.0
1774389192628,0.0669406,0.812521,-0.647852,1.5110800000000003e-13,-3.5081100000000004e-14,1.9315200000000003e-14,3.32492,3,11.68,5,5.0
1774389192642,0.066362,0.811004,-0.651572,1.4729100000000002e-13,-3.36957e-14,2.0278500000000008e-14,3.29478,3,11.694,5,5.0
1774389192655,0.0666522,0.810066,-0.654638,1.4397000000000002e-13,-3.2357900000000006e-14,2.12648e-14,3.28981,3,11.707,5,5.0
1774389192669,0.067549,0.8095,-0.657677,1.40917e-13,-3.13136e-14,2.19689e-14,3.28772,3,11.721,5,5.0
1774389192682,0.0682144,0.808222,-0.660764,1.3834800000000002e-13,-3.05977e-14,2.25222e-14,3.29033,3,11.734,5,5.0
1774389192696,0.0690322,0.806263,-0.664229,1.3598700000000002e-13,-2.987050000000001e-14,2.3018700000000003e-14,3.36774,3,11.748,5,5.0
1774389192709,0.0691095,0.804582,-0.66735,1.3373700000000003e-13,-2.9385300000000015e-14,2.3012100000000005e-14,3.288,5,11.761,5,5.0
1774389192723,0.0691408,0.803156,-0.670527,1.31695e-13,-2.904300000000001e-14,2.31728e-14,3.28709,5,11.775,5,5.0
1774389192736,0.0685087,0.800852,-0.674173,1.2968200000000003e-13,-2.81204e-14,2.3337400000000002e-14,3.28885,5,11.788,5,5.0
1774389192749,0.0688758,0.799429,-0.676977,1.2796100000000001e-13,-2.7455100000000002e-14,2.336430000000001e-14,3.32635,5,11.801,5,5.0
1774389192763,0.0684155,0.797396,-0.679604,1.2590000000000002e-13,-2.682710000000001e-14,2.35438e-14,3.30872,5,11.815,5,5.0
1774389192776,0.0686052,0.795547,-0.682288,1.2377100000000003e-13,-2.6204400000000004e-14,2.3713300000000003e-14,3.29428,5,11.828,5,5.0
1774389192790,0.0684877,0.792936,-0.685495,1.21084e-13,-2.5839300000000006e-14,2.3646300000000002e-14,3.30644,5,11.842,5,5.0
1774389192803,0.0678095,0.790097,-0.688017,1.1821e-13,-2.512210000000001e-14,2.3788600000000002e-14,3.2967,5,11.855,5,5.0
1774389192817,0.0674064,0.788066,-0.690877,1.15176e-13,-2.4004100000000002e-14,2.40471e-14,3.29107,5,11.869,5,5.0
1774389192830,0.0675549,0.786316,-0.693196,1.1214600000000002e-13,-2.2854600000000007e-14,2.4680699999999996e-14,3.29565,5,11.882,5,5.0
1774389192844,0.0668534,0.783938,-0.695669,1.0905799999999999e-13,-2.1581199999999997e-14,2.5308800000000003e-14,3.33076,5,11.896,5,5.0
1774389192857,0.0671755,0.783436,-0.698205,1.0612600000000001e-13,-2.0340700000000005e-14,2.5897400000000003e-14,3.2987,5,11.909,5,5.0
1774389192870,0.0675689,0.782475,-0.700171,1.0333400000000001e-13,-1.93068e-14,2.6581400000000002e-14,3.27889,5,11.922,5,5.0
1774389192884,0.0683295,0.782272,-0.70234,1.0105700000000004e-13,-1.84379e-14,2.7025800000000005e-14,3.31766,5,11.936,5,5.0
1774389192897,0.0682988,0.780188,-0.704723,9.869840000000001e-14,-1.74765e-14,2.7359600000000005e-14,3.30665,5,11.949,5,5.0
1774389192911,0.0683441,0.777544,-0.706917,9.594110000000002e-14,-1.6243500000000006e-14,2.7237900000000008e-14,3.31396,5,11.963,5,5.0
1774389192924,0.0697541,0.774535,-0.708545,9.262760000000002e-14,-1.50412e-14,2.7054600000000004e-14,3.29639,5,11.976,5,5.0
1774389192938,0.0722129,0.7728,-0.710496,8.913180000000004e-14,-1.4261800000000005e-14,2.6414800000000005e-14,3.29817,5,11.99,5,5.0
1774389192951,0.0746709,0.770586,-0.71263,8.493290000000002e-14,-1.4121200000000002e-14,2.5108700000000007e-14,3.29065,5,12.003,5,5.0
1774389192964,0.076669,0.769088,-0.71451,8.09952e-14,-1.4643600000000003e-14,2.40814e-14,3.28937,5,12.016,5,5.0
1774389192978,0.0763911,0.767997,-0.716574,7.679460000000001e-14,-1.5064e-14,2.2871899999999997e-14,3.68969,5,12.03,5,5.0
1774389192992,0.0764135,0.766441,-0.718378,7.266680000000002e-14,-1.5525000000000002e-14,2.1683200000000003e-14,3.2615,5,12.044,5,5.0
1774389193007,0.0762535,0.764932,-0.720252,6.822680000000001e-14,-1.5814500000000005e-14,2.0428400000000002e-14,4.95198,3,12.059,5,5.0
1774389193020,0.0770934,0.763403,-0.721916,6.36462e-14,-1.6563100000000004e-14,1.8914200000000006e-14,3.26079,5,12.072,5,5.0
1774389193034,0.0781528,0.762444,-0.72371,5.87787e-14,-1.7441000000000006e-14,1.7236700000000002e-14,3.31111,3,12.086,5,5.0
1774389193047,0.078931,0.762006,-0.72503,5.4162800000000007e-14,-1.8518000000000006e-14,1.53407e-14,3.28702,3,12.099,5,5.0
1774389193061,0.0781484,0.761022,-0.726443,4.93863e-14,-1.94018e-14,1.3204200000000001e-14,4.10349,3,12.113,5,5.0
1774389193075,0.0779979,0.760294,-0.72758,4.44323e-14,-2.0146199999999998e-14,1.1183300000000002e-14,3.28783,3,12.127,5,5.0
1774389193088,0.077918,0.759503,-0.728934,3.97606e-14,-2.08488e-14,9.489800000000002e-15,3.28628,3,12.14,5,5.0
1774389193102,0.0779377,0.759055,-0.73041,3.521380000000001e-14,-2.17603e-14,8.259550000000001e-15,3.30365,3,12.154,5,5.0
1774389193115,0.0771665,0.758424,-0.731491,3.077650000000001e-14,-2.2329500000000006e-14,7.530770000000002e-15,3.25894,3,12.167,5,5.0
1774389193130,0.0763329,0.757746,-0.732343,2.6361200000000012e-14,-2.28326e-14,7.32673e-15,4.8734,3,12.182,5,5.0
1774389193144,0.0757386,0.757268,-0.733276,2.17096e-14,-2.3046200000000003e-14,6.718790000000001e-15,3.2839,3,12.196,5,5.0
1774389193157,0.0770175,0.757153,-0.734028,1.6895100000000004e-14,-2.3402e-14,5.669660000000001e-15,3.31122,3,12.209,5,5.0
1774389193170,0.0776104,0.755079,-0.734172,1.1609900000000003e-14,-2.3844900000000004e-14,2.572710000000001e-15,3.28844,3,12.222,5,5.0
1774389193184,0.0802915,0.753981,-0.73544,9.091790000000002e-15,-2.6245400000000006e-14,1.5901200000000003e-16,3.33955,3,12.236,5,5.0
1774389193197,0.0815313,0.753498,-0.735255,3.52921e-15,-2.81602e-14,-3.4167000000000005e-15,3.29231,3,12.249,5,5.0
1774389193211,0.0822792,0.753323,-0.737758,-1.6828100000000002e-15,-2.974070000000001e-14,-8.500300000000001e-15,3.25483,3,12.263,5,5.0
1774389193225,0.082514,0.747978,-0.737172,-1.3753200000000004e-14,-3.129240000000001e-14,-1.4694600000000006e-14,3.302,3,12.277,5,5.0
1774389193239,0.0845855,0.740956,-0.737487,-2.4409999999999997e-14,-3.42557e-14,-2.14364e-14,3.2747,3,12.291,5,5.0
1774389193256,0.0880079,0.740134,-0.737266,-3.6104800000000006e-14,-3.87271e-14,-2.7907100000000003e-14,7.24452,3,12.308,5,5.0
1774389193269,0.0914514,0.739808,-0.736851,-4.827819999999999e-14,-4.47888e-14,-3.4610000000000003e-14,3.31448,3,12.321,5,5.0
1774389193283,0.095449,0.741033,-0.736006,-5.905380000000001e-14,-5.29298e-14,-4.011050000000001e-14,3.32304,3,12.335,5,5.0
1774389193299,0.0960793,0.745098,-0.734889,-6.901080000000003e-14,-6.226260000000002e-14,-4.3576900000000005e-14,3.30026,3,12.351,5,5.0
1774389193313,0.0968103,0.747512,-0.733798,-7.69278e-14,-7.2759e-14,-4.29181e-14,3.31153,3,12.365,5,5.0
1774389193326,0.0991428,0.751806,-0.731763,-8.443070000000003e-14,-8.521000000000001e-14,-3.512840000000001e-14,3.2802,3,12.378,5,5.0
1774389193340,0.103295,0.754108,-0.72987,-9.066490000000003e-14,-1.0044000000000002e-13,-2.2140800000000005e-14,3.91254,3,12.392,5,5.0
1774389193353,0.109647,0.757654,-0.727526,-9.66393e-14,-1.1887800000000003e-13,-5.6511300000000016e-15,3.27522,3,12.405,5,5.0
1774389193367,0.117141,0.761121,-0.724526,-1.0198700000000004e-13,-1.4096300000000003e-13,1.30565e-14,3.23418,3,12.419,5,5.0
1774389193380,0.12561,0.764777,-0.721231,-1.06792e-13,-1.6660900000000004e-13,3.3532200000000005e-14,3.31768,3,12.432,5,5.0
1774389193394,0.133516,0.768647,-0.717417,-1.10397e-13,-1.9567600000000007e-13,5.5698200000000014e-14,3.26252,3,12.446,5,5.0
1774389193408,0.140895,0.771312,-0.712874,-1.14361e-13,-2.2881600000000004e-13,8.05645e-14,4.71512,3,12.46,5,5.0
1774389193422,0.147481,0.774138,-0.708433,-1.1797900000000002e-13,-2.6508100000000004e-13,1.0591600000000002e-13,3.23655,3,12.474,5,5.0
1774389193435,0.152904,0.775122,-0.704176,-1.2230600000000002e-13,-3.0358100000000003e-13,1.3306499999999997e-13,3.29396,3,12.487,5,5.0
1774389193448,0.158197,0.77634,-0.698781,-1.2776400000000004e-13,-3.449230000000001e-13,1.62198e-13,3.27005,3,12.5,5,5.0
1774389193462,0.160749,0.777014,-0.693461,-1.3437600000000002e-13,-3.877570000000001e-13,1.9175700000000002e-13,3.89825,3,12.514,5,5.0
1774389193476,0.166969,0.780285,-0.687755,-1.4136300000000003e-13,-4.3351000000000014e-13,2.2212800000000007e-13,3.2822,3,12.528,5,5.0
1774389193489,0.173878,0.78384,-0.680559,-1.4896400000000002e-13,-4.82709e-13,2.5497900000000007e-13,3.26907,3,12.541,5,5.0
1774389193503,0.179193,0.786951,-0.673089,-1.5693100000000002e-13,-5.347700000000001e-13,2.8831200000000005e-13,3.28474,3,12.555,5,5.0
1774389193516,0.180624,0.790353,-0.664719,-1.6491300000000004e-13,-5.871350000000001e-13,3.2101800000000004e-13,3.23585,3,12.568,5,5.0
1774389193531,0.177551,0.794525,-0.656811,-1.7344500000000005e-13,-6.39042e-13,3.5183700000000013e-13,4.78159,3,12.583,5,5.0
1774389193544,0.176203,0.799048,-0.648939,-1.8171700000000004e-13,-6.89947e-13,3.8127000000000005e-13,3.25115,3,12.596,5,5.0
1774389193558,0.173451,0.806149,-0.639884,-1.9012500000000004e-13,-7.39877e-13,4.08218e-13,3.28622,3,12.61,5,5.0
1774389193571,0.17161,0.811231,-0.629763,-1.9866400000000002e-13,-7.898569999999999e-13,4.36989e-13,3.27024,3,12.623,5,5.0
1774389193585,0.166998,0.819102,-0.619764,-2.0568399999999997e-13,-8.38678e-13,4.625790000000001e-13,3.89404,3,12.637,5,5.0
1774389193598,0.163934,0.826309,-0.608739,-2.1286300000000005e-13,-8.858400000000002e-13,4.88742e-13,3.28326,3,12.65,5,5.0
1774389193612,0.158302,0.83414,-0.598603,-2.1869300000000002e-13,-9.316070000000004e-13,5.125040000000001e-13,3.2377,3,12.664,5,5.0
1774389193626,0.152981,0.842973,-0.58828,-2.2437500000000002e-13,-9.76463e-13,5.341930000000002e-13,3.28394,3,12.678,5,5.0
1774389193639,0.145682,0.850428,-0.578365,-2.2875e-13,-1.01829e-12,5.522630000000001e-13,3.2432,3,12.691,5,5.0
1774389193654,0.139877,0.859414,-0.568041,-2.31552e-13,-1.0568100000000002e-12,5.70573e-13,4.02128,3,12.706,5,5.0
1774389193667,0.130289,0.86663,-0.557655,-2.33126e-13,-1.0907500000000002e-12,5.843120000000001e-13,3.26702,3,12.719,5,5.0
1774389193680,0.121164,0.875313,-0.547959,-2.33401e-13,-1.1223300000000001e-12,5.969070000000001e-13,3.27368,3,12.732,5,5.0
1774389193694,0.11531,0.881716,-0.538783,-2.3360399999999997e-13,-1.1521600000000002e-12,6.09703e-13,3.2727,3,12.746,5,5.0
1774389193707,0.109648,0.887903,-0.529581,-2.32597e-13,-1.17969e-12,6.206820000000001e-13,3.27613,3,12.759,5,5.0
1774389193720,0.107597,0.890702,-0.520867,-2.32091e-13,-1.2067600000000004e-12,6.320369999999999e-13,3.26037,3,12.772,5,5.0
1774389193734,0.106564,0.893688,-0.512096,-2.31768e-13,-1.2334800000000003e-12,6.43223e-13,3.25109,3,12.786,5,5.0
1774389193747,0.111481,0.891045,-0.504093,-2.347520000000001e-13,-1.2615800000000004e-12,6.516020000000001e-13,3.28931,3,12.799,5,5.0
1774389193761,0.123198,0.890717,-0.493622,-2.3909700000000005e-13,-1.2948900000000004e-12,6.63809e-13,3.25335,3,12.813,5,5.0
1774389193774,0.134605,0.893276,-0.48316,-2.4603300000000003e-13,-1.3342200000000003e-12,6.768650000000001e-13,3.28309,3,12.826,5,5.0
1774389193787,0.142246,0.898274,-0.470102,-2.53376e-13,-1.37775e-12,6.908460000000001e-13,3.26392,3,12.839,1,1.0
1774389193801,0.14872,0.903417,-0.456398,-2.61656e-13,-1.4245500000000006e-12,6.99816e-13,3.31991,3,12.853,1,1.0
1774389193814,0.160153,0.911047,-0.440623,-2.6880000000000003e-13,-1.4752700000000004e-12,7.104280000000002e-13,3.27422,3,12.866,1,1.0
1774389193828,0.170435,0.920072,-0.422027,-2.7491300000000005e-13,-1.5283400000000003e-12,7.189380000000001e-13,3.24759,3,12.88,1,1.0
1774389193841,0.171267,0.927518,-0.404275,-2.7946300000000007e-13,-1.5829199999999999e-12,7.237290000000001e-13,3.29202,3,12.893,1,1.0
1774389193854,0.1766,0.937286,-0.38084,-2.832060000000001e-13,-1.6344399999999998e-12,7.3216e-13,3.26939,3,12.906,1,1.0
1774389193868,0.18959,0.947535,-0.35559,-2.85711e-13,-1.6830700000000002e-12,7.450650000000003e-13,3.29116,3,12.92,1,1.0
1774389193881,0.198713,0.960143,-0.331722,-2.8602800000000005e-13,-1.72897e-12,7.60996e-13,3.26333,3,12.933,1,1.0
1774389193895,0.198948,0.971538,-0.308844,-2.8573700000000004e-13,-1.772290000000001e-12,7.772330000000001e-13,3.28742,3,12.947,1,1.0
1774389193908,0.191871,0.98126,-0.283871,-2.85137e-13,-1.8131900000000003e-12,7.909910000000003e-13,3.26524,3,12.96,1,1.0
1774389193921,0.180938,0.993226,-0.260512,-2.8402700000000004e-13,-1.85179e-12,7.98253e-13,3.24909,3,12.973,1,1.0
1774389193935,0.171872,1.00733,-0.239841,-2.7767399999999995e-13,-1.8882300000000003e-12,7.968400000000002e-13,3.28813,3,12.987,1,1.0
1774389193948,0.159829,1.02086,-0.218227,-2.6902600000000003e-13,-1.9226199999999997e-12,7.974240000000001e-13,3.24387,3,13.0,1,1.0
1774389193962,0.141981,1.03258,-0.199768,-2.5613300000000006e-13,-1.95509e-12,7.958260000000002e-13,3.27496,1,13.014,1,1.0
1774389193975,0.118059,1.03888,-0.181252,-2.40973e-13,-1.9857300000000007e-12,7.926860000000002e-13,3.26903,1,13.027,1,1.0
