timestamp,ax,ay,az,gx,gy,gz,delay_ms,classe_prevista,tempo_s,Fase,Classe_Prevista
1774300362234,-0.0490072,-0.270109,0.197494,0.559319,-0.744035,0.275401,3.2749,-1,0.0,0,0
1774300362247,-0.0937513,-0.24884,0.235956,0.705327,-0.787996,0.310514,3.28125,-1,0.013,0,0
1774300362261,-0.127821,-0.2402,0.249873,0.8294100000000001,-0.757553,0.307236,3.33477,-1,0.027,0,0
1774300362274,-0.14816,-0.244095,0.26162,0.9524590000000001,-0.702371,0.273097,3.3778,-1,0.04,0,0
1774300362288,-0.159249,-0.269017,0.269117,1.0680800000000001,-0.637895,0.218306,3.24547,-1,0.054,0,0
1774300362302,-0.163422,-0.308553,0.269527,1.17237,-0.569635,0.158383,4.53399,-1,0.068,0,0
1774300362316,-0.162269,-0.350673,0.267013,1.26675,-0.501385,0.107271,3.24677,-1,0.082,0,0
1774300362329,-0.157353,-0.393987,0.263081,1.35337,-0.437361,0.06410110000000001,3.2564,-1,0.095,0,0
1774300362342,-0.152075,-0.439123,0.258558,1.4342300000000001,-0.377811,0.0277167,3.2561,-1,0.108,0,0
1774300362356,-0.148892,-0.491249,0.252406,1.50983,-0.322019,-0.0028330100000000004,3.33416,0,0.122,0,0
1774300362369,-0.151338,-0.555427,0.242386,1.5749600000000001,-0.26740800000000003,-0.0305559,3.32349,0,0.135,0,0
1774300362383,-0.155789,-0.628186,0.227383,1.6262299999999998,-0.212008,-0.055725,3.29701,0,0.149,0,0
1774300362397,-0.159566,-0.713953,0.205664,1.65655,-0.15452400000000002,-0.0863526,3.87029,0,0.163,0,0
1774300362410,-0.156191,-0.791456,0.175574,1.6718700000000002,-0.0977435,-0.118349,3.28273,0,0.176,0,0
1774300362423,-0.140518,-0.850793,0.144684,1.6873500000000001,-0.0440911,-0.13925200000000001,3.26984,5,0.189,1,1
1774300362437,-0.106997,-0.92269,0.113854,1.6964599999999999,-0.00107695,-0.150989,3.29171,5,0.203,1,1
1774300362450,-0.0610797,-1.00094,0.0793682,1.68833,0.024960200000000002,-0.16251400000000002,3.30829,5,0.216,1,1
1774300362464,-0.0153954,-1.06723,0.0402588,1.66248,0.0340209,-0.17397600000000002,3.33451,5,0.23,1,1
1774300362477,0.0190097,-1.11623,-0.000694112,1.62532,0.0314885,-0.182348,3.28386,5,0.243,1,1
1774300362492,0.0331922,-1.13633,-0.0428522,1.59043,0.024572,-0.189686,3.34088,5,0.258,1,1
1774300362505,0.0285218,-1.13832,-0.0819714,1.5702600000000002,0.0208398,-0.20391800000000002,3.26523,5,0.271,1,1
1774300362519,0.00843657,-1.13492,-0.11743,1.56698,0.0262897,-0.231431,3.86114,5,0.285,1,1
1774300362532,-0.0173899,-1.14352,-0.150095,1.56886,0.0433592,-0.25784,3.26843,5,0.298,1,1
1774300362546,-0.0376061,-1.15748,-0.184038,1.56482,0.0694686,-0.269286,3.31399,5,0.312,1,1
1774300362559,-0.0449643,-1.17056,-0.22036,1.55052,0.0981393,-0.26722100000000004,3.30003,5,0.325,1,1
1774300362573,-0.0389241,-1.17976,-0.258286,1.5249100000000002,0.121698,-0.261891,3.30358,5,0.339,1,1
1774300362586,-0.0275229,-1.18536,-0.298783,1.4866300000000001,0.13522,-0.261509,3.30475,5,0.352,1,1
1774300362599,-0.0208106,-1.18795,-0.340118,1.43552,0.139321,-0.26485800000000004,3.27114,5,0.365,1,1
1774300362613,-0.0226861,-1.18595,-0.380874,1.37289,0.138076,-0.264722,3.4289,5,0.379,1,1
1774300362626,-0.0296192,-1.18291,-0.419684,1.29969,0.135899,-0.256384,3.28508,5,0.392,1,1
1774300362640,-0.0362031,-1.18374,-0.45366,1.21056,0.134105,-0.238797,3.27151,5,0.406,1,1
1774300362653,-0.0375488,-1.1863,-0.483232,1.11361,0.130543,-0.213629,3.3098,5,0.419,1,1
1774300362667,-0.0398809,-1.19385,-0.508182,1.00675,0.126296,-0.178751,3.30701,5,0.433,1,1
1774300362680,-0.0572738,-1.19652,-0.526041,0.8894070000000001,0.128418,-0.11762399999999999,3.36988,5,0.446,1,1
1774300362693,-0.0718504,-1.33007,-0.444231,0.696314,0.112219,-0.0527607,3.27232,5,0.459,1,1
1774300362707,-0.0872016,-1.34845,-0.404256,0.5939880000000001,0.105394,-0.039605100000000004,4.02084,5,0.473,1,1
1774300362721,-0.0720275,-1.27544,-0.371677,0.46403300000000003,0.103493,-0.019399,3.26412,5,0.487,1,1
1774300362734,-0.0739649,-1.24213,-0.358839,0.340293,0.0882996,0.00926661,3.26723,5,0.5,1,1
1774300362748,-0.0795193,-1.23402,-0.356075,0.251549,0.0819625,0.0173672,3.2729,5,0.514,1,1
1774300362761,-0.0819019,-1.22806,-0.349845,0.192994,0.08291570000000001,0.019919500000000003,3.2609,5,0.527,1,1
1774300362774,-0.0795059,-1.20683,-0.345356,0.150486,0.08830059999999999,0.0248131,3.30443,5,0.54,2,2
1774300362788,-0.0765704,-1.18389,-0.340209,0.129335,0.09183329999999999,0.034689700000000004,3.25812,5,0.554,2,2
1774300362801,-0.072333,-1.17104,-0.334136,0.118323,0.0918506,0.0387083,3.29675,5,0.567,2,2
1774300362814,-0.0710431,-1.16262,-0.319863,0.108582,0.0917325,0.037221000000000004,3.27408,5,0.58,2,2
1774300362828,-0.0685665,-1.1651,-0.314079,0.0990555,0.0877551,0.036188,3.33423,5,0.594,2,2
1774300362841,-0.0656249,-1.15266,-0.301981,0.0924845,0.0830393,0.0340171,3.30203,5,0.607,2,2
1774300362855,-0.062362,-1.14617,-0.295298,0.08371790000000001,0.07850030000000001,0.0323211,3.27555,5,0.621,2,2
1774300362868,-0.0591332,-1.13917,-0.288252,0.0786227,0.0739849,0.030545700000000002,3.35355,5,0.634,2,2
1774300362882,-0.0555751,-1.12969,-0.279524,0.0728409,0.0697844,0.0295879,3.26186,5,0.648,2,2
1774300362897,-0.0529696,-1.12431,-0.272832,0.06657980000000001,0.0665652,0.0288787,4.97709,5,0.663,2,2
1774300362910,-0.0522617,-1.11911,-0.267585,0.0606846,0.0641068,0.0287181,3.28299,5,0.676,2,2
1774300362923,-0.0509447,-1.10981,-0.257587,0.056399,0.060803,0.027228400000000003,3.38284,5,0.689,2,2
1774300362937,-0.0483743,-1.1039,-0.248094,0.0513852,0.0572699,0.0253632,3.27121,5,0.703,2,2
1774300362950,-0.0470713,-1.10016,-0.240273,0.0469442,0.053597900000000004,0.0233805,3.27766,5,0.716,2,2
1774300362964,-0.0445391,-1.09785,-0.232311,0.0437303,0.0499708,0.021291,3.2799,5,0.73,2,2
1774300362977,-0.0430308,-1.09301,-0.226301,0.04090900000000001,0.0468456,0.0191009,3.29027,5,0.743,2,2
1774300362990,-0.0404996,-1.09041,-0.220921,0.037912400000000006,0.0439745,0.0174383,3.29456,5,0.756,2,2
1774300363004,-0.0392487,-1.08593,-0.215557,0.0352311,0.041167,0.0158353,3.27242,5,0.77,2,2
1774300363017,-0.0372562,-1.08368,-0.208732,0.0321349,0.038428000000000004,0.0145031,3.2939,5,0.783,2,2
1774300363031,-0.0355796,-1.08202,-0.206362,0.029179,0.0360709,0.013748100000000001,3.27643,5,0.797,2,2
1774300363045,-0.0343013,-1.08098,-0.20005,0.0269647,0.0338725,0.0134259,3.77221,5,0.811,2,2
1774300363058,-0.0314556,-1.07735,-0.196904,0.025021,0.0315321,0.0137953,3.30327,5,0.824,2,2
1774300363072,-0.0291672,-1.07187,-0.194199,0.0225651,0.0294351,0.0140795,3.29532,5,0.838,2,2
1774300363085,-0.0275396,-1.07203,-0.192766,0.0195015,0.0273704,0.0147807,3.29214,5,0.851,2,2
1774300363099,-0.0268007,-1.06656,-0.185661,0.017699100000000002,0.0252676,0.0147737,3.26788,5,0.865,2,2
1774300363112,-0.0267602,-1.06467,-0.183788,0.013443700000000001,0.023531800000000002,0.01529,3.28225,5,0.878,2,2
1774300363125,-0.0273652,-1.06759,-0.181526,0.0106147,0.021692100000000002,0.015190200000000001,3.30523,5,0.891,2,2
1774300363139,-0.02745,-1.06386,-0.181735,0.0091618,0.0199602,0.0153273,3.89075,5,0.905,2,2
1774300363153,-0.0275204,-1.05774,-0.182396,0.00737494,0.018552700000000002,0.0154354,3.27621,5,0.919,2,2
1774300363166,-0.0275984,-1.05394,-0.181559,0.0047802,0.0170744,0.0154945,3.27568,5,0.932,2,2
1774300363179,-0.0271158,-1.05178,-0.180834,0.00258403,0.0158077,0.0156616,3.30686,5,0.945,2,2
1774300363193,-0.0264082,-1.05011,-0.177785,0.000558357,0.0146464,0.0161279,3.27093,5,0.959,2,2
1774300363206,-0.0264278,-1.04807,-0.176241,-0.00101512,0.0138844,0.0168121,3.38082,5,0.972,2,2
1774300363220,-0.0256758,-1.04699,-0.174422,-0.00214469,0.0129425,0.0173851,3.29594,5,0.986,2,2
1774300363234,-0.0256312,-1.04222,-0.170094,-0.00306092,0.011925,0.0172577,3.9766,5,1.0,2,2
1774300363247,-0.0242083,-1.04373,-0.165453,-0.005035039999999999,0.011397299999999999,0.017762800000000002,3.30179,5,1.013,2,2
1774300363261,-0.0242601,-1.04115,-0.163295,-0.00633726,0.0104451,0.017712699999999998,3.27551,5,1.027,2,2
1774300363274,-0.023379,-1.04527,-0.163339,-0.008200250000000001,0.00979486,0.018063700000000002,3.35838,5,1.04,2,2
1774300363288,-0.0237345,-1.03786,-0.155575,-0.0059670999999999995,0.00866286,0.0169903,3.31268,5,1.054,2,2
1774300363302,-0.0242989,-1.0271,-0.152589,-0.007546690000000001,0.0076672,0.0161956,3.31038,5,1.068,2,2
1774300363315,-0.0233952,-1.03261,-0.148515,-0.00996267,0.0063891,0.015364000000000001,3.27781,5,1.081,2,2
1774300363329,-0.0226059,-1.03428,-0.148704,-0.011266700000000001,0.005212710000000001,0.0149646,3.29969,5,1.095,2,2
1774300363342,-0.0208465,-1.03295,-0.141552,-0.011217,0.00407663,0.014381999999999999,3.27843,5,1.108,2,2
1774300363356,-0.0206393,-1.03159,-0.146268,-0.013080099999999999,0.0034282600000000002,0.014607300000000002,3.70416,5,1.122,2,2
1774300363369,-0.0194579,-1.03363,-0.142472,-0.0128388,0.0026578200000000004,0.013937699999999999,3.29577,5,1.135,2,2
1774300363383,-0.0226671,-1.02497,-0.150556,-0.013394699999999999,0.00210619,0.0132158,3.30956,5,1.149,3,3
1774300363396,-0.0210125,-1.02689,-0.145452,-0.013760900000000001,0.00171398,0.0129026,3.31045,5,1.162,3,3
1774300363410,-0.0204134,-1.01628,-0.141811,-0.0145349,0.00125384,0.012290200000000001,3.27953,5,1.176,3,3
1774300363423,-0.0183021,-1.02176,-0.14209,-0.0194619,0.000969399,0.013078099999999999,3.29419,5,1.189,3,3
1774300363436,-0.0182811,-1.02383,-0.141994,-0.020781,0.000392601,0.0133379,3.27429,5,1.202,3,3
1774300363450,-0.01934,-1.01905,-0.141496,-0.0233707,0.000803069,0.0138401,3.79803,5,1.216,3,3
1774300363464,-0.0201816,-1.02146,-0.141928,-0.026624400000000003,0.00102351,0.014883599999999999,3.27916,5,1.23,3,3
1774300363477,-0.0194588,-1.02251,-0.141892,-0.0296613,0.00110312,0.0160356,3.61977,5,1.243,3,3
1774300363491,-0.0212351,-1.02563,-0.144197,-0.034506100000000005,0.0017049600000000002,0.0178038,3.29851,5,1.257,3,3
1774300363504,-0.0257428,-1.01841,-0.141926,-0.0362188,0.0014380399999999998,0.0188134,3.27801,5,1.27,3,3
1774300363517,-0.0260585,-1.01371,-0.139349,-0.0424129,0.000740765,0.0207126,3.29201,5,1.283,3,3
1774300363531,-0.0208386,-1.02324,-0.139661,-0.0476386,-0.000272797,0.0241453,3.2801,5,1.297,3,3
1774300363545,-0.0146616,-1.01523,-0.140664,-0.0530849,-0.0021201500000000003,0.0296378,3.92697,5,1.311,3,3
1774300363558,-0.00728127,-1.01749,-0.13591,-0.062216600000000004,-0.00495149,0.0359826,3.27645,5,1.324,3,3
1774300363572,-0.00642878,-1.02499,-0.129901,-0.071945,-0.00797513,0.042039900000000005,3.28843,5,1.338,3,3
1774300363585,-0.0141037,-1.05818,-0.122584,-0.0918882,-0.007853200000000001,0.0385085,3.3094,5,1.351,3,3
1774300363598,-0.0196914,-1.05667,-0.122092,-0.115007,-0.00611098,0.0312101,3.27688,5,1.364,3,3
1774300363612,-0.0236676,-1.06911,-0.117136,-0.142109,-0.00325471,0.023045100000000002,3.29779,5,1.378,3,3
1774300363625,-0.029595,-1.07781,-0.113497,-0.17519700000000002,-0.000335999,0.013252900000000001,3.27306,5,1.391,3,3
1774300363639,-0.0324118,-1.09705,-0.113626,-0.211696,0.0023205,0.00244269,3.29279,5,1.405,3,3
1774300363652,-0.0346568,-1.10597,-0.111689,-0.251149,0.00584709,-0.009867780000000001,3.28162,5,1.418,3,3
1774300363666,-0.0359494,-1.11527,-0.112741,-0.293132,0.00852928,-0.0228065,3.71171,5,1.432,3,3
1774300363680,-0.0369078,-1.12567,-0.112316,-0.339668,0.010932599999999999,-0.035918700000000005,3.45927,5,1.446,3,3
1774300363693,-0.038497,-1.13952,-0.110372,-0.391181,0.013004100000000001,-0.050654700000000004,3.26893,5,1.459,4,4
1774300363706,-0.0398458,-1.1534,-0.108086,-0.447498,0.0143085,-0.0658957,3.29434,5,1.472,4,4
1774300363720,-0.0437837,-1.16769,-0.109349,-0.508193,0.0162463,-0.08235429999999999,3.2781,5,1.486,4,4
1774300363733,-0.0409398,-1.18506,-0.107866,-0.5743119999999999,0.0178399,-0.0969305,3.28936,5,1.499,4,4
1774300363747,-0.0283968,-1.20331,-0.108114,-0.645796,0.0173702,-0.10737500000000001,3.27658,5,1.513,4,4
1774300363761,-0.0215063,-1.22188,-0.10771,-0.7231449999999999,0.016044799999999998,-0.11527200000000001,3.91962,5,1.527,4,4
1774300363774,-0.0164015,-1.24131,-0.109064,-0.80366,0.014571,-0.121952,3.28075,5,1.54,4,4
1774300363787,-0.0105269,-1.25927,-0.117267,-0.88717,0.0113472,-0.12976800000000002,3.30834,5,1.553,4,4
1774300363801,-0.000670308,-1.26808,-0.129959,-0.9656480000000001,0.0070240599999999995,-0.142177,3.30314,5,1.567,4,4
1774300363814,0.0177028,-1.2757,-0.14247,-1.04296,-0.00383056,-0.157054,3.28149,5,1.58,4,4
1774300363827,0.0365537,-1.27592,-0.156238,-1.1052,-0.0193473,-0.168845,3.29243,5,1.593,4,4
1774300363841,0.0563204,-1.26683,-0.167855,-1.16071,-0.0403993,-0.176039,3.2763,5,1.607,4,4
1774300363854,0.0718805,-1.25442,-0.171693,-1.20854,-0.0670958,-0.178034,3.34364,5,1.62,4,4
1774300363868,0.0829697,-1.22304,-0.147774,-1.24784,-0.10073,-0.17246200000000003,3.27886,5,1.634,4,4
1774300363881,0.0976419,-1.11392,-0.117276,-1.24847,-0.134931,-0.15116300000000002,3.34284,5,1.647,4,4
1774300363895,0.104604,-0.980046,-0.108474,-1.17456,-0.1732,-0.119399,3.2944,3,1.661,5,5
1774300363908,0.109479,-0.952443,-0.0908431,-1.07342,-0.211536,-0.0902904,3.28186,3,1.674,5,5
1774300363921,0.109389,-0.932805,-0.070075,-0.9676130000000001,-0.25038900000000003,-0.0645401,3.28992,3,1.687,5,5
1774300363935,0.106569,-0.909606,-0.0513791,-0.862781,-0.28591500000000003,-0.039866000000000006,3.27697,3,1.701,5,5
1774300363948,0.0991006,-0.884593,-0.0364263,-0.7586830000000001,-0.314054,-0.015895,3.34169,3,1.714,5,5
1774300363961,0.0906452,-0.853914,-0.0216684,-0.650652,-0.33437500000000003,0.006598570000000001,3.27884,3,1.727,5,5
1774300363975,0.0806805,-0.824802,-0.00693667,-0.535849,-0.347044,0.022709299999999998,3.32205,3,1.741,5,5
1774300363988,0.071899,-0.800454,0.00709739,-0.4152,-0.353033,0.0284449,3.31756,3,1.754,5,5
1774300364002,0.0633841,-0.783844,0.0204323,-0.291647,-0.35287999999999997,0.0243145,3.27916,3,1.768,5,5
1774300364015,0.0562345,-0.771313,0.0320949,-0.16732,-0.34765700000000005,0.0138645,3.30725,3,1.781,5,5
1774300364028,0.0504973,-0.764818,0.0418488,-0.043112399999999995,-0.338647,0.00139736,3.28236,3,1.794,5,5
1774300364042,0.0448616,-0.762729,0.0510907,0.07960060000000001,-0.326579,-0.00961262,3.30038,2,1.808,5,5
1774300364056,0.0393229,-0.765482,0.0589567,0.201155,-0.312311,-0.019889399999999998,3.27516,2,1.822,5,5
1774300364069,0.0330014,-0.774831,0.0658062,0.320139,-0.295739,-0.0307544,3.27953,2,1.835,5,5
1774300364082,0.0244793,-0.793316,0.0703808,0.43345500000000003,-0.27587900000000004,-0.0430011,3.33273,2,1.848,5,5
1774300364096,0.0134578,-0.819288,0.0719794,0.538878,-0.250334,-0.056504700000000005,3.28814,2,1.862,5,5
1774300364109,0.00149831,-0.855347,0.0692906,0.632594,-0.217653,-0.0733487,3.28518,2,1.875,5,5
1774300364123,-0.0086783,-0.903612,0.061082,0.708712,-0.178374,-0.09576050000000001,3.3097,2,1.889,5,5
1774300364136,-0.013082,-0.941705,0.0468903,0.7737959999999999,-0.134071,-0.117164,3.30475,5,1.902,5,5
1774300364149,-0.00802561,-0.973007,0.0331164,0.840432,-0.0888702,-0.128614,3.27136,5,1.915,5,5
1774300364163,0.00810589,-1.02034,0.0166243,0.8975020000000001,-0.048658400000000004,-0.137696,3.27664,5,1.929,5,5
1774300364176,0.0318279,-1.06762,-0.00392982,0.9384950000000001,-0.0181354,-0.149048,3.27619,5,1.942,5,5
1774300364189,0.0525265,-1.10483,-0.0299164,0.967191,0.00368312,-0.156886,3.29968,5,1.955,5,5
1774300364203,0.0587816,-1.16953,-0.058653,0.9751420000000001,0.0216445,-0.156046,3.29682,5,1.969,5,5
1774300364216,0.0622114,-1.18183,-0.0884924,0.995599,0.0378233,-0.163226,3.27507,5,1.982,5,5
1774300364230,0.0589035,-1.18773,-0.115062,1.01809,0.0551928,-0.185957,3.28719,5,1.996,5,5
1774300364243,0.049601,-1.19527,-0.14078,1.03508,0.0746837,-0.21373799999999998,3.31336,5,2.009,1,1
1774300364256,0.0426166,-1.20408,-0.166334,1.05181,0.09421170000000001,-0.23816199999999998,3.31931,5,2.022,1,1
1774300364270,0.0420661,-1.21064,-0.192521,1.06029,0.110572,-0.254532,3.28527,5,2.036,1,1
1774300364283,0.0472945,-1.21881,-0.220104,1.0590300000000001,0.12016600000000001,-0.264567,3.28234,5,2.049,1,1
1774300364297,0.0543336,-1.21764,-0.247666,1.0487900000000001,0.121184,-0.270237,3.30892,5,2.063,1,1
1774300364310,0.0578191,-1.22173,-0.276307,1.02687,0.11451900000000001,-0.273546,3.27182,5,2.076,1,1
1774300364323,0.054447,-1.21897,-0.305746,0.994615,0.103874,-0.272448,3.28394,5,2.089,1,1
1774300364337,0.0443252,-1.21275,-0.334773,0.9552800000000001,0.0937695,-0.26453499999999996,3.27249,5,2.103,1,1
1774300364350,0.0319767,-1.20626,-0.363171,0.908894,0.0869468,-0.250827,3.29597,5,2.116,1,1
1774300364364,0.0209477,-1.20769,-0.390733,0.853763,0.0829989,-0.233884,3.27443,5,2.13,1,1
1774300364377,0.0122162,-1.20535,-0.416684,0.790412,0.08118220000000001,-0.21278400000000003,3.27462,5,2.143,1,1
1774300364390,0.000204239,-1.20686,-0.442375,0.716595,0.08307270000000001,-0.185626,3.32632,5,2.156,1,1
1774300364404,-0.0169091,-1.20648,-0.465812,0.631992,0.0907961,-0.14544200000000002,3.28286,5,2.17,1,1
1774300364417,-0.0163404,-1.16345,-0.459182,0.549069,0.10213699999999999,-0.102344,3.30562,5,2.183,1,1
1774300364431,-0.00636896,-1.2875,-0.459013,0.377962,0.089574,-0.061350600000000005,3.28056,5,2.197,1,1
1774300364444,-0.00948568,-1.23121,-0.384102,0.32058000000000003,0.0674906,-0.04642960000000001,3.3191,5,2.21,1,1
1774300364457,0.00536432,-1.17816,-0.33963,0.20679099999999997,0.0618637,-0.0150597,3.27992,5,2.223,1,1
1774300364471,0.000752194,-1.17912,-0.322919,0.0996247,0.04518830000000001,0.016691499999999998,3.3291,5,2.237,1,1
1774300364484,-0.00828132,-1.15851,-0.322848,0.024156499999999997,0.0426964,0.0295043,3.29005,5,2.25,1,1
1774300364498,-0.01645,-1.15012,-0.320634,-0.0173581,0.048193,0.0330689,3.29531,5,2.264,1,1
1774300364511,-0.0213466,-1.1407,-0.313189,-0.0380164,0.0546229,0.0342027,3.28047,5,2.277,1,1
1774300364524,-0.0199006,-1.12206,-0.312272,-0.051726900000000006,0.0544749,0.0365575,3.26903,5,2.29,2,2
1774300364538,-0.0186032,-1.12337,-0.306506,-0.055856199999999995,0.051642,0.036802,3.28171,5,2.304,2,2
1774300364551,-0.0214198,-1.1187,-0.296529,-0.0540419,0.049683000000000005,0.032695300000000004,3.27329,5,2.317,2,2
1774300364565,-0.0220632,-1.11295,-0.286497,-0.0521967,0.04886580000000001,0.0277912,3.31277,5,2.331,2,2
1774300364578,-0.0227533,-1.10811,-0.278207,-0.051272700000000004,0.046976899999999995,0.023457699999999998,3.3102,5,2.344,2,2
1774300364592,-0.0208507,-1.10327,-0.270535,-0.049325900000000006,0.04446170000000001,0.0199624,3.73649,5,2.358,2,2
1774300364605,-0.0179956,-1.09721,-0.262441,-0.047214200000000005,0.040777400000000005,0.0168559,3.28527,5,2.371,2,2
1774300364619,-0.0154576,-1.09257,-0.256494,-0.045285200000000005,0.0360366,0.0149898,3.28029,5,2.385,2,2
1774300364632,-0.0141837,-1.08679,-0.249366,-0.043717,0.0323538,0.0134382,3.34442,5,2.398,2,2
1774300364645,-0.0131364,-1.08261,-0.243362,-0.0433244,0.029785400000000004,0.012855700000000001,3.29508,5,2.411,2,2
1774300364659,-0.012658,-1.07766,-0.233915,-0.0431593,0.0281147,0.012357199999999999,3.29505,5,2.425,2,2
1774300364672,-0.011389,-1.07381,-0.224646,-0.0429564,0.0266404,0.0121651,3.27632,5,2.438,2,2
1774300364686,-0.0103358,-1.07,-0.219124,-0.043325800000000005,0.0253045,0.012124999999999999,3.27519,5,2.452,2,2
1774300364699,-0.00937128,-1.06628,-0.207043,-0.0424371,0.023863699999999998,0.012091400000000002,3.29805,5,2.465,2,2
1774300364712,-0.00948462,-1.06253,-0.195608,-0.0425915,0.022876300000000002,0.012338100000000001,3.30647,5,2.478,2,2
1774300364726,-0.00877088,-1.06462,-0.189957,-0.0422449,0.022595100000000003,0.0124895,3.28814,5,2.492,2,2
1774300364739,-0.00855813,-1.05979,-0.185793,-0.0406803,0.0227663,0.0125126,3.27581,5,2.505,2,2
1774300364753,-0.00813048,-1.0561,-0.182504,-0.0400598,0.0226283,0.013091,3.29618,5,2.519,2,2
1774300364766,-0.0074119,-1.05586,-0.177619,-0.040069299999999995,0.0225408,0.013722600000000001,3.27151,5,2.532,2,2
1774300364779,-0.00708776,-1.05533,-0.173428,-0.0397999,0.0218845,0.014314499999999999,3.26701,5,2.545,2,2
1774300364793,-0.00674576,-1.05367,-0.171919,-0.0394301,0.0213377,0.015100100000000002,3.67371,5,2.559,2,2
1774300364806,-0.00665361,-1.05095,-0.170091,-0.0387983,0.020783100000000002,0.0156876,3.26301,5,2.572,2,2
1774300364820,-0.00495328,-1.05017,-0.166507,-0.0384547,0.019643,0.016490400000000002,3.34684,5,2.586,2,2
1774300364833,-0.00367965,-1.04799,-0.163549,-0.0382459,0.0184385,0.0171154,3.27468,5,2.599,2,2
1774300364847,-0.00335858,-1.05142,-0.163807,-0.0386869,0.017519800000000002,0.0178938,3.31434,5,2.613,2,2
1774300364860,-0.00420465,-1.04964,-0.160892,-0.0375145,0.0163658,0.0179563,3.27697,5,2.626,2,2
1774300364873,-0.00367911,-1.04883,-0.158436,-0.037482600000000005,0.0151352,0.0186618,3.25968,5,2.639,2,2
1774300364887,-0.00442575,-1.04654,-0.157412,-0.0377437,0.013896599999999999,0.0189381,3.26984,5,2.653,2,2
1774300364900,-0.00363429,-1.05073,-0.158162,-0.0379088,0.013031500000000001,0.0198241,3.29599,5,2.666,2,2
1774300364913,-0.00381702,-1.04106,-0.153861,-0.0357781,0.0120607,0.0197826,3.28095,5,2.679,2,2
1774300364927,-0.00426935,-1.04055,-0.153987,-0.0379932,0.011264300000000001,0.0205355,3.29553,5,2.693,2,2
1774300364940,-0.00321781,-1.04592,-0.150146,-0.0379302,0.0103499,0.0207795,3.34632,5,2.706,2,2
1774300364954,-0.00361093,-1.04264,-0.154417,-0.0366847,0.00984212,0.0212967,3.28036,5,2.72,2,2
1774300364967,-0.00415769,-1.03739,-0.150824,-0.035282100000000004,0.00895606,0.0212668,3.26582,5,2.733,2,2
1774300364980,-0.00495814,-1.03865,-0.15057,-0.0356409,0.00853505,0.021624,3.27551,5,2.746,2,2
1774300364994,-0.00418611,-1.03459,-0.141284,-0.033590300000000003,0.007636680000000001,0.021322999999999998,3.26581,5,2.76,2,2
1774300365007,-0.00441944,-1.03437,-0.146925,-0.0345279,0.00708843,0.0216214,3.3074,5,2.773,2,2
1774300365021,-0.00344675,-1.03328,-0.139474,-0.0326126,0.0059629,0.0209395,3.26397,5,2.787,2,2
1774300365034,-0.00490823,-1.03557,-0.143892,-0.033887600000000004,0.005512820000000001,0.0209896,3.30762,5,2.8,2,2
1774300365047,-0.00538758,-1.04151,-0.141934,-0.0316057,0.004587,0.0199278,3.30557,5,2.813,2,2
1774300365061,-0.00690297,-1.03152,-0.141118,-0.028454100000000003,0.00375166,0.0192211,3.2837,5,2.827,2,2
1774300365074,-0.00719899,-1.03077,-0.139944,-0.0290375,0.00313444,0.0186825,3.28436,5,2.84,2,2
1774300365087,-0.00726853,-1.03327,-0.140454,-0.028265099999999998,0.0023506,0.0180498,3.27796,5,2.853,2,2
1774300365101,-0.00681186,-1.0293,-0.140002,-0.0268894,0.0017049200000000002,0.017517,3.30125,5,2.867,2,2
1774300365114,-0.00632178,-1.02774,-0.137915,-0.027076799999999998,0.00107406,0.0169155,3.26229,5,2.88,2,2
1774300365128,-0.00682472,-1.02883,-0.139828,-0.027536200000000004,0.000568496,0.0166603,3.28358,5,2.894,2,2
1774300365141,-0.00731635,-1.03107,-0.139916,-0.0275331,-2.90729e-06,0.0162139,3.27188,5,2.907,2,2
1774300365154,-0.00762632,-1.02966,-0.140524,-0.0270249,-0.0006064870000000001,0.0158311,3.2789,5,2.92,2,2
1774300365168,-0.00750634,-1.02709,-0.139289,-0.0271875,-0.00112055,0.0156967,3.27244,5,2.934,2,2
1774300365181,-0.0067937,-1.02569,-0.13891,-0.027675,-0.00161862,0.015587,3.32638,5,2.947,2,2
1774300365194,-0.00731872,-1.02475,-0.135697,-0.0281907,-0.00170766,0.0155819,3.28803,5,2.96,3,3
1774300365208,-0.00776739,-1.02162,-0.132901,-0.0286048,-0.0019373,0.0154358,3.29479,5,2.974,3,3
1774300365221,-0.00786545,-1.02175,-0.130367,-0.0301389,-0.00188001,0.015640400000000002,3.2876,5,2.987,3,3
1774300365235,-0.00787381,-1.02111,-0.129684,-0.031278600000000004,-0.00167179,0.0162404,3.26549,5,3.001,3,3
1774300365248,-0.006686,-1.02297,-0.130162,-0.0327056,-0.00147097,0.0173419,3.31497,5,3.014,3,3
1774300365261,-0.00710895,-1.01897,-0.126894,-0.0335344,-0.00155974,0.018197500000000002,3.2984,5,3.027,3,3
1774300365275,-0.00744935,-1.01586,-0.127537,-0.0381661,-0.00159642,0.020182600000000002,3.27177,5,3.041,3,3
1774300365288,-0.0118428,-1.01607,-0.128002,-0.040448399999999995,-0.0012756500000000001,0.0218337,3.2854,5,3.054,3,3
1774300365302,-0.0142823,-1.01472,-0.125351,-0.0440457,-0.00111418,0.0223603,3.30482,5,3.068,3,3
1774300365315,-0.010444,-1.0232,-0.12492,-0.048571600000000006,-0.0011201899999999999,0.0248655,3.28777,5,3.081,3,3
1774300365328,-0.00344232,-1.01426,-0.126663,-0.0523342,0.00031283900000000003,0.0289644,3.27853,5,3.094,3,3
1774300365342,-0.00193581,-1.01688,-0.122715,-0.058638899999999994,0.0008262419999999999,0.0326407,3.27703,5,3.108,3,3
1774300365355,-0.000196238,-1.01937,-0.119484,-0.0653564,0.000377401,0.0376436,3.27255,5,3.121,3,3
1774300365368,0.00364535,-1.0201,-0.117152,-0.0734013,-0.00103966,0.0437961,3.26927,5,3.134,3,3
1774300365382,0.00505543,-1.0217,-0.114879,-0.0832643,-0.0035889900000000002,0.048271800000000004,3.27025,5,3.148,3,3
1774300365395,-0.000995239,-1.06295,-0.103641,-0.106122,-0.00237716,0.0415006,3.31155,5,3.161,3,3
1774300365409,-0.00196602,-1.07009,-0.10654,-0.133705,-0.00110912,0.032338900000000004,3.32075,5,3.175,3,3
1774300365422,-0.00659922,-1.07185,-0.105351,-0.16544799999999998,0.00120535,0.0237425,3.27877,5,3.188,3,3
1774300365435,-0.0135068,-1.08919,-0.105537,-0.20579,0.00277341,0.0152172,3.2844,5,3.201,3,3
1774300365449,-0.0174965,-1.09745,-0.104766,-0.24601900000000002,0.00458322,0.00358187,3.27368,5,3.215,3,3
1774300365462,-0.0213972,-1.10446,-0.104807,-0.29022600000000004,0.006903820000000001,-0.00950318,3.2622,5,3.228,4,4
1774300365475,-0.0263764,-1.11338,-0.105327,-0.336731,0.00924411,-0.0242778,3.26488,5,3.241,4,4
1774300365489,-0.0339139,-1.12477,-0.106529,-0.38873399999999997,0.012202500000000002,-0.0414436,3.25842,5,3.255,4,4
1774300365502,-0.0381429,-1.13556,-0.10675,-0.442602,0.015889800000000003,-0.0614703,3.55266,5,3.268,4,4
1774300365516,-0.034222,-1.1568,-0.108808,-0.503811,0.0189378,-0.080335,3.2759,5,3.282,4,4
1774300365529,-0.0264474,-1.16905,-0.107348,-0.568086,0.0197938,-0.09705830000000001,3.28631,5,3.295,4,4
1774300365543,-0.0211161,-1.19325,-0.112327,-0.641962,0.0193943,-0.110707,3.28181,5,3.309,4,4
1774300365556,-0.015324,-1.20531,-0.107543,-0.717915,0.018028100000000002,-0.12305500000000001,3.27547,5,3.322,4,4
1774300365569,-0.0108849,-1.2281,-0.111851,-0.80256,0.0161006,-0.134718,3.28205,5,3.335,4,4
1774300365583,-0.00538003,-1.24403,-0.117145,-0.883767,0.0133134,-0.14777900000000002,3.2719,5,3.349,4,4
1774300365596,0.0114898,-1.24853,-0.129116,-0.9603510000000001,0.005685679999999999,-0.167724,3.28151,5,3.362,4,4
1774300365609,0.0324479,-1.25173,-0.140787,-1.03084,-0.00827098,-0.184607,3.30058,5,3.375,4,4
1774300365623,0.0523186,-1.24882,-0.15371,-1.09276,-0.027272400000000002,-0.19415,3.3014,5,3.389,4,4
1774300365636,0.0714484,-1.24066,-0.162832,-1.1451900000000002,-0.051964699999999996,-0.20132000000000003,3.28016,5,3.402,4,4
1774300365650,0.0864211,-1.22632,-0.163687,-1.18965,-0.0810868,-0.205387,3.31499,5,3.416,4,4
1774300365663,0.0939912,-1.16794,-0.136829,-1.2143899999999999,-0.114497,-0.200978,3.29088,5,3.429,4,4
1774300365676,0.103718,-1.05641,-0.118172,-1.1935,-0.148761,-0.175416,3.28903,5,3.442,4,4
1774300365690,0.110916,-0.969564,-0.104367,-1.10548,-0.18601900000000002,-0.145152,3.27612,3,3.456,4,4
1774300365703,0.113091,-0.928283,-0.0886343,-1.00513,-0.220475,-0.11503600000000001,3.65472,3,3.469,5,5
1774300365717,0.114135,-0.896763,-0.067216,-0.899603,-0.255432,-0.08371840000000001,3.29986,3,3.483,5,5
1774300365730,0.112154,-0.87008,-0.0499801,-0.7929590000000001,-0.287883,-0.0528688,3.26379,3,3.496,5,5
1774300365744,0.106705,-0.846229,-0.0342454,-0.687267,-0.315329,-0.025912,3.29323,3,3.51,5,5
1774300365757,0.0997109,-0.82071,-0.0198928,-0.579774,-0.337,-0.00434234,3.27288,3,3.523,5,5
1774300365770,0.0903749,-0.798858,-0.00638136,-0.468904,-0.352159,0.0115258,3.30244,3,3.536,5,5
1774300365784,0.0794826,-0.779948,0.0061014,-0.35456699999999997,-0.35966000000000004,0.0197598,3.28855,3,3.55,5,5
1774300365797,0.0682018,-0.76668,0.0181664,-0.237013,-0.359649,0.020218600000000003,3.27186,3,3.563,5,5
1774300365811,0.0564214,-0.759587,0.0290631,-0.119018,-0.35209,0.0146742,3.35605,3,3.577,5,5
1774300365824,0.0460744,-0.757043,0.0388427,-0.0018359700000000001,-0.337804,0.00709858,3.26082,2,3.59,5,5
1774300365837,0.0362867,-0.759031,0.0476287,0.114438,-0.318218,-0.00102836,3.28068,2,3.603,5,5
1774300365851,0.0279413,-0.766078,0.0556781,0.229911,-0.294699,-0.010014,3.27819,2,3.617,5,5
1774300365864,0.0206442,-0.778806,0.0620516,0.343454,-0.267832,-0.019660200000000003,3.26368,2,3.63,5,5
1774300365877,0.0146058,-0.800438,0.0664915,0.452619,-0.237989,-0.0300971,3.26688,2,3.643,5,5
1774300365891,0.00926922,-0.831277,0.0674166,0.554162,-0.205384,-0.0424662,3.35362,2,3.657,5,5
1774300365904,0.00607719,-0.872074,0.0638598,0.643492,-0.17055700000000001,-0.0590742,3.34592,5,3.67,5,5
1774300365918,0.0040177,-0.918454,0.050924,0.718636,-0.134113,-0.0835114,3.30066,5,3.684,5,5
1774300365931,0.00734402,-0.954542,0.0361623,0.784143,-0.0975638,-0.102193,3.26307,5,3.697,5,5
1774300365944,0.0185005,-0.995725,0.0195798,0.843789,-0.0634969,-0.110415,3.28381,5,3.71,5,5
1774300365958,0.0393014,-1.04281,0.000850376,0.89119,-0.0379093,-0.116798,3.26962,5,3.724,5,5
1774300365971,0.0612961,-1.08555,-0.02684,0.926513,-0.0230186,-0.129712,3.27366,5,3.737,5,5
1774300365985,0.0709579,-1.11449,-0.0527534,0.937456,-0.014033,-0.139919,3.25949,5,3.751,5,5
1774300365998,0.0746132,-1.14037,-0.0809503,0.9461539999999999,-0.00743104,-0.149823,3.2809,5,3.764,5,5
1774300366011,0.0699729,-1.14999,-0.107231,0.9518460000000001,0.000633194,-0.16612500000000002,3.30881,5,3.777,1,1
1774300366025,0.058809,-1.15884,-0.133077,0.950017,0.0110497,-0.18933599999999998,3.27714,5,3.791,1,1
1774300366038,0.0471618,-1.16444,-0.158679,0.948676,0.021361500000000002,-0.216769,3.34044,5,3.804,1,1
1774300366052,0.0398676,-1.16734,-0.184806,0.949196,0.0305725,-0.24338200000000001,3.28201,5,3.818,1,1
1774300366065,0.0386366,-1.17132,-0.211029,0.9464619999999999,0.036265200000000004,-0.264028,3.30033,5,3.831,1,1
1774300366078,0.0400859,-1.16765,-0.237899,0.941115,0.0360851,-0.275414,3.2744,5,3.844,1,1
1774300366092,0.0416107,-1.16413,-0.266658,0.9296890000000001,0.029714900000000002,-0.276764,3.30209,5,3.858,1,1
1774300366105,0.040912,-1.16071,-0.295237,0.91093,0.0174034,-0.270085,3.26146,5,3.871,1,1
1774300366118,0.0368486,-1.15516,-0.323816,0.884326,0.0015991,-0.26101199999999997,3.29868,5,3.884,1,1
1774300366132,0.0293649,-1.15592,-0.352298,0.846814,-0.014791700000000001,-0.251509,3.27177,5,3.898,1,1
1774300366145,0.0201691,-1.15442,-0.379802,0.79886,-0.0293852,-0.237735,3.28042,5,3.911,1,1
1774300366159,0.00884505,-1.15406,-0.406412,0.7399120000000001,-0.0393451,-0.213897,3.31994,5,3.925,1,1
1774300366172,-0.00489855,-1.15495,-0.431293,0.673295,-0.0435652,-0.180044,3.26827,5,3.938,1,1
1774300366185,-0.0227923,-1.16135,-0.454701,0.59766,-0.0394216,-0.135656,3.30377,5,3.951,1,1
1774300366199,0.01252,-1.28549,-0.440507,0.498272,-0.0326202,-0.07555100000000001,3.27171,5,3.965,1,1
1774300366213,0.0134458,-1.18773,-0.414986,0.423625,-0.0250271,-0.035259900000000004,3.68161,5,3.979,1,1
1774300366226,0.0276026,-1.1521,-0.374128,0.31196,-0.020955599999999998,0.00493355,3.27105,1,3.992,1,1
1774300366239,0.0225411,-1.16477,-0.356026,0.209304,-0.0263272,0.034998100000000004,3.2621,1,4.005,1,1
1774300366253,0.0100456,-1.15444,-0.352521,0.132633,-0.0232747,0.0445061,3.30929,1,4.019,1,1
1774300366266,0.00076586,-1.13984,-0.349948,0.086357,-0.0136538,0.0467411,3.26986,2,4.032,1,1
1774300366279,-0.00127489,-1.12827,-0.340922,0.0560616,0.00181603,0.0471423,3.28714,2,4.045,1,1
1774300366293,-0.00261781,-1.10819,-0.332963,0.040212700000000004,0.00790146,0.050107200000000005,3.27677,2,4.059,1,1
1774300366306,-0.0033468,-1.09942,-0.324616,0.0308235,0.0106097,0.050084000000000004,3.28303,2,4.072,1,1
1774300366320,-0.00462046,-1.09951,-0.313537,0.025377900000000002,0.010965100000000002,0.0469835,3.30351,5,4.086,1,1
1774300366333,-0.00465329,-1.09659,-0.300242,0.021158299999999998,0.011373500000000002,0.0441426,3.31388,5,4.099,2,2
1774300366346,-0.00372376,-1.09344,-0.291457,0.016777200000000003,0.0116133,0.0421718,3.29547,5,4.112,2,2
1774300366360,-0.00252525,-1.0866,-0.286793,0.0139221,0.011587,0.0410951,3.27831,5,4.126,2,2
1774300366373,0.000179669,-1.08215,-0.27912,0.0111416,0.0111683,0.0403015,3.28436,5,4.139,2,2
1774300366386,0.00166658,-1.07941,-0.272593,0.00836284,0.0109015,0.040113300000000005,3.26638,5,4.152,2,2
1774300366400,0.00269341,-1.0756,-0.265487,0.00591981,0.0108295,0.039897100000000005,3.27386,5,4.166,2,2
1774300366414,0.00288525,-1.07147,-0.257817,0.00312568,0.0110528,0.0395133,3.80957,5,4.18,2,2
1774300366427,0.00196898,-1.0672,-0.249553,0.0007195060000000001,0.0114347,0.0393008,3.26347,5,4.193,2,2
1774300366440,0.00175475,-1.06254,-0.241671,-0.000947961,0.0116069,0.0385436,3.31984,5,4.206,2,2
1774300366454,0.00318345,-1.05665,-0.230601,-0.00223501,0.011289800000000001,0.0375248,3.28586,5,4.22,2,2
1774300366467,0.00374891,-1.05421,-0.223847,-0.00440044,0.0110291,0.036434799999999996,3.29931,5,4.233,2,2
1774300366481,0.00386256,-1.05146,-0.213001,-0.0051213100000000004,0.010787199999999999,0.035303100000000004,3.26947,5,4.247,2,2
1774300366494,0.00436628,-1.04877,-0.205308,-0.006268470000000001,0.0107816,0.0347444,3.28179,5,4.26,2,2
1774300366507,0.00513625,-1.04255,-0.198572,-0.00714147,0.0106949,0.0339945,3.27414,5,4.273,2,2
1774300366521,0.00575511,-1.046,-0.197394,-0.00979814,0.0108315,0.0337447,3.29436,5,4.287,2,2
1774300366534,0.00660314,-1.04158,-0.191516,-0.00862766,0.010446599999999999,0.0330294,3.27438,5,4.3,2,2
1774300366547,0.00533209,-1.03723,-0.188287,-0.010139100000000002,0.0100019,0.0323799,3.27864,5,4.313,2,2
1774300366561,0.00506688,-1.04303,-0.18553,-0.0110733,0.00910263,0.0313215,3.26894,5,4.327,2,2
1774300366574,0.00478123,-1.04287,-0.186171,-0.00977561,0.00817242,0.0303225,3.25801,5,4.34,2,2
1774300366588,0.0042625,-1.03549,-0.184852,-0.0084908,0.007649780000000001,0.0291954,3.31631,5,4.354,2,2
1774300366601,0.00379849,-1.03674,-0.182448,-0.0091064,0.0067967800000000005,0.028020200000000002,3.27721,5,4.367,2,2
1774300366615,0.00161444,-1.03648,-0.182434,-0.00873262,0.00577754,0.0268381,3.71688,5,4.381,2,2
1774300366628,0.000871197,-1.03944,-0.181364,-0.00909916,0.00486256,0.026261899999999998,3.29807,5,4.394,2,2
1774300366642,-0.00179342,-1.03464,-0.186543,-0.00900411,0.00378054,0.0248231,3.28062,5,4.408,2,2
1774300366655,-0.00129859,-1.03577,-0.182507,-0.00879449,0.0029733,0.024252799999999998,3.27066,5,4.421,2,2
1774300366668,-0.00216001,-1.02328,-0.177782,-0.008211270000000001,0.00182169,0.0227126,3.25886,5,4.434,2,2
1774300366682,-0.00230044,-1.02766,-0.177812,-0.011827,0.001013,0.0225433,3.27784,5,4.448,2,2
1774300366695,-0.00171937,-1.0329,-0.173313,-0.0124011,0.00019829,0.0218911,3.25773,5,4.461,2,2
1774300366708,-0.00212464,-1.02778,-0.172599,-0.0123392,-0.000309529,0.0218621,3.29179,5,4.474,2,2
1774300366722,-0.00278979,-1.02635,-0.171382,-0.0135097,-0.000763171,0.0215692,3.30742,5,4.488,2,2
1774300366735,-0.00298809,-1.02613,-0.169909,-0.0139122,-0.00118709,0.021626799999999998,3.26751,5,4.501,2,2
1774300366749,-0.00270793,-1.02231,-0.166045,-0.0140097,-0.0016899900000000002,0.021471300000000002,3.30544,5,4.515,2,2
1774300366762,-0.00363584,-1.02006,-0.162114,-0.0150393,-0.00222463,0.0207593,3.30753,5,4.528,2,2
1774300366775,-0.00386121,-1.02196,-0.161367,-0.0157201,-0.00240385,0.0207039,3.30342,5,4.541,2,2
1774300366789,-0.00520847,-1.0198,-0.157993,-0.015570500000000001,-0.00300978,0.0198509,3.27673,5,4.555,2,2
1774300366802,-0.00594161,-1.01948,-0.157266,-0.0159474,-0.00323488,0.0195295,3.27866,5,4.568,2,2
1774300366815,-0.00646118,-1.01787,-0.154979,-0.0156695,-0.00369571,0.0185582,3.27451,5,4.581,2,2
1774300366829,-0.00728901,-1.01797,-0.153059,-0.016362,-0.00397226,0.0176843,3.29903,5,4.595,2,2
1774300366842,-0.0071304,-1.01762,-0.151886,-0.0163691,-0.00448593,0.016885,3.29072,5,4.608,2,2
1774300366856,-0.00691466,-1.01658,-0.150176,-0.0164486,-0.0048851400000000005,0.0159893,3.2676,5,4.622,2,2
1774300366869,-0.00684715,-1.01446,-0.148787,-0.0167977,-0.00518489,0.015255099999999999,3.29023,5,4.635,2,2
1774300366882,-0.00583236,-1.01635,-0.147351,-0.0177095,-0.00551493,0.0147762,3.26618,5,4.648,2,2
1774300366896,-0.00740304,-1.01208,-0.142306,-0.0171529,-0.005753660000000001,0.0139688,3.27521,5,4.662,2,2
1774300366909,-0.00824307,-1.00947,-0.143332,-0.0186228,-0.00548659,0.0137676,3.2722,5,4.675,2,2
1774300366923,-0.00703911,-1.01232,-0.142808,-0.020267200000000003,-0.00539721,0.013860200000000001,3.31962,5,4.689,2,2
1774300366936,-0.00672059,-1.0125,-0.141923,-0.0209587,-0.00521436,0.0134553,3.28399,5,4.702,2,2
1774300366950,-0.0067897,-1.01222,-0.141642,-0.0220568,-0.005093149999999999,0.0131159,3.27692,5,4.716,2,2
1774300366963,-0.00654615,-1.01216,-0.142046,-0.023230300000000002,-0.00470898,0.013026800000000002,3.28999,5,4.729,2,2
1774300366976,-0.0058328,-1.01038,-0.140457,-0.0238969,-0.00402522,0.0131482,3.25809,5,4.742,3,3
1774300366990,-0.00635713,-1.00854,-0.138147,-0.025613700000000003,-0.00319141,0.014161900000000002,3.26692,5,4.756,3,3
1774300367003,-0.00636739,-1.00724,-0.136996,-0.02714,-0.00249429,0.015255900000000001,3.26466,5,4.769,3,3
1774300367017,-0.00648397,-1.00597,-0.139813,-0.030045099999999998,-0.00181915,0.0167637,3.26112,5,4.783,3,3
1774300367030,-0.00484445,-1.00779,-0.137062,-0.0315755,-0.0012332600000000001,0.0177417,3.30816,5,4.796,3,3
1774300367043,-0.00309511,-1.00193,-0.14357,-0.0345272,-5.507630000000001e-05,0.0216706,3.29125,5,4.809,3,3
1774300367057,-0.00380323,-1.00505,-0.141723,-0.0386322,-0.00015047,0.022270599999999998,3.28025,5,4.823,3,3
1774300367070,-0.00268666,-1.00146,-0.136432,-0.040404600000000006,-0.0006815440000000001,0.0216208,3.31044,5,4.836,3,3
1774300367083,0.00113571,-1.01361,-0.136306,-0.0491383,-0.0005234230000000001,0.0241633,3.28092,5,4.849,3,3
1774300367097,0.00357376,-1.02202,-0.135267,-0.0536526,-0.00111921,0.0272139,3.28359,5,4.863,3,3
1774300367110,0.00532863,-1.02346,-0.133772,-0.05950230000000001,-0.0014375199999999999,0.030564499999999998,3.2672,5,4.876,3,3
1774300367124,0.00424145,-1.0272,-0.129491,-0.0669721,-0.0015881100000000002,0.0359922,3.65414,5,4.89,3,3
1774300367137,0.00836942,-1.0313,-0.128483,-0.0760782,-0.0033702,0.0420018,3.26247,5,4.903,3,3
1774300367151,-0.00989106,-1.03935,-0.119255,-0.083329,-0.00309552,0.0389265,3.28657,5,4.917,3,3
1774300367164,-0.00950121,-1.06441,-0.119026,-0.11127000000000001,-0.00231386,0.033510200000000004,3.26273,5,4.93,3,3
1774300367177,-0.0179155,-1.06847,-0.112326,-0.136325,0.000128135,0.026744900000000002,3.2732,5,4.943,3,3
1774300367191,-0.019278,-1.09045,-0.111653,-0.169458,0.00188079,0.0190489,3.25781,5,4.957,3,3
1774300367204,-0.0220224,-1.09512,-0.112888,-0.202459,0.00452853,0.010821099999999998,3.26107,5,4.97,3,3
1774300367217,-0.0269209,-1.10416,-0.11204,-0.24067799999999998,0.007434530000000001,8.749760000000001e-05,3.27349,5,4.983,3,3
1774300367231,-0.0286157,-1.11202,-0.111624,-0.28217400000000004,0.00977075,-0.0128572,3.32116,5,4.997,3,3
1774300367244,-0.0318485,-1.11991,-0.113042,-0.326237,0.01225,-0.025915,3.49451,5,5.01,4,4
1774300367258,-0.0372142,-1.1277,-0.114686,-0.373677,0.015249500000000001,-0.0411949,3.33984,5,5.024,4,4
1774300367271,-0.0401885,-1.13576,-0.116568,-0.423076,0.0181408,-0.058311,3.37466,5,5.037,4,4
1774300367285,-0.0376515,-1.14808,-0.120385,-0.47627200000000003,0.0204588,-0.0754904,3.28518,5,5.051,4,4
1774300367298,-0.0270363,-1.15984,-0.118761,-0.53337,0.021178100000000002,-0.0900619,3.26868,5,5.064,4,4
1774300367312,-0.0186898,-1.17304,-0.120785,-0.5938680000000001,0.0200458,-0.100994,3.27457,5,5.078,4,4
1774300367325,-0.014317,-1.18458,-0.12145,-0.658898,0.0184718,-0.10947200000000001,3.26036,5,5.091,4,4
1774300367338,-0.0110964,-1.20151,-0.124093,-0.7296710000000001,0.0168234,-0.116494,3.29057,5,5.104,4,4
1774300367352,-0.00798462,-1.21899,-0.127998,-0.805003,0.0154558,-0.12555,3.27168,5,5.118,4,4
1774300367365,-0.00215818,-1.23559,-0.134358,-0.881779,0.012889,-0.13558800000000001,3.28222,5,5.131,4,4
1774300367378,0.0102146,-1.24636,-0.143473,-0.9568899999999999,0.00702774,-0.15077500000000002,3.25153,5,5.144,4,4
1774300367392,0.0252921,-1.25512,-0.155627,-1.02707,-0.00336461,-0.163423,3.26164,5,5.158,4,4
1774300367405,0.0402441,-1.25358,-0.171979,-1.08945,-0.0170363,-0.168746,3.26775,5,5.171,4,4
1774300367418,0.0565387,-1.24378,-0.185705,-1.14274,-0.033841800000000005,-0.170105,3.25336,5,5.184,4,4
1774300367432,0.0708609,-1.23789,-0.194325,-1.1889100000000001,-0.055245499999999996,-0.170733,3.32027,5,5.198,4,4
1774300367445,0.0819836,-1.21532,-0.193332,-1.2278900000000001,-0.08093360000000001,-0.16751000000000002,3.28855,5,5.211,4,4
1774300367459,0.0919579,-1.13698,-0.156423,-1.2454800000000001,-0.109942,-0.155845,3.29588,5,5.225,4,4
1774300367472,0.107272,-1.01339,-0.141201,-1.2017900000000001,-0.143901,-0.128306,3.27842,3,5.238,5,5
1774300367485,0.113279,-0.976863,-0.125705,-1.1042,-0.17844200000000002,-0.100111,3.28253,3,5.251,5,5
1774300367499,0.114518,-0.93947,-0.105591,-0.990354,-0.213217,-0.07174559999999999,3.31653,3,5.265,5,5
1774300367512,0.116706,-0.904641,-0.0828761,-0.871803,-0.247565,-0.041734600000000004,3.27618,3,5.278,5,5
1774300367526,0.115606,-0.881863,-0.0641012,-0.75393,-0.279987,-0.0139507,3.28177,3,5.292,5,5
1774300367539,0.114543,-0.855768,-0.0476102,-0.6373800000000001,-0.310226,0.00846376,3.29227,3,5.305,5,5
1774300367552,0.111552,-0.833515,-0.0317869,-0.520002,-0.337648,0.0236863,3.33088,3,5.318,5,5
1774300367566,0.106278,-0.81547,-0.0182571,-0.40145000000000003,-0.36064500000000005,0.029958000000000002,3.26846,3,5.332,5,5
1774300367579,0.0986517,-0.802901,-0.00589564,-0.282264,-0.378151,0.0281962,3.29233,3,5.345,5,5
1774300367593,0.0881235,-0.796018,0.00463336,-0.164241,-0.38825699999999996,0.021557800000000002,3.27721,3,5.359,5,5
1774300367606,0.0755893,-0.792276,0.0136662,-0.0475489,-0.389897,0.0132064,3.27283,3,5.372,5,5
1774300367619,0.0620872,-0.791751,0.0219304,0.06872460000000001,-0.383167,0.0027243600000000003,3.27516,3,5.385,5,5
1774300367633,0.0488125,-0.795979,0.0299292,0.18474000000000002,-0.369078,-0.0107707,3.51816,3,5.399,5,5
1774300367646,0.0355311,-0.806055,0.0372259,0.298792,-0.347789,-0.025457100000000003,3.2887,5,5.412,5,5
1774300367660,0.0215066,-0.821722,0.0434134,0.409272,-0.319066,-0.0388787,3.31396,2,5.426,5,5
1774300367673,0.00681427,-0.84232,0.0480598,0.515379,-0.28226,-0.0501943,3.27266,2,5.439,5,5
1774300367686,-0.00681917,-0.870121,0.051542,0.615183,-0.237653,-0.061440400000000006,3.28468,2,5.452,5,5
1774300367700,-0.0174114,-0.907116,0.0523415,0.704109,-0.18711300000000003,-0.0758794,3.26777,2,5.466,5,5
1774300367713,-0.0223407,-0.951857,0.0482695,0.7768200000000001,-0.13314399999999998,-0.09542600000000001,3.27751,2,5.479,5,5
1774300367727,-0.0204989,-0.996275,0.0374782,0.833797,-0.07843359999999999,-0.11654,3.2691,2,5.493,5,5
1774300367740,-0.0132497,-1.03786,0.0235928,0.877983,-0.025657600000000003,-0.129631,3.33614,2,5.506,5,5
1774300367753,0.00146599,-1.08959,0.00736782,0.9022239999999999,0.0208439,-0.13708,3.26494,2,5.519,5,5
1774300367767,0.0210687,-1.14569,-0.0175753,0.90204,0.0585541,-0.146497,3.28823,2,5.533,5,5
1774300367780,0.0315075,-1.18781,-0.0459012,0.872085,0.08741360000000001,-0.152915,3.2726,5,5.546,1,1
1774300367793,0.0406997,-1.18874,-0.0804088,0.842701,0.1097,-0.15529500000000002,3.26959,5,5.559,1,1
1774300367807,0.0454221,-1.1861,-0.114443,0.824082,0.128322,-0.157559,3.26514,5,5.573,1,1
1774300367820,0.0451012,-1.18271,-0.149498,0.813337,0.142927,-0.166435,3.25803,5,5.586,1,1
1774300367834,0.0447624,-1.17235,-0.188187,0.8160660000000001,0.15202000000000002,-0.18448599999999998,4.114,5,5.6,1,1
1774300367848,0.039463,-1.1605,-0.230833,0.8266830000000001,0.159687,-0.208911,3.29023,5,5.614,1,1
1774300367861,0.0333917,-1.14486,-0.277122,0.8431780000000001,0.16678300000000001,-0.22711800000000001,3.29049,5,5.627,1,1
1774300367874,0.0244255,-1.14005,-0.329171,0.856557,0.175488,-0.23001200000000002,3.26699,5,5.64,1,1
1774300367888,0.0182431,-1.13114,-0.385638,0.862761,0.18418099999999998,-0.219808,3.26071,5,5.654,1,1
1774300367901,0.0152992,-1.1339,-0.446982,0.8557429999999999,0.19114799999999998,-0.202687,3.26781,5,5.667,1,1
1774300367914,0.0118114,-1.13273,-0.509432,0.830727,0.195469,-0.184231,3.25957,5,5.68,1,1
1774300367928,0.000799519,-1.14872,-0.569088,0.790377,0.19608699999999998,-0.162383,3.26727,5,5.694,1,1
1774300367941,0.0298164,-0.981783,-0.552283,0.664272,0.196503,-0.12013700000000001,3.3239,5,5.707,1,1
1774300367955,0.058034,-1.11378,-0.510417,0.519896,0.17319600000000002,-0.0648806,3.3356,5,5.721,1,1
1774300367968,0.0677958,-1.12474,-0.47019,0.43382800000000005,0.152425,-0.0369675,3.28555,5,5.734,1,1
1774300367981,0.0513994,-1.05734,-0.458393,0.3563,0.137967,-0.02642,3.27768,5,5.747,1,1
1774300367995,0.0378341,-1.04559,-0.451009,0.287146,0.12595900000000002,-0.019919700000000002,3.28788,5,5.761,1,1
1774300368008,0.0323038,-1.05071,-0.436165,0.245493,0.129979,-0.0181045,3.26686,5,5.774,1,1
1774300368022,0.0304533,-1.03367,-0.425685,0.218702,0.134189,-0.0141173,3.28368,5,5.788,1,1
1774300368035,0.0269434,-1.02854,-0.417319,0.19703600000000002,0.131668,-0.0103752,3.26557,5,5.801,2,2
1774300368048,0.0235337,-1.03221,-0.404631,0.18168900000000002,0.12449199999999999,-0.010534,3.37818,5,5.814,2,2
1774300368062,0.0219172,-1.03324,-0.390523,0.16895800000000002,0.119303,-0.011964200000000001,3.28322,5,5.828,2,2
1774300368075,0.0242793,-1.03181,-0.380096,0.157272,0.11554,-0.0124706,3.27679,5,5.841,2,2
1774300368089,0.028353,-1.0266,-0.367136,0.146236,0.109517,-0.0108847,3.27825,5,5.855,2,2
1774300368102,0.0303695,-1.02503,-0.356504,0.135293,0.104282,-0.00757662,3.30777,5,5.868,2,2
1774300368115,0.0308672,-1.02292,-0.342792,0.126638,0.0992674,-0.00429563,3.28927,5,5.881,2,2
1774300368129,0.0304675,-1.02102,-0.335584,0.118173,0.0928643,-0.00160117,3.28894,5,5.895,2,2
1774300368142,0.0279927,-1.01631,-0.326097,0.110161,0.08731270000000001,0.000394074,3.33475,5,5.908,2,2
1774300368156,0.0265976,-1.01822,-0.322812,0.10024,0.083126,0.00263279,3.2656,5,5.922,2,2
1774300368169,0.0229361,-1.01623,-0.314716,0.094527,0.0799233,0.0033200800000000004,3.26661,5,5.935,2,2
1774300368182,0.0202994,-1.00935,-0.303441,0.0878674,0.076789,0.0037247400000000003,3.34733,5,5.948,2,2
1774300368196,0.0201911,-1.00793,-0.291793,0.0811403,0.0725331,0.0037299100000000003,3.28755,5,5.962,2,2
1774300368209,0.0183151,-1.00694,-0.284328,0.07516740000000001,0.0686016,0.0042015,3.28718,5,5.975,2,2
1774300368222,0.019073,-1.00787,-0.2731,0.0705957,0.0650276,0.00463808,3.26599,5,5.988,2,2
1774300368236,0.0171605,-1.00609,-0.267403,0.0649359,0.062078,0.00597506,3.27203,5,6.002,2,2
1774300368249,0.0164207,-1.01042,-0.258848,0.060998000000000004,0.059405200000000005,0.00723276,3.2975,5,6.015,2,2
1774300368263,0.0127238,-1.00497,-0.259144,0.0559879,0.0570835,0.00811589,3.27246,5,6.029,2,2
1774300368276,0.0129361,-1.01177,-0.251516,0.052727500000000004,0.054476699999999996,0.00876537,3.26627,5,6.042,2,2
1774300368289,0.0113133,-1.00114,-0.243816,0.05036940000000001,0.051896300000000006,0.00896736,3.29116,5,6.055,2,2
1774300368303,0.0111175,-1.00842,-0.240189,0.044448299999999996,0.048629900000000004,0.00956908,3.30936,5,6.069,2,2
1774300368316,0.0114321,-1.0134,-0.235557,0.0426102,0.045448300000000004,0.00933206,3.27881,5,6.082,2,2
1774300368329,0.0101741,-1.00958,-0.232986,0.0403442,0.042800500000000005,0.00964785,3.27862,5,6.095,2,2
1774300368343,0.00949424,-1.01094,-0.229331,0.0369208,0.040091400000000006,0.009851720000000001,3.33357,5,6.109,2,2
1774300368357,0.00889752,-1.01372,-0.225484,0.0348756,0.0376328,0.010283899999999999,3.32755,5,6.123,2,2
1774300368370,0.00749411,-1.01035,-0.22063,0.0330007,0.0351793,0.0109317,3.27059,5,6.136,2,2
1774300368383,0.00581041,-1.00703,-0.215701,0.0305201,0.032812100000000004,0.011217699999999999,3.26357,5,6.149,2,2
1774300368397,0.00461674,-1.01003,-0.212663,0.026692999999999998,0.0308046,0.0120143,3.31242,5,6.163,2,2
1774300368410,0.00384896,-1.01123,-0.207644,0.024270800000000002,0.029055300000000003,0.0123038,3.26603,5,6.176,2,2
1774300368423,0.00266633,-1.00831,-0.203336,0.0221515,0.0277381,0.012881100000000001,3.28173,5,6.189,2,2
1774300368437,0.00204791,-1.0077,-0.195938,0.019907,0.026580400000000004,0.013494500000000001,3.26716,5,6.203,2,2
1774300368450,0.00134977,-1.00611,-0.191395,0.017441599999999998,0.025466199999999998,0.0144332,3.34405,5,6.216,2,2
1774300368464,0.000607418,-1.00669,-0.187808,0.0153243,0.0242561,0.0152464,3.27281,5,6.23,2,2
1774300368477,-0.000348036,-1.00547,-0.187666,0.0133857,0.023250899999999998,0.0159627,3.2644,5,6.243,2,2
1774300368490,-0.000546353,-1.00464,-0.183057,0.012052499999999999,0.0220067,0.0164717,3.27092,5,6.256,2,2
1774300368504,-0.000928181,-1.00466,-0.180475,0.00988208,0.0207295,0.0165241,3.26157,5,6.27,2,2
1774300368517,-0.00178445,-1.00977,-0.181434,0.008235890000000001,0.0194982,0.0169203,3.27385,5,6.283,2,2
1774300368530,-0.00272071,-1.00698,-0.18155,0.008334850000000001,0.018109,0.0167205,3.26618,5,6.296,3,3
1774300368544,-0.00379754,-1.0048,-0.180176,0.00700239,0.0168492,0.0161894,3.40718,5,6.31,3,3
1774300368557,-0.00485931,-1.00618,-0.177806,0.00576608,0.0154545,0.015542499999999999,3.27607,5,6.323,3,3
1774300368571,-0.00559704,-1.00624,-0.1765,0.00516005,0.013962500000000001,0.014760599999999999,3.27535,5,6.337,3,3
1774300368584,-0.00512805,-1.00434,-0.170842,0.00460513,0.0125156,0.0137185,3.35314,5,6.35,3,3
1774300368597,-0.0055444,-1.00463,-0.168528,0.00304513,0.0111327,0.013086100000000002,3.28303,5,6.363,3,3
1774300368611,-0.00698888,-1.00653,-0.163944,0.00110163,0.00987884,0.0124676,3.29346,5,6.377,3,3
1774300368624,-0.00856237,-1.00938,-0.162508,-0.000600116,0.00864389,0.0123121,3.27522,5,6.39,3,3
1774300368637,-0.00886056,-1.00622,-0.156341,-0.0013286300000000001,0.0075895500000000005,0.0120796,3.29207,5,6.403,3,3
1774300368651,-0.00736267,-1.00728,-0.155856,-0.00455113,0.0068641,0.0126609,3.29844,5,6.417,3,3
1774300368664,-0.0069873,-1.00644,-0.149777,-0.0067193899999999996,0.00623501,0.0131111,3.2682,5,6.43,3,3
1774300368678,-0.00852883,-1.00831,-0.149505,-0.011621999999999999,0.0061850099999999995,0.0140071,3.27514,5,6.444,3,3
1774300368691,-0.0152987,-1.01643,-0.148391,-0.0176413,0.006069290000000001,0.016831000000000002,3.26614,5,6.457,3,3
1774300368704,-0.0203311,-1.01809,-0.146941,-0.021772800000000002,0.00627693,0.0191711,3.27196,5,6.47,3,3
1774300368718,-0.011509,-1.02512,-0.144732,-0.0259552,0.00637444,0.0219494,3.26333,5,6.484,3,3
1774300368731,-0.00240014,-1.0197,-0.143004,-0.0327077,0.00695461,0.0272909,3.27336,5,6.497,3,3
1774300368744,-1.03195e-05,-1.02695,-0.138352,-0.0413251,0.00749367,0.0329793,3.28414,5,6.51,3,3
1774300368758,0.00163437,-1.02486,-0.121176,-0.048863899999999995,0.00730884,0.0376678,3.31485,5,6.524,3,3
1774300368771,0.00649562,-1.03142,-0.122112,-0.0633147,0.00749405,0.0461269,3.34718,5,6.537,3,3
1774300368785,0.00670269,-1.03314,-0.109704,-0.0768136,0.00705228,0.0558841,3.28744,5,6.551,3,3
1774300368798,0.0182396,-1.04865,-0.101874,-0.096128,0.00240909,0.0718765,3.29851,5,6.564,3,3
1774300368811,-0.000399189,-1.12592,-0.0890371,-0.12564999999999998,0.0021112500000000003,0.0684742,3.27781,5,6.577,3,3
1774300368825,-0.00454572,-1.1229,-0.0836379,-0.174806,0.00427506,0.061417700000000006,3.28931,5,6.591,3,3
1774300368838,-0.0177678,-1.14685,-0.0804393,-0.226081,0.00746075,0.0529585,3.27575,5,6.604,3,3
1774300368852,-0.0324082,-1.1639,-0.0779037,-0.287682,0.011409800000000001,0.0424733,3.31286,5,6.618,3,3
1774300368865,-0.0346317,-1.18575,-0.075383,-0.355821,0.0157153,0.0289623,3.28018,5,6.631,3,3
1774300368878,-0.038178,-1.2055,-0.0689259,-0.43013100000000004,0.017818300000000002,0.013139099999999999,3.26629,5,6.644,4,4
1774300368892,-0.0436406,-1.22813,-0.0651642,-0.510837,0.0194907,-0.0039418,3.27051,5,6.658,4,4
1774300368905,-0.0446575,-1.249,-0.0617059,-0.59948,0.0199303,-0.0207582,3.26859,5,6.671,4,4
1774300368918,-0.0402168,-1.27264,-0.0606622,-0.693415,0.0193176,-0.0361218,3.2809,5,6.684,4,4
1774300368932,-0.0328099,-1.29122,-0.0596642,-0.791779,0.017561800000000002,-0.0503454,3.26959,5,6.698,4,4
1774300368945,-0.0219474,-1.30223,-0.0625429,-0.887674,0.0131812,-0.0643705,3.3101,5,6.711,4,4
1774300368959,-0.000188998,-1.30948,-0.0738585,-0.978191,0.00294894,-0.0808631,3.3054,5,6.725,4,4
1774300368972,0.0250488,-1.30796,-0.0861527,-1.05793,-0.0143268,-0.08307980000000001,3.27936,5,6.738,4,4
1774300368985,0.0475599,-1.30524,-0.0994146,-1.1262,-0.036495400000000004,-0.0702499,3.2946,5,6.751,4,4
1774300368999,0.0631823,-1.28646,-0.102274,-1.18075,-0.0620406,-0.0486767,3.2692,5,6.765,4,4
1774300369012,0.0706156,-1.22478,-0.0647349,-1.22303,-0.0908715,-0.0244642,3.28935,5,6.778,4,4
1774300369025,0.0809055,-1.11285,-0.0445966,-1.21114,-0.121631,-0.0054635000000000005,3.27596,5,6.791,4,4
1774300369039,0.0890585,-1.05305,-0.0323751,-1.13239,-0.155756,-0.0035128100000000003,3.29175,5,6.805,5,5
1774300369052,0.0912923,-1.01315,-0.0168551,-1.03766,-0.188737,-0.00780316,3.54761,5,6.818,5,5
1774300369066,0.0909407,-0.981093,0.00264131,-0.942097,-0.21989,-0.0061751,3.27242,3,6.832,5,5
1774300369079,0.0870704,-0.954395,0.0168542,-0.850356,-0.24702200000000002,-1.82374e-05,3.27548,3,6.845,5,5
1774300369093,0.0815649,-0.921102,0.0300398,-0.7594660000000001,-0.269086,0.00602449,3.27231,3,6.859,5,5
1774300369106,0.0759693,-0.886191,0.0435776,-0.664191,-0.284364,0.00790885,3.28483,3,6.872,5,5
1774300369119,0.0686538,-0.851439,0.0573135,-0.562094,-0.294952,0.0048019099999999995,3.26522,3,6.885,5,5
1774300369133,0.0600033,-0.820279,0.0713882,-0.45209600000000005,-0.299406,-0.004018320000000001,3.28946,3,6.899,5,5
1774300369146,0.0514322,-0.794848,0.084762,-0.334933,-0.297756,-0.0158635,3.31196,3,6.912,5,5
1774300369159,0.0435242,-0.777821,0.0983197,-0.213347,-0.291477,-0.0291424,3.30159,3,6.925,5,5
1774300369173,0.0365492,-0.768533,0.110676,-0.090848,-0.282055,-0.045487200000000005,3.28892,3,6.939,5,5
1774300369186,0.0303491,-0.76469,0.121499,0.0325515,-0.270434,-0.0636428,3.27311,3,6.952,5,5
1774300369200,0.0240037,-0.768222,0.131635,0.156321,-0.256832,-0.080399,3.29018,2,6.966,5,5
1774300369213,0.017765,-0.782192,0.139651,0.278124,-0.241047,-0.0941385,3.27777,2,6.979,5,5
1774300369226,0.0129095,-0.806003,0.144488,0.395252,-0.22321400000000002,-0.10566900000000001,3.28935,2,6.992,5,5
1774300369240,0.0094195,-0.8412,0.144522,0.504582,-0.203607,-0.11861200000000001,3.27979,2,7.006,5,5
1774300369253,0.0053881,-0.887767,0.137422,0.601207,-0.181126,-0.13694699999999999,3.64905,2,7.019,5,5
1774300369267,0.00248324,-0.936899,0.122529,0.685586,-0.154122,-0.157055,3.28083,2,7.033,5,5
1774300369280,0.00448867,-0.984555,0.103504,0.763982,-0.122778,-0.17305399999999999,3.27674,2,7.046,5,5
1774300369294,0.0151508,-1.04175,0.0797592,0.829305,-0.08927550000000001,-0.18578,3.28764,2,7.06,5,5
1774300369307,0.0328951,-1.09716,0.0494934,0.8754980000000001,-0.0574248,-0.19628,3.26992,2,7.073,5,5
1774300369320,0.0481445,-1.13802,0.0151061,0.907428,-0.028011499999999998,-0.207622,3.30614,2,7.086,5,5
1774300369334,0.0507582,-1.16536,-0.0188771,0.932822,0.0022952800000000002,-0.224986,3.28277,5,7.1,5,5
1774300369347,0.033452,-1.16591,-0.0514275,0.955191,0.0405192,-0.24976800000000002,3.28916,5,7.113,5,5
1774300369360,0.00697311,-1.1704,-0.0797784,0.98182,0.0897443,-0.273536,3.30979,5,7.126,5,5
1774300369374,-0.0130307,-1.18562,-0.106665,1.0054,0.14691700000000002,-0.284368,3.28098,5,7.14,1,1
1774300369387,-0.015066,-1.19307,-0.133636,1.02288,0.202823,-0.279439,3.28024,5,7.153,1,1
1774300369401,-0.00203261,-1.20289,-0.162855,1.03031,0.246725,-0.270555,3.27416,5,7.167,1,1
1774300369414,0.0167835,-1.21041,-0.195675,1.02517,0.27212000000000003,-0.269882,3.36111,5,7.18,1,1
1774300369427,0.0325454,-1.21253,-0.230508,1.00811,0.278236,-0.278615,3.2942,5,7.193,1,1
1774300369441,0.0388521,-1.2153,-0.264182,0.9777119999999999,0.27046,-0.288216,3.29179,5,7.207,1,1
1774300369455,0.0366405,-1.21823,-0.295197,0.932457,0.255063,-0.287031,3.80155,5,7.221,1,1
1774300369468,0.0318458,-1.21805,-0.320543,0.8737900000000001,0.235994,-0.271997,3.26596,5,7.234,1,1
1774300369481,0.0294815,-1.21325,-0.340936,0.807162,0.21420100000000003,-0.249671,3.26901,5,7.247,1,1
1774300369495,0.0319077,-1.20567,-0.35621,0.736764,0.18899000000000002,-0.227197,3.2672,5,7.261,1,1
1774300369508,0.0371,-1.19557,-0.367217,0.665619,0.159647,-0.207961,3.29588,5,7.274,1,1
1774300369522,0.0453536,-1.1833,-0.375864,0.596597,0.126153,-0.19163799999999998,3.26703,5,7.288,1,1
1774300369535,0.0542179,-1.17061,-0.381752,0.530843,0.08886799999999999,-0.177176,3.27388,5,7.301,1,1
1774300369548,0.0626305,-1.15931,-0.385589,0.468199,0.0490374,-0.164476,3.28499,5,7.314,1,1
1774300369562,0.0689882,-1.14831,-0.388489,0.408619,0.008460760000000001,-0.154192,3.29283,5,7.328,1,1
1774300369575,0.0721317,-1.13664,-0.39155,0.352583,-0.030392199999999998,-0.145804,3.26883,5,7.341,1,1
1774300369588,0.0585566,-1.1563,-0.392236,0.292727,-0.06144790000000001,-0.128724,3.26753,5,7.354,1,1
1774300369602,0.0339159,-1.1439,-0.389571,0.239539,-0.07756070000000001,-0.0923354,3.35611,1,7.368,1,1
1774300369615,0.0135667,-1.1327,-0.382634,0.19127,-0.0774663,-0.058823,3.27664,1,7.381,1,1
1774300369629,0.00497636,-1.21507,-0.190976,0.175566,-0.0668096,-0.0216154,3.28346,1,7.395,1,1
1774300369642,-0.00172214,-0.98701,-0.0854325,0.144994,-0.06597800000000001,0.0168407,3.28794,1,7.408,1,1
1774300369655,-0.010925,-1.04357,-0.0221406,0.0566655,-0.0551093,0.046224499999999995,3.27044,1,7.421,1,1
1774300369669,-0.0230887,-1.0842,-0.0222401,-0.0104755,-0.04713250000000001,0.0615341,3.30809,1,7.435,1,1
1774300369682,-0.0275028,-1.06632,-0.0369945,-0.0551087,-0.0401469,0.0637389,3.27044,2,7.448,1,1
1774300369695,-0.0364324,-1.04508,-0.047196,-0.0723778,-0.028055300000000002,0.060013699999999996,3.28481,2,7.461,1,1
1774300369709,-0.0342306,-1.03738,-0.045527,-0.0749205,-0.0152759,0.061288999999999996,3.30722,2,7.475,2,2
1774300369722,-0.0326802,-1.02984,-0.0525473,-0.0758263,-0.0128904,0.0612766,3.27064,2,7.488,2,2
1774300369736,-0.0346356,-1.02753,-0.0525555,-0.0712134,-0.0157213,0.053895900000000004,3.29025,2,7.502,2,2
1774300369749,-0.0322988,-1.03432,-0.0583715,-0.06783120000000001,-0.0168991,0.047305900000000005,3.29151,2,7.515,2,2
1774300369762,-0.0324878,-1.03237,-0.0616057,-0.063337,-0.014525300000000001,0.0410257,3.31807,2,7.528,2,2
1774300369776,-0.030405,-1.02701,-0.0602034,-0.061428500000000004,-0.0132481,0.036014,3.26874,5,7.542,2,2
1774300369789,-0.0268439,-1.02438,-0.0575705,-0.059991,-0.0127448,0.0330005,3.28414,5,7.555,2,2
1774300369802,-0.0245595,-1.02614,-0.0607863,-0.059760299999999995,-0.01191,0.0312693,3.26666,5,7.568,2,2
1774300369816,-0.0213394,-1.02229,-0.0583949,-0.057654199999999996,-0.011413199999999998,0.029785100000000002,3.31809,5,7.582,2,2
1774300369829,-0.0190396,-1.02202,-0.0605817,-0.0569337,-0.010207800000000001,0.0292577,3.2937,5,7.595,2,2
1774300369843,-0.0172567,-1.01877,-0.0571102,-0.055422900000000004,-0.00896297,0.0291323,3.27579,5,7.609,2,2
1774300369856,-0.01647,-1.01912,-0.0619049,-0.0551487,-0.00772373,0.0291167,3.2764,5,7.622,2,2
1774300369869,-0.0155255,-1.01491,-0.0594112,-0.052303600000000006,-0.00678095,0.0282543,3.296,5,7.635,2,2
1774300369883,-0.0138002,-1.01745,-0.0597705,-0.052247199999999994,-0.00613511,0.0274401,3.34588,5,7.649,2,2
1774300369896,-0.0128763,-1.01782,-0.0592706,-0.048472999999999995,-0.0058338,0.025579800000000003,3.26772,5,7.662,2,2
1774300369910,-0.0133062,-1.01181,-0.05954,-0.0455785,-0.0052625,0.0238624,3.28366,5,7.676,2,2
1774300369923,-0.0122972,-1.01085,-0.0591142,-0.0440966,-0.00492021,0.0218473,3.27529,5,7.689,2,2
1774300369936,-0.0122185,-1.01212,-0.0594972,-0.042274000000000006,-0.00430596,0.020283600000000002,3.28163,5,7.702,2,2
1774300369950,-0.0113532,-1.01131,-0.0596392,-0.0402025,-0.00382892,0.0185378,3.30307,5,7.716,2,2
1774300369963,-0.0103762,-1.0114,-0.0616541,-0.0380245,-0.00338293,0.0170484,3.62314,5,7.729,2,2
1774300369977,-0.00937792,-1.01205,-0.0631645,-0.0358488,-0.00308184,0.0158652,3.30531,5,7.743,2,2
1774300369990,-0.00878629,-1.01099,-0.0642458,-0.0339022,-0.0030888100000000004,0.014804,3.2677,5,7.756,2,2
1774300370004,-0.00799632,-1.01251,-0.0688032,-0.0321161,-0.0031125199999999997,0.0142262,3.26122,5,7.77,2,2
1774300370017,-0.00715549,-1.01157,-0.0723819,-0.029997799999999998,-0.00338325,0.0136038,3.27083,5,7.783,2,2
1774300370030,-0.00615924,-1.01167,-0.0757401,-0.0286748,-0.00362166,0.013350299999999999,3.30711,5,7.796,2,2
1774300370044,-0.00667997,-1.01153,-0.0780438,-0.027426100000000002,-0.00361548,0.0129911,3.30814,5,7.81,2,2
1774300370057,-0.00644122,-1.01256,-0.081464,-0.026911,-0.00357539,0.0127548,3.27607,5,7.823,2,2
1774300370070,-0.00595667,-1.01246,-0.08135,-0.0263221,-0.00407706,0.0125789,3.3065,5,7.836,2,2
1774300370084,-0.00547195,-1.01184,-0.082992,-0.0259418,-0.004572,0.0124556,3.26699,5,7.85,2,2
1774300370097,-0.00588394,-1.01141,-0.086815,-0.0260838,-0.00486363,0.0125148,3.26249,5,7.863,2,2
1774300370111,-0.00625656,-1.01009,-0.0883141,-0.025901,-0.00508751,0.012339500000000002,3.34827,5,7.877,2,2
1774300370124,-0.00459495,-1.01038,-0.0903669,-0.0257755,-0.0051575300000000004,0.0125251,3.30187,5,7.89,2,2
1774300370137,-0.00461821,-1.00502,-0.0872477,-0.0248521,-0.00538634,0.0119425,3.29864,5,7.903,2,2
1774300370151,-0.00450166,-1.004,-0.0893792,-0.026125699999999998,-0.0054867,0.012150399999999999,3.28287,5,7.917,2,2
1774300370165,-0.00343997,-1.00809,-0.0892073,-0.026672699999999997,-0.00561997,0.0122909,4.02529,5,7.931,2,2
1774300370178,-0.00389811,-1.00768,-0.0922781,-0.025947300000000003,-0.00559162,0.012367999999999999,3.25885,5,7.944,2,2
1774300370192,-0.00445366,-1.00623,-0.0941682,-0.0254253,-0.005500629999999999,0.0123893,3.35831,5,7.958,2,2
1774300370205,-0.00456852,-1.00542,-0.0948652,-0.0248683,-0.0055603300000000005,0.011968399999999999,3.29892,5,7.971,2,2
1774300370219,-0.00424061,-1.00455,-0.0944962,-0.0242185,-0.00575798,0.011639600000000002,3.2739,5,7.985,2,2
1774300370232,-0.00415125,-1.00393,-0.0942073,-0.0239133,-0.0061415,0.0111066,3.27333,5,7.998,2,2
1774300370245,-0.00391632,-1.00426,-0.0937816,-0.0236596,-0.006366500000000001,0.010372300000000001,3.30566,5,8.011,2,2
1774300370259,-0.00485544,-1.00697,-0.0943461,-0.023963800000000004,-0.006531780000000001,0.00979047,3.29955,5,8.025,2,2
1774300370272,-0.00449363,-1.00551,-0.0920779,-0.022594,-0.00684621,0.00902292,3.29692,5,8.038,2,2
1774300370285,-0.00344296,-1.00336,-0.094297,-0.022576900000000004,-0.007104470000000001,0.00857675,3.26959,5,8.051,2,2
1774300370299,-0.00385826,-0.999248,-0.091038,-0.0221412,-0.00731399,0.00765463,3.27113,5,8.065,2,2
1774300370312,-0.00423405,-1.00405,-0.099869,-0.024196300000000004,-0.0073105,0.00815014,3.2665,5,8.078,2,2
1774300370326,-0.0037179,-1.00675,-0.098491,-0.0227877,-0.00736716,0.00748745,3.27127,5,8.092,2,2
1774300370339,-0.00526361,-0.998008,-0.0969597,-0.0217021,-0.00736498,0.007041770000000001,3.31214,5,8.105,2,2
1774300370352,-0.0046277,-0.997369,-0.0950043,-0.0228912,-0.00707175,0.007117790000000001,3.30888,5,8.118,2,2
1774300370366,-0.00568519,-0.997057,-0.0986863,-0.024720100000000002,-0.00668793,0.00699257,3.64613,5,8.132,2,2
1774300370379,-0.00399518,-1.00075,-0.097296,-0.0262537,-0.00640699,0.006848689999999999,3.28751,5,8.145,2,2
1774300370393,-0.0060199,-0.997569,-0.101465,-0.027517200000000002,-0.00594484,0.00678995,3.27344,5,8.159,3,3
1774300370406,-0.00577799,-1.00423,-0.10243,-0.0301485,-0.0052003200000000005,0.008156090000000001,3.26972,5,8.172,3,3
1774300370420,-0.0084828,-1.00142,-0.106877,-0.0315147,-0.004775880000000001,0.008597780000000001,3.27081,5,8.186,3,3
1774300370433,-0.00660639,-1.00793,-0.109666,-0.0340331,-0.0038357400000000002,0.0101451,3.26424,5,8.199,3,3
1774300370446,-0.00769479,-0.99801,-0.105265,-0.0340209,-0.0034193400000000003,0.0104581,3.29187,5,8.212,3,3
1774300370460,-0.00786009,-0.996378,-0.106256,-0.0378204,-0.00282076,0.012003900000000001,3.26672,5,8.226,3,3
1774300370473,-0.00827441,-1.00142,-0.106894,-0.040546,-0.0019603100000000003,0.0130518,3.32561,5,8.239,3,3
1774300370486,-0.00590529,-0.996966,-0.116398,-0.043534100000000006,-0.00171761,0.015976399999999998,3.27289,5,8.252,3,3
1774300370500,-0.00604209,-1.00212,-0.116796,-0.048743800000000004,-0.00261894,0.0161764,3.33018,5,8.266,3,3
1774300370513,-0.00696299,-0.999333,-0.113428,-0.050274400000000004,-0.00369665,0.0152348,3.3157,5,8.279,3,3
1774300370527,-4.94816e-05,-1.00736,-0.114447,-0.0576838,-0.00434995,0.016345600000000002,3.28785,5,8.293,3,3
1774300370540,0.00252581,-1.01238,-0.116489,-0.0633887,-0.004684010000000001,0.0195565,3.28305,5,8.306,3,3
1774300370553,0.00466818,-1.0116,-0.113935,-0.0681827,-0.00518772,0.0232809,3.2842,5,8.319,3,3
1774300370567,0.00880952,-1.0163,-0.110202,-0.0756152,-0.00607424,0.027584300000000003,3.29062,5,8.333,3,3
1774300370580,0.0029043,-1.03463,-0.108351,-0.0924619,-0.005660730000000001,0.0235621,3.29126,5,8.346,3,3
1774300370594,0.00230751,-1.04241,-0.105449,-0.108518,-0.00478228,0.0182026,3.26981,5,8.36,3,3
1774300370607,0.00307142,-1.05526,-0.100442,-0.129162,-0.00380325,0.0123474,3.27403,5,8.373,3,3
1774300370620,0.0020616,-1.06792,-0.0970104,-0.155196,-0.00217262,0.00543322,3.27063,5,8.386,3,3
1774300370634,0.00317793,-1.08145,-0.0968785,-0.186471,-0.000946027,0.000645351,3.29933,5,8.4,3,3
1774300370647,0.00243037,-1.09404,-0.0936774,-0.22124500000000002,0.000464389,-0.00477315,3.30207,5,8.413,3,3
1774300370661,-0.00216021,-1.10772,-0.0932749,-0.261287,0.0018642,-0.012015800000000002,3.31098,5,8.427,3,3
1774300370674,-0.00557844,-1.12155,-0.0914699,-0.30437200000000003,0.0032325900000000005,-0.0230356,3.30238,5,8.44,3,3
1774300370687,-0.00977607,-1.13049,-0.0908543,-0.35151400000000005,0.00493529,-0.0353983,3.26392,5,8.453,3,3
1774300370701,-0.0174096,-1.14292,-0.0902976,-0.403788,0.00726183,-0.049426899999999996,3.27094,5,8.467,3,3
1774300370714,-0.0229156,-1.15567,-0.0909077,-0.459865,0.009856080000000001,-0.06668929999999999,3.26783,5,8.48,3,3
1774300370727,-0.0201944,-1.17057,-0.0925588,-0.520773,0.0122021,-0.08306039999999999,3.27648,5,8.493,3,3
1774300370741,-0.0101612,-1.18852,-0.0913724,-0.587887,0.0117959,-0.0981579,3.26309,5,8.507,4,4
1774300370754,-0.00587312,-1.20837,-0.0905902,-0.660334,0.0114939,-0.112066,3.29961,5,8.52,4,4
1774300370768,-0.00383323,-1.22717,-0.0919028,-0.737685,0.010476700000000002,-0.125776,3.30788,5,8.534,4,4
1774300370781,-0.00120991,-1.24551,-0.0947916,-0.82084,0.009345240000000001,-0.138919,3.30125,5,8.547,4,4
1774300370794,0.00667984,-1.26475,-0.10222,-0.907244,0.006269050000000001,-0.15371700000000002,3.30048,5,8.56,4,4
1774300370808,0.0193281,-1.27482,-0.11259,-0.990286,0.0009675730000000001,-0.17474699999999999,3.2695,5,8.574,4,4
1774300370821,0.0412139,-1.28585,-0.123906,-1.06736,-0.0121849,-0.198489,3.27668,5,8.587,4,4
1774300370834,0.0612671,-1.28826,-0.134802,-1.138,-0.0312365,-0.215611,3.26422,5,8.6,4,4
1774300370848,0.0810199,-1.28703,-0.146192,-1.19411,-0.056117600000000004,-0.229405,3.28179,5,8.614,4,4
1774300370861,0.095542,-1.27488,-0.145917,-1.24719,-0.0863983,-0.24103000000000002,3.26924,5,8.627,4,4
1774300370875,0.104443,-1.24515,-0.121182,-1.28952,-0.12411799999999999,-0.245673,3.38276,5,8.641,4,4
1774300370888,0.120717,-1.16252,-0.0889018,-1.30033,-0.16120400000000001,-0.235605,3.28577,3,8.654,4,4
1774300370901,0.123755,-1.01799,-0.0803268,-1.2393800000000001,-0.19729600000000003,-0.20784,3.27916,3,8.667,4,4
1774300370915,0.125592,-0.982154,-0.0660516,-1.13903,-0.22997299999999998,-0.174511,3.28887,3,8.681,5,5
1774300370928,0.126068,-0.952697,-0.0476068,-1.02517,-0.262114,-0.138064,3.2772,3,8.694,5,5
1774300370942,0.128349,-0.924027,-0.0285699,-0.909668,-0.293514,-0.0997468,3.29672,3,8.708,5,5
1774300370955,0.126761,-0.898212,-0.0126504,-0.79483,-0.321877,-0.0646797,3.27948,3,8.721,5,5
1774300370968,0.122189,-0.868412,0.00239136,-0.678366,-0.34630299999999997,-0.0360413,3.28831,3,8.734,5,5
1774300370982,0.115917,-0.841367,0.0165831,-0.558737,-0.365522,-0.0138735,3.31013,3,8.748,5,5
1774300370995,0.106673,-0.817865,0.0299728,-0.435084,-0.37735500000000005,0.00044399099999999997,3.28322,3,8.761,5,5
1774300371008,0.0951957,-0.800505,0.0428622,-0.308475,-0.38366100000000003,0.00552307,3.28748,3,8.774,5,5
1774300371022,0.0832384,-0.789968,0.0538427,-0.182031,-0.38177700000000003,0.00305949,3.28046,3,8.788,5,5
1774300371035,0.0720389,-0.784302,0.0641615,-0.0567029,-0.372399,-0.002974,3.28259,3,8.801,5,5
1774300371049,0.0625891,-0.782321,0.0732603,0.06704220000000001,-0.356914,-0.0111825,3.2915,3,8.815,5,5
1774300371062,0.0553463,-0.784997,0.0815448,0.18909099999999998,-0.33722700000000005,-0.0211443,3.27594,3,8.828,5,5
1774300371075,0.0500111,-0.792307,0.0886555,0.309912,-0.314912,-0.0319732,3.29065,2,8.841,5,5
1774300371089,0.0456352,-0.806333,0.0951884,0.42879500000000004,-0.290358,-0.0428283,3.28705,2,8.855,5,5
1774300371102,0.040746,-0.82912,0.0997058,0.543393,-0.263208,-0.0531731,3.27533,2,8.868,5,5
1774300371115,0.0365618,-0.860606,0.101442,0.650001,-0.23297400000000001,-0.0649801,3.27211,5,8.881,5,5
1774300371129,0.0345998,-0.903121,0.0984363,0.744271,-0.200329,-0.081096,3.27092,5,8.895,5,5
1774300371142,0.0341544,-0.953791,0.0886863,0.8214560000000001,-0.165991,-0.10430600000000001,3.30214,5,8.908,5,5
1774300371155,0.0354688,-0.995317,0.0719848,0.8872249999999999,-0.129135,-0.127225,3.27055,5,8.921,5,5
1774300371169,0.0428328,-1.03628,0.0538998,0.9476220000000001,-0.0918717,-0.14050100000000001,3.27057,5,8.935,5,5
1774300371182,0.0598364,-1.08745,0.0329328,0.9949760000000001,-0.0591132,-0.14869400000000002,3.29968,5,8.948,5,5
1774300371196,0.0823743,-1.13119,0.00209908,1.0295999999999998,-0.0344866,-0.150955,3.28848,5,8.962,5,5
1774300371209,0.0953104,-1.18095,-0.0326392,1.04061,-0.0160284,-0.148037,3.26626,5,8.975,5,5
1774300371222,0.100399,-1.19614,-0.0677908,1.05129,-0.00108912,-0.153958,3.27485,5,8.988,5,5
1774300371236,0.0916736,-1.20792,-0.104203,1.05969,0.0148919,-0.179769,3.28142,5,9.002,5,5
1774300371249,0.0755889,-1.20642,-0.141285,1.06726,0.0344469,-0.211704,3.2817,5,9.015,5,5
1774300371262,0.0577626,-1.19892,-0.180804,1.07527,0.058133,-0.23562100000000002,3.28122,5,9.028,1,1
1774300371276,0.0464174,-1.20453,-0.224103,1.08275,0.08183510000000001,-0.243402,3.27533,5,9.042,1,1
1774300371289,0.0455299,-1.20547,-0.27026,1.08273,0.099746,-0.232259,3.32513,5,9.055,1,1
1774300371303,0.0517493,-1.20669,-0.319801,1.0696700000000001,0.105956,-0.21306899999999998,3.29492,5,9.069,1,1
1774300371316,0.0566076,-1.20992,-0.371596,1.0384600000000002,0.0998971,-0.198283,3.30955,5,9.082,1,1
1774300371329,0.0524451,-1.20665,-0.421584,0.9909330000000001,0.08596120000000002,-0.185362,3.28898,5,9.095,1,1
1774300371343,0.0336451,-1.21713,-0.467678,0.922294,0.0724215,-0.16389199999999998,3.29311,5,9.109,1,1
1774300371356,0.00590853,-1.21906,-0.504859,0.84257,0.0669719,-0.131406,3.28385,5,9.122,1,1
1774300371370,-0.0241384,-1.22069,-0.534628,0.7501390000000001,0.0733462,-0.08823399999999999,3.28094,5,9.136,1,1
1774300371383,-0.0192604,-1.1775,-0.525319,0.6568120000000001,0.087233,-0.045279,3.31175,5,9.149,1,1
1774300371396,-0.0345829,-1.30094,-0.489501,0.47966200000000003,0.10150100000000001,-0.0142947,3.27366,5,9.162,1,1
1774300371410,-0.0262694,-1.40194,-0.447861,0.38992800000000005,0.0940693,-0.0164902,3.32209,5,9.176,1,1
1774300371423,-0.0162267,-1.3339,-0.419104,0.287091,0.0917215,0.0034119800000000002,3.28296,5,9.189,1,1
1774300371437,-0.0259911,-1.30522,-0.411121,0.190788,0.0806377,0.019187700000000002,3.2785,5,9.203,1,1
1774300371450,-0.0354993,-1.27291,-0.407641,0.1298,0.0802465,0.020445,3.28439,5,9.216,1,1
1774300371463,-0.0388582,-1.26323,-0.397747,0.0930341,0.0862873,0.016968900000000002,3.28696,5,9.229,1,1
1774300371477,-0.037714,-1.24875,-0.385616,0.0694807,0.0851467,0.012274700000000001,3.28287,5,9.243,1,1
1774300371490,-0.0390435,-1.22633,-0.381255,0.0517829,0.0821819,0.00830197,3.28903,5,9.256,1,1
1774300371504,-0.0382329,-1.2183,-0.370208,0.0423955,0.0788267,0.00518582,3.29413,5,9.27,1,1
1774300371517,-0.0353651,-1.20679,-0.358268,0.0373841,0.0771455,0.00164072,3.28303,5,9.283,2,2
1774300371530,-0.0315657,-1.2006,-0.347244,0.0323113,0.0756357,-0.000339612,3.27948,5,9.296,2,2
1774300371544,-0.0289787,-1.19127,-0.336777,0.0285292,0.0730288,-0.00115124,3.29076,5,9.31,2,2
1774300371557,-0.0243695,-1.18181,-0.327484,0.0241885,0.0691765,-0.000508617,3.27151,5,9.323,2,2
1774300371570,-0.0201968,-1.17418,-0.320348,0.0192521,0.0644227,0.00148529,3.2792,5,9.336,2,2
1774300371584,-0.0179256,-1.16557,-0.310481,0.0147553,0.0600298,0.00403532,3.48616,5,9.35,2,2
1774300371597,-0.0163409,-1.15743,-0.300362,0.010240899999999999,0.0571079,0.007114570000000001,3.33498,5,9.363,2,2
1774300371611,-0.0163523,-1.14902,-0.291913,0.0057357300000000005,0.05545460000000001,0.0104493,3.28555,5,9.377,2,2
1774300371624,-0.0164272,-1.14269,-0.282511,0.0024595100000000003,0.0539197,0.013001799999999999,3.29603,5,9.39,2,2
1774300371638,-0.0168406,-1.13466,-0.275152,-0.000397429,0.0518758,0.014109400000000001,3.2877,5,9.404,2,2
1774300371651,-0.0171611,-1.12844,-0.266813,-0.00225487,0.0493684,0.0140801,3.28737,5,9.417,2,2
1774300371664,-0.01782,-1.12103,-0.257643,-0.00348146,0.0467662,0.0136885,3.28951,5,9.43,2,2
1774300371678,-0.0178307,-1.11621,-0.247999,-0.0048105199999999996,0.0445327,0.0132504,3.28496,5,9.444,2,2
1774300371691,-0.0175528,-1.11163,-0.239673,-0.00591517,0.0433493,0.0130724,3.32407,5,9.457,2,2
1774300371705,-0.0163581,-1.10757,-0.231572,-0.00664955,0.0414872,0.013259700000000001,3.2717,5,9.471,2,2
1774300371718,-0.0152583,-1.10303,-0.227168,-0.00747977,0.0397809,0.0135693,3.29531,5,9.484,2,2
1774300371731,-0.0149754,-1.09965,-0.217319,-0.00740276,0.0378407,0.0131764,3.27844,5,9.497,2,2
1774300371745,-0.0166053,-1.09494,-0.213185,-0.008010890000000001,0.0362148,0.013375,3.27572,5,9.511,2,2
1774300371758,-0.0166265,-1.09292,-0.210738,-0.00751015,0.0344874,0.0134169,3.27926,5,9.524,2,2
1774300371771,-0.0156645,-1.08622,-0.209188,-0.00686195,0.0323774,0.0136106,3.27083,5,9.537,2,2
1774300371785,-0.0130363,-1.08317,-0.204129,-0.00771451,0.0304756,0.014050400000000001,3.55902,5,9.551,2,2
1774300371798,-0.0128505,-1.08225,-0.200818,-0.00836938,0.0288518,0.0143499,3.30001,5,9.564,2,2
1774300371812,-0.0126409,-1.07952,-0.196595,-0.00839233,0.0273277,0.0150136,3.30444,5,9.578,2,2
1774300371825,-0.012024,-1.07626,-0.194008,-0.00915048,0.025661999999999997,0.015563100000000002,3.2775,5,9.591,2,2
1774300371839,-0.0121495,-1.07427,-0.190958,-0.00999884,0.023940000000000003,0.0164285,3.27366,5,9.605,2,2
1774300371852,-0.0126324,-1.07099,-0.190754,-0.010684,0.0226571,0.0173611,3.29148,5,9.618,2,2
1774300371865,-0.0134039,-1.06701,-0.18838,-0.011395,0.0214119,0.0181599,3.27579,5,9.631,2,2
1774300371879,-0.0134797,-1.06153,-0.186943,-0.012524200000000001,0.0203008,0.0189097,3.29638,5,9.645,2,2
1774300371892,-0.0135308,-1.0605,-0.181191,-0.0139541,0.0194532,0.0197587,3.30061,5,9.658,2,2
1774300371906,-0.0156083,-1.05801,-0.181189,-0.0154193,0.0186575,0.020397400000000003,3.28714,5,9.672,2,2
1774300371919,-0.0154489,-1.05779,-0.176372,-0.0154579,0.017688,0.0211673,3.28761,5,9.685,2,2
1774300371932,-0.0145704,-1.0462,-0.169385,-0.0153744,0.0168329,0.0212988,3.28492,5,9.698,2,2
1774300371946,-0.0136022,-1.04843,-0.16738,-0.0181816,0.015708800000000002,0.021902400000000002,3.29224,5,9.712,2,2
1774300371959,-0.0141071,-1.05034,-0.163188,-0.0180052,0.014352400000000001,0.021547399999999998,3.28185,5,9.725,2,2
1774300371973,-0.0153799,-1.048,-0.163878,-0.0179544,0.0135388,0.0214563,3.2884,5,9.739,2,2
1774300371986,-0.0158498,-1.04359,-0.156263,-0.0169302,0.0122784,0.020518200000000004,3.28564,5,9.752,2,2
1774300371999,-0.0156584,-1.0436,-0.159124,-0.0179459,0.0113756,0.0204892,3.31514,5,9.765,2,2
1774300372013,-0.0140768,-1.0408,-0.149826,-0.0163527,0.0100138,0.0193399,3.27165,5,9.779,3,3
1774300372026,-0.0154791,-1.03673,-0.156172,-0.0174008,0.009036800000000001,0.018935900000000002,3.28346,5,9.792,3,3
1774300372040,-0.0140548,-1.03412,-0.143352,-0.0163948,0.0077292,0.0175312,3.28233,5,9.806,3,3
1774300372053,-0.0152232,-1.03139,-0.141525,-0.0182712,0.006777539999999999,0.0166934,3.27731,5,9.819,3,3
1774300372066,-0.0153795,-1.03915,-0.140343,-0.019794000000000003,0.00572512,0.0166134,3.27896,5,9.832,3,3
1774300372080,-0.0148671,-1.03618,-0.139907,-0.0194288,0.00495867,0.0160583,3.27479,5,9.846,3,3
1774300372093,-0.0143984,-1.03474,-0.137493,-0.0209038,0.00427375,0.0162366,3.3144,5,9.859,3,3
1774300372106,-0.0140143,-1.03479,-0.140097,-0.0229041,0.0037814,0.0169315,3.2752,5,9.872,3,3
1774300372120,-0.0137858,-1.03515,-0.136297,-0.025280399999999998,0.0037319999999999996,0.0173777,3.30424,5,9.886,3,3
1774300372133,-0.0146457,-1.03606,-0.135995,-0.027848700000000004,0.0039037500000000005,0.0182313,3.28815,5,9.899,3,3
1774300372147,-0.0146458,-1.03249,-0.13245,-0.0302731,0.00410012,0.019255400000000002,3.28866,5,9.913,3,3
1774300372160,-0.0118913,-1.03494,-0.129199,-0.0375412,0.00398146,0.024302700000000003,3.293,5,9.926,3,3
1774300372173,-0.0154605,-1.03498,-0.131407,-0.0414215,0.00431906,0.026005300000000002,3.29261,5,9.939,3,3
1774300372187,-0.00729985,-1.02654,-0.128447,-0.0470709,0.005832349999999999,0.028104800000000003,3.28907,5,9.953,3,3
1774300372200,-0.00166352,-1.04056,-0.125061,-0.057575900000000006,0.006781199999999999,0.0339146,3.30937,5,9.966,3,3
1774300372214,0.00280811,-1.03747,-0.121898,-0.06592450000000001,0.00818636,0.04094420000000001,3.31144,5,9.98,3,3
1774300372227,0.00677455,-1.04399,-0.113535,-0.0789558,0.009024569999999999,0.0496348,3.31316,5,9.993,3,3
1774300372242,0.00826133,-1.05358,-0.103797,-0.0938682,0.00870677,0.061306200000000005,4.8203,5,10.008,3,3
1774300372259,0.0142528,-1.08684,-0.0992152,-0.10657,0.0071993,0.0594388,5.55742,5,10.025,3,3
1774300372273,0.00172474,-1.09677,-0.0880217,-0.156607,0.011993700000000001,0.05453330000000001,3.27066,5,10.039,3,3
1774300372286,-0.00471411,-1.11791,-0.0840121,-0.20183,0.0135346,0.0480232,3.29342,5,10.052,3,3
1774300372300,-0.0148005,-1.13985,-0.0803914,-0.26020499999999996,0.0159183,0.037164,3.29935,5,10.066,3,3
1774300372313,-0.0308198,-1.15675,-0.0772494,-0.320996,0.0209387,0.0233428,3.29285,5,10.079,3,3
1774300372326,-0.0418785,-1.16798,-0.0748213,-0.385647,0.0249495,0.005090099999999999,3.27096,5,10.092,4,4
1774300372341,-0.0520479,-1.18458,-0.0756278,-0.45583599999999996,0.0294633,-0.016583300000000002,4.13072,5,10.107,4,4
1774300372354,-0.0515548,-1.20412,-0.071605,-0.531413,0.0331201,-0.038736700000000006,3.26666,5,10.12,4,4
1774300372367,-0.0399792,-1.22116,-0.0675553,-0.6125820000000001,0.033673,-0.054915900000000004,3.25735,5,10.133,4,4
1774300372381,-0.0295292,-1.23585,-0.0661491,-0.699389,0.0329061,-0.0648781,3.28183,5,10.147,4,4
1774300372394,-0.0139094,-1.24744,-0.0696304,-0.787583,0.0286111,-0.0723589,3.57842,5,10.16,4,4
1774300372408,-0.00321144,-1.25694,-0.0763546,-0.875355,0.0213841,-0.0798612,3.29016,5,10.174,4,4
1774300372421,0.0141081,-1.2612,-0.0888172,-0.957896,0.00979255,-0.0919695,3.26351,5,10.187,4,4
1774300372435,0.0413151,-1.26367,-0.100713,-1.0279500000000001,-0.0099823,-0.0930365,4.14056,5,10.201,4,4
1774300372449,0.0655813,-1.26282,-0.115143,-1.08889,-0.0352848,-0.08083420000000001,3.26739,5,10.215,4,4
1774300372462,0.0851987,-1.24617,-0.124916,-1.13582,-0.0648587,-0.0618273,3.26681,5,10.228,4,4
1774300372475,0.101193,-1.22606,-0.098057,-1.17894,-0.100648,-0.041647100000000006,3.28218,5,10.241,4,4
1774300372489,0.131318,-1.11498,-0.0771021,-1.17191,-0.152683,-0.0277586,3.26594,5,10.255,4,4
1774300372502,0.150676,-1.00827,-0.0648684,-1.10671,-0.213378,-0.024994000000000002,3.30172,5,10.268,4,4
1774300372516,0.154807,-0.975341,-0.0466995,-1.0205,-0.278603,-0.0277027,3.26479,3,10.282,5,5
1774300372529,0.149029,-0.948937,-0.0257271,-0.930536,-0.341565,-0.0228046,3.29044,3,10.295,5,5
1774300372542,0.136576,-0.928247,-0.00914186,-0.843122,-0.39494,-0.00967753,3.26604,3,10.308,5,5
1774300372556,0.121004,-0.904309,0.00472149,-0.758821,-0.435927,0.00489269,3.28231,3,10.322,5,5
1774300372569,0.105879,-0.874573,0.0179145,-0.671117,-0.464343,0.014924699999999999,3.2775,3,10.335,5,5
1774300372583,0.0908815,-0.844942,0.0305946,-0.5777490000000001,-0.480932,0.0162542,3.2825,3,10.349,5,5
1774300372596,0.07402,-0.816468,0.0430725,-0.476999,-0.485619,0.006962810000000001,3.31863,3,10.362,5,5
1774300372609,0.0568069,-0.79304,0.0551542,-0.36875,-0.47855600000000004,-0.0102341,3.27553,3,10.375,5,5
1774300372623,0.0397593,-0.775986,0.0672307,-0.255736,-0.46059300000000003,-0.029176700000000003,3.3,2,10.389,5,5
1774300372636,0.0244609,-0.763799,0.0790994,-0.139766,-0.433875,-0.0479261,3.28063,2,10.402,5,5
1774300372650,0.0114224,-0.75664,0.0897017,-0.022160199999999998,-0.40109,-0.0681244,3.3119,2,10.416,5,5
1774300372663,3.23948e-05,-0.754972,0.100107,0.0964016,-0.36416200000000004,-0.09004569999999999,3.28013,2,10.429,5,5
1774300372677,-0.011436,-0.761278,0.109342,0.21372900000000003,-0.323705,-0.112489,3.27594,2,10.443,5,5
1774300372690,-0.0226911,-0.776309,0.116156,0.32709200000000005,-0.280105,-0.13336,3.284,2,10.456,5,5
1774300372703,-0.0324824,-0.801424,0.119137,0.43294,-0.23427,-0.153416,3.30579,2,10.469,5,5
1774300372717,-0.0407138,-0.840687,0.116809,0.5251520000000001,-0.18693,-0.174129,3.29916,2,10.483,5,5
1774300372730,-0.0439728,-0.880421,0.108808,0.6044590000000001,-0.139098,-0.188909,3.28496,2,10.496,5,5
1774300372744,-0.0372558,-0.91545,0.0994261,0.68192,-0.0945018,-0.19416,3.30535,2,10.51,5,5
1774300372757,-0.020145,-0.959976,0.0858745,0.754258,-0.057977600000000004,-0.1962,3.29265,2,10.523,5,5
1774300372771,0.00726802,-1.00876,0.0663599,0.815836,-0.032999299999999995,-0.197878,3.27639,2,10.537,5,5
1774300372784,0.0347528,-1.05403,0.0409402,0.866086,-0.0184398,-0.19727799999999998,3.28905,2,10.55,5,5
1774300372798,0.0453512,-1.10256,0.0102154,0.906803,-0.00862332,-0.203177,3.31252,2,10.564,5,5
1774300372811,0.0484608,-1.12289,-0.022924,0.9299930000000001,0.00368689,-0.20891600000000002,3.31016,2,10.577,5,5
1774300372825,0.037138,-1.14176,-0.0543151,0.949708,0.024448400000000002,-0.219634,3.27298,5,10.591,5,5
1774300372838,0.0194024,-1.15058,-0.0821661,0.969348,0.054488800000000004,-0.241617,3.28461,5,10.604,5,5
1774300372851,0.00662783,-1.15919,-0.109504,0.9878990000000001,0.09060280000000001,-0.270394,3.27089,5,10.617,1,1
1774300372865,0.00724551,-1.16944,-0.137493,1.0021,0.125637,-0.291713,3.27241,5,10.631,1,1
1774300372878,0.0179899,-1.18549,-0.169223,1.00187,0.154083,-0.304171,3.27659,5,10.644,1,1
1774300372892,0.0350656,-1.19107,-0.203366,0.98928,0.170429,-0.31550300000000003,3.26939,5,10.658,1,1
1774300372905,0.0518536,-1.19292,-0.237927,0.966455,0.17304200000000003,-0.32759,3.31027,5,10.671,1,1
1774300372918,0.0633057,-1.19262,-0.269087,0.933466,0.16342099999999998,-0.338845,3.28146,5,10.684,1,1
1774300372932,0.0671249,-1.1924,-0.296856,0.889566,0.14585800000000002,-0.34550400000000003,3.29783,5,10.698,1,1
1774300372945,0.0669867,-1.19,-0.319641,0.835832,0.124099,-0.341941,3.27742,5,10.711,1,1
1774300372959,0.0668332,-1.18205,-0.338622,0.776757,0.0997448,-0.32911900000000005,3.29857,5,10.725,1,1
1774300372972,0.0679996,-1.17072,-0.353751,0.717738,0.0734128,-0.312135,3.28526,5,10.738,1,1
1774300372985,0.0681862,-1.15954,-0.364888,0.659623,0.0456205,-0.298202,3.28505,5,10.751,1,1
1774300372999,0.0650227,-1.14937,-0.374469,0.601668,0.0181111,-0.29018,3.28866,5,10.765,1,1
1774300373012,0.055741,-1.13798,-0.383675,0.5448700000000001,-0.00492213,-0.284394,3.30089,5,10.778,1,1
1774300373026,0.0371278,-1.12601,-0.393022,0.48970300000000005,-0.0184422,-0.27621300000000004,3.29552,5,10.792,1,1
1774300373039,0.0105735,-1.11311,-0.40211,0.437207,-0.0176989,-0.26202200000000003,3.28633,5,10.805,1,1
1774300373053,-0.0466365,-1.12372,-0.409391,0.369864,0.010184,-0.213592,3.30096,5,10.819,1,1
1774300373066,-0.0825106,-1.1105,-0.404983,0.315582,0.0581905,-0.15016400000000002,3.27668,5,10.832,1,1
1774300373079,-0.0967967,-1.09654,-0.396785,0.27627,0.11346,-0.11839600000000002,3.28416,5,10.845,1,1
1774300373093,-0.0935138,-1.05898,-0.302335,0.13536600000000001,0.19003499999999998,-0.0590327,3.2945,5,10.859,1,1
1774300373106,-0.0739534,-1.18759,-0.251295,0.0428336,0.190731,-0.005298150000000001,3.30242,5,10.872,1,1
1774300373120,-0.0798906,-1.13347,-0.239174,-0.0187315,0.196689,0.0180954,3.34389,5,10.886,1,1
1774300373133,-0.0807103,-1.08929,-0.24537,-0.0821486,0.184055,0.0227667,3.32242,2,10.899,1,1
1774300373147,-0.090452,-1.08662,-0.247078,-0.10888,0.17623999999999998,0.014330400000000002,3.32544,2,10.913,2,2
1774300373160,-0.0898702,-1.07776,-0.24127,-0.110878,0.174335,0.0108761,3.28092,2,10.926,2,2
1774300373174,-0.088481,-1.06737,-0.23879,-0.111539,0.164077,0.008035170000000001,3.2835,2,10.94,2,2
1774300373187,-0.0897365,-1.06735,-0.235607,-0.105754,0.148339,0.00044231399999999997,3.28696,5,10.953,2,2
1774300373200,-0.0891859,-1.0688,-0.226777,-0.0979422,0.135673,-0.00835603,3.35168,5,10.966,2,2
1774300373214,-0.0838976,-1.06545,-0.217831,-0.0920715,0.127784,-0.016181300000000003,3.317,5,10.98,2,2
1774300373227,-0.0787872,-1.05987,-0.213889,-0.0879861,0.12043200000000001,-0.0224115,3.28357,5,10.993,2,2
1774300373241,-0.0711563,-1.05816,-0.207343,-0.0851745,0.115664,-0.0251322,3.29837,5,11.007,2,2
1774300373254,-0.0632612,-1.05519,-0.203496,-0.0834927,0.109476,-0.024951400000000002,3.27357,5,11.02,2,2
1774300373267,-0.0547291,-1.05081,-0.199295,-0.08170820000000001,0.101823,-0.0229053,3.27083,5,11.033,2,2
1774300373281,-0.0502537,-1.04411,-0.194177,-0.0801137,0.0959405,-0.0199462,3.27641,5,11.047,2,2
1774300373294,-0.04607,-1.0404,-0.187351,-0.07836030000000001,0.0920063,-0.0167892,3.26852,5,11.06,2,2
1774300373307,-0.0421868,-1.03782,-0.182969,-0.0759431,0.0888193,-0.0138265,3.3037,5,11.073,2,2
1774300373321,-0.0385482,-1.0366,-0.1769,-0.0731862,0.0857983,-0.011029899999999999,3.277,5,11.087,2,2
1774300373334,-0.0349832,-1.03693,-0.17336,-0.070387,0.0815252,-0.00871127,3.29253,5,11.1,2,2
1774300373348,-0.0326526,-1.03501,-0.167348,-0.06717100000000001,0.0771535,-0.0068139,3.27831,5,11.114,2,2
1774300373361,-0.0299861,-1.03528,-0.164065,-0.0648291,0.07359650000000001,-0.00449629,3.3005,5,11.127,2,2
1774300373374,-0.0281408,-1.03122,-0.155406,-0.062413,0.0707186,-0.00195328,3.27498,5,11.14,2,2
1774300373388,-0.0256076,-1.03114,-0.151087,-0.0618366,0.0682163,0.00116643,3.27326,5,11.154,2,2
1774300373401,-0.0219893,-1.03422,-0.149167,-0.060192100000000005,0.06564009999999999,0.00364443,3.2777,5,11.167,2,2
1774300373414,-0.0208889,-1.03329,-0.148579,-0.058271699999999996,0.0630672,0.00579075,3.29785,5,11.18,2,2
1774300373428,-0.0203384,-1.03147,-0.146715,-0.056565899999999995,0.05968810000000001,0.007247190000000001,3.29874,5,11.194,2,2
1774300373441,-0.0200148,-1.03069,-0.14599,-0.055465400000000005,0.0559718,0.00840355,3.28216,5,11.207,2,2
1774300373455,-0.0181572,-1.03176,-0.147624,-0.054401000000000005,0.05199290000000001,0.00957213,3.30485,5,11.221,2,2
1774300373468,-0.0176941,-1.02863,-0.147734,-0.0528867,0.0482501,0.010217,3.35965,5,11.234,2,2
1774300373482,-0.0169524,-1.02635,-0.148235,-0.0521381,0.0451626,0.0114808,3.28698,5,11.248,2,2
1774300373495,-0.0157305,-1.02262,-0.145147,-0.0508064,0.041700100000000004,0.012035800000000001,3.29379,5,11.261,2,2
1774300373508,-0.0148397,-1.02203,-0.146006,-0.0510781,0.038765900000000006,0.0127266,3.40574,5,11.274,2,2
1774300373522,-0.0130377,-1.02007,-0.140422,-0.0494761,0.035666500000000004,0.0127577,3.2939,5,11.288,2,2
1774300373535,-0.0124141,-1.01756,-0.141968,-0.0486705,0.0337687,0.0135922,3.27366,5,11.301,2,2
1774300373549,-0.0116897,-1.01168,-0.139806,-0.046647,0.0311766,0.014079999999999999,3.28907,5,11.315,2,2
1774300373562,-0.0112425,-1.01433,-0.1447,-0.0468907,0.0289525,0.0152,3.27004,5,11.328,2,2
1774300373575,-0.00991807,-1.01507,-0.141799,-0.043305699999999996,0.0266991,0.0150624,3.26887,5,11.341,2,2
1774300373589,-0.0103812,-1.0066,-0.139121,-0.0411891,0.0247133,0.0151467,3.27276,5,11.355,2,2
1774300373602,-0.00833633,-1.00601,-0.134511,-0.0404416,0.0222566,0.0150464,3.26663,5,11.368,2,2
1774300373615,-0.0083241,-1.00841,-0.133112,-0.0398559,0.0202161,0.0151016,3.30116,5,11.381,2,2
1774300373629,-0.00783195,-1.01069,-0.128775,-0.0382754,0.0184741,0.0145885,3.2878,5,11.395,2,2
1774300373642,-0.00886675,-1.00911,-0.132849,-0.0376442,0.017232300000000002,0.014583800000000001,3.34072,5,11.408,2,2
1774300373656,-0.00766754,-1.01035,-0.131096,-0.0355712,0.0162999,0.0143652,3.29511,5,11.422,2,2
1774300373669,-0.00904053,-1.00443,-0.138218,-0.0351474,0.0153171,0.0142916,3.28094,5,11.435,2,2
1774300373682,-0.00679806,-1.00622,-0.13465,-0.033843899999999996,0.0140512,0.014209300000000001,3.2859,5,11.448,2,2
1774300373696,-0.00694919,-0.998026,-0.130961,-0.0340522,0.012826299999999999,0.0138662,3.27774,5,11.462,2,2
1774300373709,-0.00542812,-1.00537,-0.130412,-0.0367793,0.0117471,0.0146298,3.30383,5,11.475,2,2
1774300373722,-0.00435794,-1.00752,-0.130934,-0.0358938,0.0106814,0.014327300000000001,3.29261,5,11.488,2,2
1774300373736,-0.00489338,-1.00538,-0.130333,-0.0360085,0.00990244,0.014786800000000001,3.31081,5,11.502,2,2
1774300373749,-0.00552286,-1.00581,-0.131103,-0.036253799999999996,0.009081510000000001,0.0151007,3.27552,5,11.515,2,2
1774300373763,-0.00499305,-1.00569,-0.131861,-0.03613,0.008310910000000001,0.014964400000000001,3.26791,5,11.529,2,2
1774300373776,-0.00405934,-1.00742,-0.132565,-0.0365312,0.00750646,0.0147673,3.27613,5,11.542,2,2
1774300373789,-0.00338,-1.00502,-0.13075,-0.036203400000000004,0.00662725,0.014046000000000001,3.26752,5,11.555,2,2
1774300373803,-0.00232465,-1.00376,-0.130744,-0.0372513,0.00634971,0.0145042,3.27609,5,11.569,2,2
1774300373816,-0.00218028,-1.00522,-0.128944,-0.0382961,0.00610487,0.014988,3.2945,5,11.582,2,2
1774300373830,-0.00162582,-1.0067,-0.12969,-0.039757600000000004,0.00609214,0.015898600000000002,3.302,5,11.596,3,3
1774300373843,-0.00143728,-1.0068,-0.128108,-0.04058900000000001,0.00607584,0.0161714,3.28481,5,11.609,3,3
1774300373856,-0.00154525,-1.00653,-0.126968,-0.042136,0.0059534,0.0164761,3.27766,5,11.622,3,3
1774300373870,-0.00097586,-1.00594,-0.1248,-0.0432922,0.00568797,0.0166095,3.28737,5,11.636,3,3
1774300373883,0.000305336,-1.00671,-0.126496,-0.045269899999999995,0.00561299,0.016958200000000003,3.27479,5,11.649,3,3
1774300373896,0.000313336,-1.00605,-0.126537,-0.045894899999999995,0.00519537,0.0166021,3.28468,5,11.662,3,3
1774300373910,0.000726709,-1.00642,-0.130346,-0.0474311,0.00505382,0.0168484,3.27437,5,11.676,3,3
1774300373923,0.00044936,-1.01021,-0.131735,-0.047780699999999995,0.00453055,0.016708300000000002,3.31596,5,11.689,3,3
1774300373937,0.00215936,-1.00187,-0.135199,-0.0479694,0.00419079,0.017633700000000002,3.27859,5,11.703,3,3
1774300373950,0.00418963,-1.00148,-0.136568,-0.0501044,0.00404135,0.0184344,3.28409,5,11.716,3,3
1774300373963,0.00388896,-1.00461,-0.138464,-0.052380699999999995,0.00387889,0.019875300000000002,3.27774,5,11.729,3,3
1774300373977,0.00398581,-1.0026,-0.141377,-0.0550433,0.00405953,0.023573200000000002,3.26676,5,11.743,3,3
1774300373990,0.00417451,-1.00712,-0.138045,-0.0611874,0.0035877500000000002,0.0275947,3.27998,5,11.756,3,3
1774300374003,0.0046646,-1.01512,-0.134229,-0.06483320000000001,0.00227322,0.0296779,3.26974,5,11.769,3,3
1774300374017,0.00466346,-1.03347,-0.131637,-0.074419,0.00156766,0.0277777,3.32537,5,11.783,3,3
1774300374030,0.00584751,-1.0354,-0.131699,-0.08649430000000001,0.0027600000000000003,0.0226142,3.27828,5,11.796,3,3
1774300374044,0.00571991,-1.04035,-0.123622,-0.10199400000000002,0.00299912,0.017821800000000002,3.29459,5,11.81,3,3
1774300374057,0.00204248,-1.05599,-0.119294,-0.12121499999999999,0.00355025,0.0110716,3.3565,5,11.823,3,3
1774300374071,-0.00450636,-1.06209,-0.118732,-0.14611000000000002,0.00559052,0.00371517,3.28472,5,11.837,3,3
1774300374084,-0.00434132,-1.07018,-0.119049,-0.16728,0.008227139999999999,-0.00586622,3.30004,5,11.85,3,3
1774300374097,-0.00541133,-1.0702,-0.118103,-0.19284500000000002,0.0106388,-0.0155867,3.28446,5,11.863,3,3
1774300374111,-0.005164,-1.08261,-0.117422,-0.222337,0.012581199999999999,-0.025014599999999998,3.29344,5,11.877,3,3
1774300374124,-0.00518374,-1.09147,-0.113739,-0.253215,0.0137252,-0.0344531,3.3052,5,11.89,3,3
1774300374138,-0.0064518,-1.10353,-0.114669,-0.287221,0.0146938,-0.043914600000000005,3.31528,5,11.904,3,3
1774300374151,-0.00703448,-1.10956,-0.114886,-0.32310099999999997,0.015680799999999998,-0.054275500000000004,3.28215,5,11.917,3,3
1774300374164,-0.00616097,-1.12074,-0.116578,-0.36095900000000003,0.016651,-0.0661534,3.27335,5,11.93,3,3
1774300374178,-0.00818706,-1.12192,-0.115686,-0.40140300000000007,0.018299000000000003,-0.0775234,3.27674,5,11.944,3,3
1774300374191,-0.00995372,-1.13359,-0.119425,-0.44433999999999996,0.0193278,-0.0899684,3.26657,5,11.957,4,4
1774300374204,-0.00996685,-1.13965,-0.121398,-0.491184,0.0202519,-0.102713,3.27581,5,11.97,4,4
1774300374218,-0.00635994,-1.15872,-0.125762,-0.5379010000000001,0.0216379,-0.115475,3.30748,5,11.984,4,4
1774300374231,0.00465915,-1.16357,-0.126508,-0.590566,0.0212549,-0.124755,3.33092,5,11.997,4,4
1774300374245,0.0132531,-1.17901,-0.128813,-0.649718,0.018504,-0.132268,3.28813,5,12.011,4,4
1774300374258,0.0191865,-1.19889,-0.131657,-0.714578,0.014481599999999999,-0.138307,3.27594,5,12.024,4,4
1774300374271,0.0273053,-1.21622,-0.140495,-0.783748,0.00837695,-0.147608,3.32798,5,12.037,4,4
1774300374285,0.0362862,-1.23287,-0.149629,-0.8546720000000001,-0.000815087,-0.16654800000000003,3.28548,5,12.051,4,4
1774300374298,0.0550388,-1.24405,-0.16004,-0.920976,-0.0161327,-0.20047,3.29105,5,12.064,4,4
1774300374312,0.0748718,-1.24633,-0.171395,-0.983089,-0.037574800000000005,-0.23108499999999998,3.27933,5,12.078,4,4
1774300374325,0.0966348,-1.24621,-0.185093,-1.03542,-0.0650934,-0.254882,3.31485,5,12.091,4,4
1774300374338,0.115118,-1.23409,-0.195726,-1.07773,-0.09794069999999999,-0.275354,3.28889,5,12.104,4,4
1774300374352,0.133584,-1.22102,-0.193903,-1.11002,-0.137287,-0.292305,3.28387,5,12.118,4,4
1774300374365,0.142391,-1.15754,-0.162105,-1.11602,-0.182929,-0.291538,3.29122,3,12.131,4,4
1774300374379,0.149841,-1.08564,-0.13836,-1.09602,-0.23210899999999998,-0.26025400000000004,3.28018,3,12.145,5,5
1774300374396,0.154402,-0.989747,-0.125817,-1.01005,-0.287236,-0.210699,7.17598,3,12.162,5,5
1774300374409,0.1516,-0.967496,-0.102111,-0.903681,-0.33893999999999996,-0.162253,3.28342,3,12.175,5,5
1774300374423,0.146241,-0.944724,-0.0793238,-0.799172,-0.38884500000000005,-0.123723,3.33729,3,12.189,5,5
1774300374436,0.136504,-0.91731,-0.0590174,-0.695863,-0.433659,-0.09410170000000001,3.27216,3,12.202,5,5
1774300374450,0.120284,-0.888031,-0.0418731,-0.5912149999999999,-0.468989,-0.0721455,4.01348,3,12.216,5,5
1774300374464,0.100268,-0.856765,-0.0246992,-0.481086,-0.491607,-0.051788999999999995,3.28211,3,12.23,5,5
1774300374477,0.0785655,-0.832632,-0.00850056,-0.367012,-0.5005,-0.032386,3.2725,3,12.243,5,5
1774300374490,0.0582174,-0.814209,0.00754487,-0.251372,-0.496576,-0.0177495,3.281,3,12.256,5,5
1774300374504,0.040585,-0.80097,0.0225469,-0.135385,-0.48153300000000004,-0.00964602,3.2762,3,12.27,5,5
1774300374517,0.0251971,-0.789399,0.0365512,-0.0177003,-0.456946,-0.00606483,3.28168,3,12.283,5,5
1774300374531,0.0109839,-0.784996,0.0501673,0.10139900000000002,-0.423787,-0.00625987,3.30239,2,12.297,5,5
1774300374544,-0.00194568,-0.788067,0.0617572,0.220416,-0.38280700000000006,-0.010045,3.30885,2,12.31,5,5
1774300374557,-0.0137546,-0.800987,0.070737,0.33500599999999997,-0.33498399999999995,-0.018182300000000002,3.28428,2,12.323,5,5
1774300374571,-0.0240863,-0.823826,0.0748077,0.44172400000000006,-0.281263,-0.0317807,3.28478,2,12.337,5,5
1774300374584,-0.0330371,-0.858522,0.0737569,0.535525,-0.22235,-0.0516343,3.29202,2,12.35,5,5
1774300374598,-0.0354254,-0.908324,0.0684814,0.609081,-0.16118500000000002,-0.0744549,3.27976,2,12.364,5,5
1774300374611,-0.032723,-0.945165,0.056646,0.670398,-0.101776,-0.0917906,3.28748,2,12.377,5,5
1774300374625,-0.0137391,-0.968095,0.046727,0.7384780000000001,-0.0507822,-0.0912534,3.3267,5,12.391,5,5
1774300374638,0.0180596,-1.01287,0.0319887,0.800026,-0.0146508,-0.0862718,3.32518,5,12.404,5,5
1774300374651,0.0510728,-1.04454,0.00998333,0.8524769999999999,0.007165,-0.08781689999999999,3.28363,5,12.417,5,5
1774300374665,0.0738445,-1.07695,-0.0133872,0.894463,0.0213172,-0.0905898,3.28824,5,12.431,5,5
1774300374678,0.0813774,-1.15404,-0.0377643,0.9199379999999999,0.0353606,-0.084104,3.28054,5,12.444,5,5
1774300374692,0.0837977,-1.14812,-0.0695101,0.931391,0.0542298,-0.0788768,3.27135,5,12.458,5,5
1774300374705,0.0812434,-1.15432,-0.0943263,0.931789,0.0786304,-0.0851271,3.27811,5,12.471,1,1
1774300374718,0.0790143,-1.17489,-0.120214,0.9273210000000001,0.105383,-0.101145,3.27029,5,12.484,1,1
1774300374732,0.0758044,-1.16517,-0.144222,0.920569,0.134536,-0.11939,3.32013,5,12.498,1,1
1774300374745,0.0758205,-1.16913,-0.166038,0.918995,0.16220400000000001,-0.140688,3.30054,5,12.511,1,1
1774300374759,0.0809394,-1.17433,-0.186408,0.9133100000000001,0.18566500000000002,-0.165351,3.32768,5,12.525,1,1
1774300374772,0.0882047,-1.18094,-0.20624,0.9044490000000001,0.20295000000000002,-0.190541,3.29031,5,12.538,1,1
1774300374786,0.0937109,-1.1842,-0.225803,0.884691,0.214983,-0.20846,3.28131,5,12.552,1,1
1774300374799,0.0996917,-1.18282,-0.24309,0.858934,0.220184,-0.218425,3.29033,5,12.565,1,1
1774300374813,0.107706,-1.18052,-0.258436,0.8300740000000001,0.217622,-0.22533000000000003,3.27972,5,12.579,1,1
1774300374826,0.11552,-1.17812,-0.273303,0.7943810000000001,0.207051,-0.22826000000000002,3.33341,5,12.592,1,1
1774300374839,0.124135,-1.16989,-0.286431,0.756005,0.187867,-0.226246,3.29104,5,12.605,1,1
1774300374853,0.132639,-1.16089,-0.298771,0.716682,0.161443,-0.220976,3.31466,5,12.619,1,1
1774300374866,0.139928,-1.15009,-0.309803,0.677427,0.12875999999999999,-0.214922,3.2847,5,12.632,1,1
1774300374880,0.144443,-1.1381,-0.320064,0.639733,0.0920054,-0.210262,3.28913,5,12.646,1,1
1774300374893,0.144895,-1.12659,-0.32931,0.603382,0.0542939,-0.207258,3.28324,5,12.659,1,1
1774300374906,0.139893,-1.11638,-0.338568,0.566916,0.0189889,-0.20411500000000002,3.27583,5,12.672,1,1
1774300374920,0.127775,-1.10684,-0.348554,0.529426,-0.00953585,-0.19947,3.28359,5,12.686,1,1
1774300374933,0.109962,-1.09563,-0.358903,0.49204300000000006,-0.0271561,-0.193034,3.30542,5,12.699,1,1
1774300374947,0.0886788,-1.10344,-0.365789,0.456278,-0.030591200000000002,-0.173021,3.30557,1,12.713,1,1
1774300374960,0.0535387,-1.08969,-0.379815,0.408341,-0.011957599999999999,-0.133917,3.28863,1,12.726,1,1
1774300374973,0.0137962,-1.08398,-0.396186,0.352864,0.0295193,-0.0816897,3.27581,1,12.739,1,1
1774300374987,-0.0256817,-1.07499,-0.409876,0.301086,0.0890513,-0.026033499999999998,3.28913,1,12.753,1,1
1774300375000,-0.0914386,-1.20291,-0.352276,0.143889,0.15520799999999998,0.022390300000000002,3.28383,1,12.766,1,1
1774300375014,-0.0664063,-1.27663,-0.309964,0.081781,0.202881,0.055372199999999996,3.2867,1,12.78,1,1
1774300375028,-0.0413156,-1.18354,-0.296814,0.0100584,0.221299,0.0750671,3.91082,2,12.794,1,1
1774300375042,-0.0319495,-1.14567,-0.302753,-0.0539759,0.202809,0.0755237,3.35644,2,12.808,1,1
1774300375055,-0.0417417,-1.12964,-0.312885,-0.0853402,0.18918500000000002,0.07442599999999999,3.26157,2,12.821,1,1
1774300375069,-0.0352504,-1.11795,-0.30816,-0.0828697,0.204534,0.0829298,4.17158,2,12.835,1,1
1774300375083,-0.0356413,-1.111,-0.302328,-0.0824219,0.195027,0.0778799,3.27889,2,12.849,2,2
1774300375096,-0.0414177,-1.11032,-0.291487,-0.07678810000000001,0.18157800000000002,0.0666476,3.27104,2,12.862,2,2
1774300375111,-0.0419553,-1.10838,-0.281473,-0.071282,0.170301,0.056507800000000004,4.84951,2,12.877,2,2
1774300375124,-0.0419356,-1.1042,-0.274726,-0.0674463,0.158689,0.045189700000000006,3.28263,2,12.89,2,2
1774300375138,-0.0370053,-1.09902,-0.270314,-0.06585110000000001,0.147745,0.0367802,3.31574,5,12.904,2,2
1774300375151,-0.0297709,-1.09214,-0.261994,-0.0633734,0.13858900000000002,0.0315357,3.26996,5,12.917,2,2
1774300375165,-0.0205894,-1.08725,-0.25974,-0.0637451,0.131003,0.0311627,4.13223,5,12.931,2,2
1774300375179,-0.0145961,-1.08295,-0.250409,-0.0615483,0.12445200000000001,0.0321465,3.26261,5,12.945,2,2
1774300375192,-0.0119826,-1.07054,-0.24059,-0.0600955,0.118507,0.0333149,3.27205,5,12.958,2,2
1774300375205,-0.0104015,-1.0655,-0.230325,-0.060167200000000004,0.11319599999999999,0.0345977,3.30135,5,12.971,2,2
1774300375219,-0.0106193,-1.06374,-0.223605,-0.0592586,0.10807499999999999,0.0355045,3.26126,5,12.985,2,2
1774300375232,-0.0107741,-1.06129,-0.211573,-0.0562473,0.102685,0.0351315,3.45678,5,12.998,2,2
1774300375246,-0.0102923,-1.05943,-0.206367,-0.0550148,0.0971308,0.034235600000000005,3.27018,5,13.012,2,2
1774300375259,-0.00993827,-1.05708,-0.195388,-0.052438399999999996,0.0915455,0.0327049,3.2988,5,13.025,2,2
1774300375273,-0.00985598,-1.05658,-0.191712,-0.0513553,0.0867573,0.0315041,3.27042,5,13.039,2,2
1774300375287,-0.00952105,-1.05331,-0.185527,-0.0492754,0.0821007,0.0305505,4.06222,5,13.053,2,2
1774300375300,-0.00817578,-1.05812,-0.183329,-0.048279800000000005,0.0776753,0.029761799999999998,3.26067,5,13.066,2,2
1774300375313,-0.00745521,-1.05192,-0.1786,-0.0442786,0.0731256,0.028255100000000002,3.25629,5,13.079,2,2
1774300375329,-0.00786588,-1.04582,-0.178679,-0.042891000000000006,0.0689382,0.026875700000000002,5.18103,5,13.095,2,2
1774300375342,-0.00755392,-1.05098,-0.174666,-0.0423906,0.0646045,0.0259291,3.32413,5,13.108,2,2
1774300375356,-0.00722357,-1.05183,-0.177267,-0.0409206,0.0605226,0.025236800000000004,3.29282,5,13.122,2,2
1774300375369,-0.0060108,-1.04735,-0.175269,-0.0390534,0.056631,0.0249645,3.26922,5,13.135,2,2
1774300375382,-0.00599351,-1.04389,-0.177171,-0.0388453,0.052855,0.0250928,3.28911,5,13.148,2,2
1774300375396,-0.00589155,-1.04387,-0.174622,-0.0384348,0.049539099999999996,0.025402300000000003,3.25561,5,13.162,2,2
1774300375409,-0.00639195,-1.04167,-0.176168,-0.0377733,0.0463321,0.0257116,3.48278,5,13.175,2,2
1774300375423,-0.00553587,-1.03775,-0.175307,-0.0374143,0.0433864,0.0262819,3.31898,5,13.189,2,2
1774300375436,-0.00536851,-1.03569,-0.174784,-0.0376022,0.0408329,0.0267259,3.30755,5,13.202,2,2
1774300375450,-0.00576366,-1.03324,-0.173012,-0.0371501,0.0386923,0.027342,3.3068,5,13.216,2,2
1774300375463,-0.00628034,-1.02998,-0.172621,-0.036633399999999997,0.0365563,0.0280435,3.25661,5,13.229,2,2
1774300375477,-0.00587756,-1.02793,-0.170378,-0.0357689,0.0344886,0.0283588,3.29283,5,13.243,2,2
1774300375490,-0.006464,-1.0255,-0.167123,-0.0349315,0.032477,0.027889900000000002,3.28037,5,13.256,2,2
1774300375504,-0.00624537,-1.02432,-0.163541,-0.0342352,0.0306253,0.027528700000000003,4.04265,5,13.27,2,2
1774300375517,-0.00665557,-1.02423,-0.163062,-0.0335738,0.0287576,0.027149200000000002,3.25991,5,13.283,2,2
1774300375531,-0.00727204,-1.0229,-0.162497,-0.0328252,0.026848999999999998,0.0264613,3.25283,5,13.297,2,2
1774300375544,-0.00703943,-1.02386,-0.163782,-0.0321144,0.0251589,0.026064600000000004,3.30541,5,13.31,2,2
1774300375558,-0.007874,-1.01828,-0.156716,-0.0300047,0.0233537,0.024962300000000003,3.26237,5,13.324,2,2
1774300375571,-0.00752965,-1.0155,-0.157582,-0.0310963,0.0217783,0.024260000000000004,3.2775,5,13.337,2,2
1774300375584,-0.00830008,-1.02056,-0.154224,-0.0321867,0.0202955,0.023772700000000004,3.26405,5,13.35,2,2
1774300375598,-0.00912223,-1.02095,-0.153608,-0.0320554,0.019084300000000002,0.0234369,3.99847,5,13.364,2,2
1774300375612,-0.00944932,-1.02011,-0.154108,-0.0324411,0.018168,0.023441100000000003,3.26413,5,13.378,2,2
1774300375625,-0.0088866,-1.01972,-0.151351,-0.0332719,0.0172045,0.0237319,3.26194,5,13.391,2,2
1774300375638,-0.00814563,-1.01851,-0.149312,-0.0342059,0.016111,0.0241606,3.31554,5,13.404,2,2
1774300375652,-0.00860085,-1.01854,-0.148537,-0.0359311,0.0152373,0.024646599999999998,3.29507,5,13.418,3,3
1774300375665,-0.00953797,-1.01642,-0.145917,-0.037610899999999996,0.0144083,0.0250239,3.27919,5,13.431,3,3
1774300375679,-0.010338,-1.01738,-0.146689,-0.0399672,0.0134374,0.0255,3.25493,5,13.445,3,3
1774300375692,-0.0103557,-1.01521,-0.142399,-0.0404871,0.0125081,0.0251144,3.29191,5,13.458,3,3
1774300375705,-0.0100203,-1.014,-0.146133,-0.0424295,0.012316,0.026309100000000002,3.25396,5,13.471,3,3
1774300375719,-0.00931512,-1.00502,-0.144099,-0.0423489,0.0117537,0.0270299,3.88393,5,13.485,3,3
1774300375733,-0.0109897,-1.00105,-0.15267,-0.0471969,0.0120963,0.0301853,3.26902,5,13.499,3,3
1774300375746,-0.0134773,-1.01017,-0.147926,-0.0527108,0.0109125,0.029716700000000002,3.2835,5,13.512,3,3
1774300375759,-0.00652448,-1.00924,-0.146987,-0.0514625,0.008669040000000001,0.030053800000000002,3.281,5,13.525,3,3
1774300375773,-0.00078326,-0.998942,-0.14878,-0.058193,0.00682971,0.0329752,3.25583,5,13.539,3,3
1774300375786,0.00190954,-1.00353,-0.148455,-0.0649098,0.0042072,0.036251000000000005,3.27526,5,13.552,3,3
1774300375799,0.00765561,-1.0055,-0.141568,-0.07020080000000001,0.000562843,0.0389704,3.25685,5,13.565,3,3
1774300375814,0.000423542,-1.01304,-0.141249,-0.08112970000000001,-0.00124142,0.0369815,4.10611,5,13.58,3,3
1774300375827,-0.000780115,-1.04466,-0.138243,-0.10641500000000001,-0.000482406,0.0311476,3.25598,5,13.593,3,3
1774300375840,-0.00029757,-1.05865,-0.137141,-0.132102,0.000152678,0.0235215,3.29952,5,13.606,3,3
1774300375854,-0.000241849,-1.07474,-0.135852,-0.16128499999999998,0.00192965,0.014109400000000001,3.29815,5,13.62,3,3
1774300375867,-0.00574055,-1.07856,-0.130733,-0.19861,0.00439481,0.00502825,3.26091,5,13.633,3,3
1774300375881,-0.0108279,-1.09299,-0.125656,-0.24095500000000003,0.0062678199999999995,-0.00385606,3.27911,5,13.647,3,3
1774300375894,-0.0131518,-1.10381,-0.125275,-0.285878,0.0075904499999999995,-0.014524300000000002,3.26602,5,13.66,3,3
1774300375908,-0.0181606,-1.11403,-0.125615,-0.334327,0.010059199999999999,-0.026413799999999998,4.07661,5,13.674,3,3
1774300375922,-0.0232067,-1.12272,-0.125546,-0.385056,0.012595,-0.0408137,3.26478,5,13.688,4,4
1774300375935,-0.0271779,-1.13172,-0.127166,-0.438265,0.01507,-0.0567137,3.26061,5,13.701,4,4
1774300375948,-0.0317015,-1.14078,-0.129367,-0.494078,0.0175346,-0.0747363,3.32126,5,13.714,4,4
1774300375962,-0.0309023,-1.15414,-0.129058,-0.5549689999999999,0.0192229,-0.0953019,3.26744,5,13.728,4,4
1774300375975,-0.0174967,-1.17418,-0.127408,-0.620511,0.019095200000000003,-0.113395,3.28457,5,13.741,4,4
1774300375988,-0.00965271,-1.18915,-0.127761,-0.690915,0.0167096,-0.131437,3.30768,5,13.754,4,4
1774300376002,-0.00621969,-1.20972,-0.129723,-0.765346,0.012505200000000001,-0.15246600000000002,3.33874,5,13.768,4,4
1774300376015,-0.000833453,-1.22064,-0.134363,-0.840202,0.00493139,-0.182412,3.25896,5,13.781,4,4
1774300376029,0.0119405,-1.22686,-0.144012,-0.9124509999999999,-0.006109830000000001,-0.223198,3.26426,5,13.795,4,4
1774300376042,0.0339679,-1.23756,-0.153718,-0.979727,-0.0256778,-0.27116,3.5877,5,13.808,4,4
1774300376056,0.0572528,-1.23704,-0.164976,-1.03681,-0.0532599,-0.316226,3.26767,5,13.822,4,4
1774300376069,0.0822206,-1.23983,-0.176424,-1.0880400000000001,-0.0882312,-0.35804400000000003,3.28754,5,13.835,4,4
1774300376083,0.103523,-1.22967,-0.180656,-1.13077,-0.130742,-0.397573,3.25352,5,13.849,4,4
1774300376096,0.118396,-1.2083,-0.170417,-1.16571,-0.18171500000000002,-0.426633,3.29163,5,13.862,4,4
1774300376109,0.121984,-1.14661,-0.135899,-1.1776600000000002,-0.23274,-0.42893300000000006,3.27178,3,13.875,4,4
1774300376123,0.130038,-1.02817,-0.121499,-1.13253,-0.282774,-0.394519,4.0578,3,13.889,4,4
1774300376137,0.128334,-0.985791,-0.105274,-1.0355400000000001,-0.325993,-0.34389400000000003,3.26224,3,13.903,5,5
1774300376150,0.12538,-0.953517,-0.0844305,-0.92289,-0.366057,-0.294066,3.28631,3,13.916,5,5
1774300376164,0.122961,-0.923413,-0.0622244,-0.810873,-0.403496,-0.24965800000000002,3.28467,3,13.93,5,5
1774300376177,0.116484,-0.899226,-0.0440217,-0.701285,-0.43676699999999996,-0.212943,3.26033,3,13.943,5,5
1774300376190,0.10635,-0.873322,-0.0282806,-0.5931000000000001,-0.464164,-0.184419,3.28198,3,13.956,5,5
1774300376204,0.0906914,-0.846724,-0.0150964,-0.48216299999999995,-0.48155400000000004,-0.163108,3.26378,3,13.97,5,5
1774300376217,0.0724609,-0.823575,-0.00397286,-0.366684,-0.487183,-0.146196,3.32661,3,13.983,5,5
1774300376230,0.0531485,-0.805954,0.005383,-0.247642,-0.482092,-0.131967,3.26363,3,13.996,5,5
1774300376244,0.0343071,-0.79709,0.0135183,-0.127946,-0.46658499999999997,-0.121931,3.46493,3,14.01,5,5
1774300376257,0.0175495,-0.795618,0.0199632,-0.011273400000000001,-0.442465,-0.11636400000000001,3.29276,3,14.023,5,5
1774300376271,0.00212261,-0.797146,0.0253361,0.101081,-0.41110300000000005,-0.113493,3.25733,3,14.037,5,5
1774300376284,-0.0119463,-0.801533,0.0305274,0.21051200000000003,-0.374097,-0.110762,3.28991,1,14.05,5,5
1774300376298,-0.0242681,-0.808686,0.035086,0.317873,-0.332774,-0.105517,3.26241,1,14.064,5,5
1774300376311,-0.0348019,-0.821644,0.0394666,0.422748,-0.288053,-0.0972049,3.3247,1,14.077,5,5
1774300376324,-0.0421204,-0.842107,0.0426414,0.522639,-0.241126,-0.0870424,3.25878,1,14.09,5,5
1774300376338,-0.0445598,-0.870483,0.0437234,0.614406,-0.19387200000000002,-0.07782670000000001,3.27519,1,14.104,5,5
1774300376351,-0.0409882,-0.907409,0.0411279,0.694024,-0.148366,-0.070815,3.30704,1,14.117,5,5
1774300376364,-0.0314336,-0.951902,0.0340015,0.757941,-0.106268,-0.0677035,3.271,1,14.13,5,5
1774300376378,-0.0174068,-0.988663,0.0208447,0.809922,-0.0678681,-0.0673313,3.29711,5,14.144,5,5
1774300376391,0.00179343,-1.02114,0.00566879,0.857216,-0.0340625,-0.06257399999999999,3.26659,5,14.157,5,5
1774300376405,0.0249586,-1.06335,-0.0117903,0.891875,-0.00628941,-0.0554545,4.11212,5,14.171,5,5
1774300376419,0.0505807,-1.10482,-0.0324469,0.9099290000000001,0.0135244,-0.0522882,3.26935,5,14.185,5,5
1774300376432,0.0715055,-1.1379,-0.0562788,0.913706,0.0271229,-0.0542922,3.26396,5,14.198,5,5
1774300376446,0.0840093,-1.1564,-0.0823569,0.911746,0.0373296,-0.0611294,3.409,5,14.212,5,5
1774300376459,0.0857272,-1.17249,-0.110369,0.906065,0.0468138,-0.07706310000000001,3.28,5,14.225,1,1
1774300376472,0.0779743,-1.17018,-0.137979,0.9066110000000001,0.057902699999999994,-0.103142,3.298,5,14.238,1,1
1774300376486,0.0644212,-1.17361,-0.165695,0.908737,0.0727157,-0.137049,3.26091,5,14.252,1,1
1774300376499,0.0459943,-1.17635,-0.196778,0.9095820000000001,0.09315910000000001,-0.16897700000000002,3.30304,5,14.265,1,1
1774300376513,0.028053,-1.16776,-0.230432,0.910972,0.12039400000000001,-0.18388400000000002,3.25726,5,14.279,1,1
1774300376527,0.0153271,-1.16243,-0.26445,0.9103990000000001,0.152199,-0.18179099999999998,4.04723,5,14.293,1,1
1774300376540,0.0124467,-1.16001,-0.298443,0.9015949999999999,0.182267,-0.17344400000000001,3.25922,5,14.306,1,1
1774300376554,0.0157567,-1.15675,-0.332979,0.8824339999999999,0.205917,-0.16759000000000002,3.2803,5,14.32,1,1
1774300376567,0.0216233,-1.15105,-0.367167,0.853472,0.221296,-0.164938,3.28883,5,14.333,1,1
1774300376580,0.0251833,-1.14441,-0.396775,0.8179170000000001,0.228297,-0.162961,3.26787,5,14.346,1,1
1774300376594,0.0245517,-1.13482,-0.429306,0.768039,0.229493,-0.156505,3.2817,5,14.36,1,1
1774300376607,0.0209156,-1.14404,-0.461374,0.705227,0.22561599999999998,-0.140588,3.25822,5,14.373,1,1
1774300376620,0.0144809,-1.15827,-0.489136,0.62843,0.218557,-0.11367800000000002,3.33381,5,14.386,1,1
1774300376634,0.01909,-1.16638,-0.411884,0.566037,0.19680499999999998,-0.0851983,3.26815,5,14.4,1,1
1774300376647,0.0159703,-0.986138,-0.386419,0.473292,0.183012,-0.0686442,3.28778,5,14.413,1,1
1774300376661,0.0225855,-1.03728,-0.342379,0.34198300000000004,0.161674,-0.0403872,3.29954,5,14.427,1,1
1774300376674,0.022185,-1.05944,-0.321694,0.24057200000000004,0.138955,-0.0151538,3.27631,5,14.44,1,1
1774300376687,0.00719607,-1.03265,-0.327239,0.169302,0.128591,-0.00775257,3.28168,5,14.453,1,1
1774300376701,-0.000389593,-1.00764,-0.327181,0.130745,0.124774,-0.00770308,3.26093,5,14.467,1,1
1774300376715,-0.00276418,-1.00287,-0.317731,0.103864,0.129237,-0.00495451,4.05878,5,14.481,1,1
1774300376728,-0.00304902,-1.00603,-0.311651,0.0883613,0.128235,0.000765652,3.25852,5,14.494,1,1
1774300376742,-0.00366306,-1.00221,-0.303702,0.08115259999999999,0.12137200000000001,0.0016561500000000001,3.28495,5,14.508,2,2
1774300376755,-0.00609735,-1.00306,-0.294958,0.0748322,0.115052,-0.000222284,3.30557,5,14.521,2,2
1774300376769,-0.00763509,-1.00361,-0.285667,0.0699453,0.108911,-0.0027917799999999998,3.27756,5,14.535,2,2
1774300376782,-0.00624417,-1.00397,-0.277509,0.0645789,0.103624,-0.00460484,3.29376,5,14.548,2,2
1774300376795,-0.00458311,-1.00264,-0.271758,0.058417300000000005,0.09903200000000001,-0.0048432399999999995,3.29517,5,14.561,2,2
1774300376809,-0.000891331,-1.00468,-0.266034,0.0537618,0.09426920000000001,-0.00351395,3.29296,5,14.575,2,2
1774300376822,-4.09077e-05,-0.998593,-0.257293,0.049226099999999995,0.08842900000000001,-0.0016041,3.26885,5,14.588,2,2
1774300376837,0.00293973,-1.00105,-0.250418,0.0429666,0.08321619999999999,0.00166302,4.0975,5,14.603,2,2
1774300376850,0.00211717,-1.00299,-0.243546,0.0376791,0.0795589,0.0047682900000000005,3.32328,5,14.616,2,2
1774300376863,-0.000644638,-1.0033,-0.238842,0.0327139,0.0766121,0.0074339,3.29468,5,14.629,2,2
1774300376877,-0.00213256,-1.00067,-0.230446,0.028999100000000003,0.07385620000000001,0.00887953,3.27759,5,14.643,2,2
1774300376890,-0.0021781,-1.00259,-0.227885,0.0247905,0.0708695,0.010530900000000001,3.26235,5,14.656,2,2
1774300376903,-0.00202946,-0.998042,-0.215485,0.0231602,0.0670784,0.011177699999999999,3.27085,5,14.669,2,2
1774300376917,-0.00211154,-0.999366,-0.21377,0.0184099,0.0646903,0.012516099999999999,3.26846,5,14.683,2,2
1774300376930,-0.00205123,-0.997183,-0.199552,0.0177583,0.0629328,0.012619,3.28689,5,14.696,2,2
1774300376944,-0.0025274,-0.995523,-0.194327,0.0130284,0.0609057,0.0136668,3.26109,5,14.71,2,2
1774300376958,-0.00159475,-1.0038,-0.188669,0.010550600000000002,0.058465600000000006,0.013966300000000001,3.31839,5,14.724,2,2
1774300376972,-0.00251796,-1.00151,-0.184219,0.0102586,0.056269400000000004,0.014026499999999999,3.30978,5,14.738,2,2
1774300376985,-0.00296304,-1.00013,-0.181191,0.008150230000000001,0.0540894,0.0143187,3.27324,5,14.751,2,2
1774300376998,-0.0022142,-1.00396,-0.180165,0.00667826,0.051770500000000004,0.014701599999999999,3.29919,5,14.764,2,2
1774300377012,-0.00237361,-1.00368,-0.177742,0.00616664,0.04959450000000001,0.0150031,3.2792,5,14.778,2,2
1774300377025,-0.00074301,-1.0038,-0.174036,0.005217,0.046868299999999995,0.0154161,3.34852,5,14.791,2,2
1774300377039,-0.000496979,-1.00604,-0.175714,0.00415791,0.0437683,0.0152365,3.27619,5,14.805,2,2
1774300377052,-0.000571337,-1.00821,-0.170304,0.0041302100000000005,0.0408294,0.0148443,3.27496,5,14.818,2,2
1774300377065,-0.00174216,-1.00573,-0.170213,0.0037658,0.0382052,0.014054500000000001,3.31483,5,14.831,2,2
1774300377079,-0.00173003,-1.00731,-0.167808,0.00285663,0.0355441,0.0133389,3.27589,5,14.845,2,2
1774300377092,-0.00223093,-1.00398,-0.166662,0.00236669,0.0331692,0.013036,3.29644,5,14.858,2,2
1774300377106,-0.00259247,-1.00426,-0.165043,0.0007781009999999999,0.030940400000000003,0.0131141,3.31589,5,14.872,2,2
1774300377119,-0.00383506,-1.00405,-0.162352,-9.62264e-05,0.0289908,0.0132862,3.32504,5,14.885,2,2
1774300377133,-0.0044254,-1.00371,-0.157793,-0.0008701280000000001,0.0271891,0.0137056,3.27796,5,14.899,2,2
1774300377147,-0.00470165,-1.00351,-0.157961,-0.00212301,0.0256726,0.014354100000000002,3.7001,5,14.913,2,2
1774300377160,-0.00475228,-1.00361,-0.152377,-0.0025348700000000003,0.0243139,0.0147822,3.30535,5,14.926,2,2
1774300377173,-0.00543063,-0.99946,-0.149087,-0.00352738,0.0231641,0.0153317,3.27515,5,14.939,2,2
1774300377187,-0.00548141,-1.00646,-0.148492,-0.0059200500000000005,0.021929,0.0162744,3.29169,5,14.953,2,2
1774300377200,-0.00612788,-1.00703,-0.147892,-0.005266840000000001,0.020531999999999998,0.016599,3.27515,5,14.966,2,2
1774300377214,-0.00674607,-1.0032,-0.14735,-0.00495,0.0192733,0.0166057,3.28967,5,14.98,2,2
1774300377227,-0.00660053,-1.00229,-0.146928,-0.00505343,0.0178839,0.0162608,3.27582,5,14.993,2,2
1774300377241,-0.00737956,-1.00154,-0.143727,-0.00489843,0.016512500000000003,0.0159439,3.85839,5,15.007,2,2
1774300377254,-0.00829535,-1.0008,-0.140207,-0.00487201,0.015111000000000001,0.015709,3.28739,5,15.02,2,2
1774300377268,-0.00908568,-1.00182,-0.138196,-0.00500978,0.0136425,0.0154101,3.31559,5,15.034,2,2
1774300377281,-0.00911541,-1.00205,-0.134918,-0.00498569,0.0122992,0.0148498,3.30774,5,15.047,2,2
1774300377294,-0.00986988,-1.00484,-0.134655,-0.00590923,0.0111212,0.014629099999999999,3.26822,5,15.06,2,2
1774300377308,-0.00917132,-1.0023,-0.132311,-0.0052352200000000005,0.00943547,0.013907000000000001,3.30063,5,15.074,2,2
1774300377321,-0.00853534,-1.00075,-0.134447,-0.005605250000000001,0.00833672,0.014098900000000001,3.27135,5,15.087,2,2
1774300377335,-0.00868524,-0.999265,-0.133852,-0.00502965,0.00699131,0.013398000000000002,3.90221,5,15.101,3,3
1774300377349,-0.0101312,-1.00103,-0.13859,-0.00664439,0.00608105,0.0136099,3.27383,5,15.115,3,3
1774300377362,-0.0101899,-1.00709,-0.140238,-0.007038140000000001,0.00484504,0.0137371,3.28394,5,15.128,3,3
1774300377375,-0.0112497,-1.00352,-0.139561,-0.00654915,0.0040251900000000005,0.0138229,3.28902,5,15.141,3,3
1774300377389,-0.013064,-1.00222,-0.140397,-0.00844262,0.00367095,0.013912500000000001,3.276,5,15.155,3,3
1774300377402,-0.0152793,-1.00204,-0.139009,-0.010962099999999999,0.0033108900000000004,0.014305300000000002,3.30307,5,15.168,3,3
1774300377415,-0.0184227,-1.00782,-0.141738,-0.0175407,0.00348057,0.015798,3.27244,5,15.181,3,3
1774300377429,-0.0163038,-1.0076,-0.130543,-0.021035599999999998,0.00360647,0.0178835,3.33944,5,15.195,3,3
1774300377442,-0.0127294,-1.00185,-0.131069,-0.0274774,0.00527535,0.0203401,3.27848,5,15.208,3,3
1774300377456,-0.0125357,-1.0179,-0.11939,-0.0347525,0.0061012900000000005,0.022778800000000002,3.27439,5,15.222,3,3
1774300377469,-0.00938235,-1.01376,-0.119197,-0.042805600000000006,0.00646985,0.028617499999999997,3.30987,5,15.235,3,3
1774300377482,-0.00636687,-1.02065,-0.109693,-0.052693500000000004,0.008025210000000001,0.0359828,3.26885,5,15.248,3,3
1774300377496,-0.00397441,-1.02471,-0.100998,-0.061727,0.00854276,0.0424725,3.28967,5,15.262,3,3
1774300377509,-0.00303186,-1.02665,-0.0999126,-0.07430869999999999,0.008367590000000001,0.0506492,3.28069,5,15.275,3,3
1774300377523,0.00273813,-1.03553,-0.0994082,-0.0881586,0.00681064,0.0598573,3.30557,5,15.289,3,3
1774300377536,0.014363,-1.03941,-0.0918364,-0.10213900000000001,0.000189937,0.0711266,3.27811,5,15.302,3,3
1774300377550,-0.0271363,-1.08171,-0.0795883,-0.120937,0.00024351100000000002,0.0669314,3.68134,5,15.316,3,3
1774300377563,-0.0328575,-1.08442,-0.0751575,-0.17153,0.00262341,0.060912,3.35728,5,15.329,3,3
1774300377577,-0.0393535,-1.10984,-0.0735256,-0.21920000000000003,0.00448017,0.05225,3.29339,5,15.343,3,3
1774300377590,-0.0536051,-1.12753,-0.0727338,-0.275316,0.00771002,0.0412907,3.30082,5,15.356,3,3
1774300377604,-0.0669985,-1.14272,-0.075169,-0.332896,0.013079499999999999,0.0237055,3.27883,5,15.37,3,3
1774300377617,-0.0769128,-1.15353,-0.0738035,-0.39470900000000003,0.0189913,0.0019341500000000001,3.29846,5,15.383,3,3
1774300377630,-0.0858383,-1.16895,-0.0733519,-0.460685,0.024999600000000004,-0.023133300000000002,3.26763,5,15.396,3,3
1774300377644,-0.0780272,-1.18791,-0.071169,-0.534248,0.029013900000000002,-0.04644790000000001,3.90026,5,15.41,4,4
1774300377658,-0.0624752,-1.20291,-0.069861,-0.6121920000000001,0.029398900000000002,-0.061830600000000006,3.28791,5,15.424,4,4
1774300377671,-0.0498456,-1.21804,-0.072582,-0.695261,0.0275401,-0.0719188,3.29848,5,15.437,4,4
1774300377685,-0.0396794,-1.23387,-0.0774902,-0.783143,0.0236788,-0.07980540000000001,3.29728,5,15.451,4,4
1774300377698,-0.0252813,-1.24424,-0.0827496,-0.870436,0.0166985,-0.0895918,3.26728,5,15.464,4,4
1774300377711,-0.00792546,-1.2467,-0.0924662,-0.9572740000000001,0.0053783400000000006,-0.102533,3.30652,5,15.477,4,4
1774300377725,0.0123015,-1.25578,-0.103861,-1.03587,-0.0133011,-0.112693,3.27531,5,15.491,4,4
1774300377738,0.0301705,-1.25617,-0.116071,-1.10728,-0.0355486,-0.11634900000000001,3.34782,5,15.504,4,4
1774300377752,0.0466815,-1.24814,-0.126573,-1.1690099999999999,-0.0623673,-0.119435,3.27107,5,15.518,4,4
1774300377765,0.0636341,-1.23777,-0.132227,-1.22133,-0.09472950000000001,-0.12118000000000001,3.31378,5,15.531,4,4
