timestamp,ax,ay,az,gx,gy,gz,roll_k,pitch_k,delay_ms,classe_prevista
1770272346035,-0.238905,0.265657,0.78348,2.86689,-28.3171,26.4982,0,0,3.61221,-1
1770272346049,-0.232427,0.275837,0.796797,2.86433,-11.4656,12.1949,0,0,4.32912,-1
1770272346063,-0.233977,0.281856,0.809763,-0.207286,-5.91121,4.48607,0,0,3.25579,-1
1770272346076,-0.237506,0.283405,0.816254,0.349204,-3.59357,3.53767,0,0,3.47044,-1
1770272346090,-0.236171,0.286662,0.810279,0.958775,-2.18592,2.72072,0,0,3.2749,-1
1770272346103,-0.237556,0.284346,0.813385,-0.899796,-1.64601,0.381596,0,0,3.26814,-1
1770272346117,-0.242563,0.284901,0.817725,0.199152,-1.10153,1.26729,0,0,3.30114,-1
1770272346130,-0.239712,0.28508,0.813658,0.466,-0.901903,1.2367,0,0,3.25388,-1
1770272346144,-0.239636,0.285108,0.816832,-0.511286,-0.943319,0.118336,0,0,4.30925,-1
1770272346158,-0.242476,0.284163,0.816504,0.213825,-0.895323,0.982835,0,0,3.35199,2
1770272346175,-0.239136,0.285131,0.815944,0.290119,-0.898043,0.609738,0,0,4.45318,2
1770272346188,-0.241104,0.28444,0.817247,-0.572498,-1.01009,0.0147924,0,0,3.28481,2
1770272346202,-0.241142,0.284347,0.81817,0.522911,-0.898175,1.1448,0,0,3.61981,2
1770272346215,-0.241167,0.284462,0.817626,0.0744327,-0.819316,0.511332,0,0,3.31318,2
1770272346230,-0.243632,0.283486,0.818151,-0.458967,-0.947826,0.217498,0,0,4.03009,2
1770272346243,-0.241015,0.283385,0.817351,0.316318,-0.748722,0.956077,0,0,3.28705,5
1770272346257,-0.239161,0.285069,0.813339,-0.0212303,-0.893445,0.565825,0,0,3.27336,2
1770272346270,-0.24077,0.284663,0.813476,-0.392295,-1.05359,0.271462,0,0,3.29634,2
1770272346283,-0.24119,0.284315,0.813826,0.258051,-0.82069,0.887639,0,0,3.26816,2
1770272346298,-0.24146,0.285753,0.81545,-0.0427301,-0.727139,0.478171,0,0,4.48903,2
1770272346311,-0.241896,0.285365,0.817192,-0.326709,-0.852119,0.254353,0,0,3.31783,2
1770272346325,-0.240951,0.28389,0.817085,0.409165,-0.952777,0.860001,0,0,3.41666,2
1770272346339,-0.241481,0.285219,0.818504,-0.0435092,-0.854251,0.426184,0,0,3.28473,2
1770272346353,-0.242609,0.285634,0.817578,-0.159159,-0.953843,0.522252,0,0,3.33071,2
1770272346366,-0.241846,0.285025,0.819345,0.252481,-0.900586,0.932882,0,0,3.34112,2
1770272346379,-0.241443,0.284722,0.817767,-0.19437,-0.931209,0.615296,0,0,3.27934,2
1770272346393,-0.24276,0.285403,0.819116,-0.24604,-0.801482,0.563373,0,0,3.31129,2
1770272346406,-0.243079,0.286539,0.817358,0.16324,-0.801505,0.880923,0,0,3.31645,2
1770272346422,-0.243372,0.284994,0.816842,-0.20464,-0.866401,0.558782,0,0,4.51685,2
1770272346436,-0.244347,0.28514,0.816599,-0.129037,-0.906483,0.714506,0,0,3.26679,2
1770272346451,-0.242786,0.286545,0.813206,0.0538019,-0.842554,0.849619,0,0,3.34242,2
1770272346465,-0.243621,0.286485,0.814527,-0.30516,-0.902193,0.539313,0,0,3.27099,2
1770272346482,-0.240834,0.286009,0.814851,0.0802444,-0.962547,0.868893,0,0,7.42669,2
1770272346495,-0.242193,0.285091,0.814446,0.0477558,-0.7828,0.613836,0,0,3.27482,2
1770272346510,-0.242279,0.284677,0.815935,-0.12116,-0.79598,0.417605,0,0,4.01866,2
1770272346523,-0.24382,0.284849,0.814355,-0.0109618,-0.829288,0.682085,0,0,3.29288,2
1770272346536,-0.243323,0.286446,0.812728,-0.0856336,-0.838308,0.711271,0,0,3.2842,2
1770272346550,-0.242654,0.285634,0.814396,-0.0771679,-0.846635,0.657162,0,0,3.29231,2
1770272346563,-0.241612,0.285638,0.81153,0.0453855,-0.972936,0.851482,0,0,3.30801,2
1770272346577,-0.239806,0.28599,0.814414,-0.000208015,-1.01319,0.78452,0,0,3.34179,2
1770272346590,-0.242234,0.285429,0.813203,-0.0535391,-0.964608,0.644168,0,0,3.29694,2
1770272346604,-0.242742,0.285856,0.815488,0.0953678,-0.890701,0.795367,0,0,3.43857,2
1770272346618,-0.240794,0.286218,0.812231,-0.0172016,-0.807946,0.607607,0,0,3.41888,2
1770272346632,-0.239194,0.287149,0.810491,-0.0773031,-0.835271,0.60533,0,0,3.46601,2
1770272346647,-0.241753,0.285736,0.813135,0.0644019,-0.85275,0.684344,0,0,5.63079,2
1770272346661,-0.240772,0.284391,0.813257,-0.0326845,-0.781337,0.594081,0,0,3.29875,2
1770272346675,-0.242591,0.284053,0.812898,-0.0506934,-0.772348,0.652002,0,0,3.59033,2
1770272346688,-0.242884,0.286635,0.814068,0.0242716,-0.836556,0.757299,0,0,3.28718,2
1770272346702,-0.24036,0.28628,0.814468,0.0617541,-0.903011,0.68781,0,0,3.45771,2
1770272346715,-0.240752,0.285702,0.816387,-0.0149245,-0.943872,0.607264,0,0,3.32368,2
1770272346729,-0.240829,0.28402,0.817356,0.141393,-0.853615,0.624243,0,0,3.39531,2
1770272346743,-0.241753,0.283815,0.814829,0.0668796,-0.797037,0.57548,0,0,3.29379,2
1770272346756,-0.242696,0.28412,0.814607,0.0639741,-0.83745,0.673236,0,0,3.36069,2
1770272346770,-0.243388,0.28318,0.814639,0.0243535,-0.773687,0.748832,0,0,3.32436,2
1770272346783,-0.241121,0.282926,0.813873,-0.0221744,-0.856309,0.622508,0,0,3.27601,2
1770272346797,-0.238879,0.282325,0.813643,-0.0301712,-0.859452,0.689116,0,0,3.38762,2
1770272346810,-0.238578,0.283514,0.815683,0.0574335,-0.838123,0.741505,0,0,3.38188,2
1770272346824,-0.239521,0.284365,0.815855,-0.0781535,-0.888527,0.542508,0,0,3.35971,2
1770272346837,-0.242051,0.284299,0.816839,0.00672479,-0.787775,0.702552,0,0,3.29303,2
1770272346851,-0.239651,0.28583,0.817996,0.0835151,-0.832819,0.729138,0,0,3.97416,2
1770272346865,-0.23881,0.285851,0.819613,0.0226736,-0.893509,0.624111,0,0,3.31521,2
1770272346878,-0.240632,0.285777,0.816278,0.0304208,-0.778815,0.659384,0,0,3.30306,2
1770272346892,-0.241102,0.286342,0.81405,0.0724623,-0.801621,0.669387,0,0,3.39375,2
1770272346905,-0.240704,0.284693,0.814019,-0.0515551,-0.835925,0.613319,0,0,3.30434,2
1770272346919,-0.239486,0.283459,0.815924,-0.0372279,-0.875978,0.791392,0,0,3.48171,2
1770272346932,-0.239229,0.285467,0.814435,-0.0376979,-0.842569,0.72394,0,0,3.31662,2
1770272346946,-0.237665,0.285793,0.814791,-0.0646505,-0.898384,0.575711,0,0,3.46029,2
1770272346961,-0.23946,0.285215,0.814583,-0.0437756,-0.78507,0.597016,0,0,3.33114,2
1770272346975,-0.24105,0.283707,0.815411,-0.0715061,-0.724596,0.718355,0,0,3.74129,2
1770272346989,-0.241282,0.284664,0.813493,-0.176974,-0.743977,0.664521,0,0,3.47955,2
1770272347002,-0.240907,0.284665,0.815587,-0.000700961,-0.803286,0.706306,0,0,3.26532,2
1770272347016,-0.239616,0.283617,0.813344,-0.0499688,-0.829124,0.692848,0,0,3.33857,2
1770272347029,-0.236339,0.283381,0.811817,-0.0822363,-0.830593,0.670851,0,0,3.29486,2
1770272347044,-0.236423,0.284629,0.810312,-0.0411182,-0.869495,0.629319,0,0,4.79553,2
1770272347057,-0.235689,0.285255,0.815294,0.0366928,-0.873679,0.627637,0,0,3.30827,2
1770272347071,-0.237317,0.286357,0.814206,0.0641479,-0.776534,0.699314,0,0,3.64588,2
1770272347085,-0.238275,0.285664,0.814032,0.00917321,-0.758496,0.72752,0,0,3.31712,2
1770272347098,-0.239502,0.286532,0.813833,-0.0450317,-0.810546,0.665287,0,0,3.31023,2
1770272347111,-0.238627,0.286214,0.811169,-0.056867,-0.809853,0.679972,0,0,3.29168,2
1770272347125,-0.239815,0.288109,0.812083,0.0211848,-0.798056,0.710215,0,0,3.30356,2
1770272347138,-0.242939,0.286439,0.815469,-0.0810106,-0.841776,0.679535,0,0,3.32673,2
1770272347152,-0.241183,0.286854,0.813268,-0.0748565,-0.741499,0.599309,0,0,3.26286,2
1770272347165,-0.240581,0.284584,0.814042,-0.060329,-0.844032,0.677517,0,0,3.29019,2
1770272347178,-0.240107,0.284089,0.814714,-0.00344694,-0.788428,0.613568,0,0,3.26123,2
1770272347192,-0.239365,0.283597,0.815146,-0.0398914,-0.856046,0.661746,0,0,3.86194,2
1770272347206,-0.238802,0.283631,0.817172,-0.0237625,-0.870771,0.670568,0,0,3.29555,2
1770272347219,-0.240452,0.281641,0.81611,-0.134019,-0.8705,0.648261,0,0,3.31807,2
1770272347233,-0.239587,0.281151,0.817528,-0.0441086,-0.897082,0.686726,0,0,3.36599,2
1770272347246,-0.241656,0.281624,0.815552,-0.064039,-0.910373,0.698325,0,0,3.28896,2
1770272347261,-0.242021,0.282015,0.815771,0.00996523,-0.939919,0.734659,0,0,3.33197,2
1770272347275,-0.242081,0.28349,0.816698,-0.0408189,-0.897441,0.756642,0,0,3.27995,2
1770272347290,-0.243344,0.283212,0.815456,-0.0394934,-0.8304,0.782901,0,0,5.45057,2
1770272347304,-0.242405,0.284171,0.817021,0.00315405,-0.964818,0.67771,0,0,3.27162,2
1770272347317,-0.242064,0.284174,0.817588,0.0282946,-0.875539,0.663283,0,0,3.39799,2
1770272347331,-0.239485,0.282689,0.815328,-0.0202039,-0.930136,0.675153,0,0,3.33731,2
1770272347344,-0.239228,0.284098,0.817464,-0.0101019,-0.873465,0.696355,0,0,3.31799,2
1770272347358,-0.240551,0.283427,0.81621,0.0445674,-0.906198,0.695506,0,0,3.32056,2
1770272347371,-0.24035,0.28291,0.815581,0.0261005,-0.815694,0.637829,0,0,3.29262,2
1770272347385,-0.238734,0.284152,0.815089,0.055035,-0.896397,0.624258,0,0,3.49936,2
1770272347398,-0.240059,0.284074,0.816523,-0.00683366,-0.848962,0.64419,0,0,3.33277,2
1770272347412,-0.240384,0.283325,0.814557,0.0385679,-0.756542,0.726675,0,0,3.56288,2
1770272347426,-0.239281,0.283544,0.816532,0.0536351,-0.836286,0.588528,0,0,3.37001,2
1770272347439,-0.239098,0.283946,0.815,-0.0228008,-0.750204,0.576707,0,0,3.27327,2
1770272347453,-0.239505,0.284467,0.817428,-0.0457515,-0.649911,0.601331,0,0,3.3121,2
1770272347466,-0.23723,0.284014,0.8161,-0.0152422,-0.813505,0.609826,0,0,3.28999,2
1770272347480,-0.239443,0.283986,0.818134,1.24989e-05,-0.803699,0.602623,0,0,3.43349,2
1770272347493,-0.238852,0.283443,0.818302,-0.0228945,-0.852231,0.576121,0,0,3.39021,2
1770272347507,-0.240484,0.284582,0.817798,-0.072516,-0.933749,0.578137,0,0,3.42757,2
1770272347520,-0.240745,0.285575,0.820798,-0.0209908,-0.890539,0.697465,0,0,3.30577,2
1770272347534,-0.241961,0.287349,0.822636,-0.0524801,-0.87275,0.67316,0,0,3.28208,2
1770272347547,-0.241955,0.288313,0.816905,-0.0071561,-0.905841,0.64574,0,0,3.30231,2
1770272347561,-0.240114,0.285083,0.817426,0.000238745,-0.926203,0.674015,0,0,3.30086,2
1770272347574,-0.240419,0.284234,0.816361,-0.00751422,-0.852414,0.623267,0,0,3.49975,2
1770272347588,-0.240703,0.286401,0.813491,-0.0113907,-0.861322,0.700947,0,0,3.38136,2
1770272347602,-0.240273,0.287092,0.81471,0.0668237,-0.881043,0.74742,0,0,3.39738,2
1770272347617,-0.240346,0.286049,0.814268,-0.0276568,-0.806933,0.721038,0,0,5.21433,2
1770272347630,-0.239782,0.285379,0.814947,0.0128891,-0.823314,0.68113,0,0,3.37244,2
1770272347644,-0.241343,0.2846,0.816869,-0.00500581,-0.881123,0.684076,0,0,3.29318,2
1770272347657,-0.240684,0.284537,0.81749,-0.0330373,-0.852775,0.681733,0,0,3.27394,2
1770272347671,-0.240173,0.284671,0.817889,-0.123389,-0.88822,0.718729,0,0,3.37786,2
1770272347684,-0.24037,0.284233,0.816046,-0.149481,-0.738003,0.634174,0,0,3.28181,2
1770272347698,-0.23796,0.286488,0.814513,-0.109091,-0.704879,0.633881,0,0,3.30603,2
1770272347711,-0.238687,0.285923,0.814142,-0.0430954,-0.734119,0.629917,0,0,3.27095,2
1770272347726,-0.236443,0.284337,0.81539,-0.0291813,-0.714388,0.643203,0,0,4.50174,2
1770272347740,-0.238501,0.283318,0.815842,0.00831013,-0.773224,0.58496,0,0,3.30294,2
1770272347753,-0.239909,0.285026,0.814207,0.0270558,-0.81791,0.59019,0,0,3.40418,2
1770272347767,-0.238889,0.286822,0.814208,0.0287951,-0.775367,0.714942,0,0,3.34168,2
1770272347780,-0.239108,0.285788,0.814733,-0.000869631,-0.826615,0.800219,0,0,3.31055,2
1770272347795,-0.240299,0.285299,0.813408,0.0300995,-0.730101,0.739804,0,0,3.34136,2
1770272347808,-0.240888,0.285161,0.811858,-0.0116678,-0.788715,0.721047,0,0,3.27836,2
1770272347822,-0.243628,0.28306,0.814537,0.0476012,-0.76077,0.719302,0,0,3.38077,2
1770272347835,-0.240488,0.284773,0.815732,0.0772357,-0.853667,0.695529,0,0,3.31968,2
1770272347850,-0.238123,0.285348,0.815274,0.0844194,-0.785612,0.676009,0,0,4.07777,2
1770272347863,-0.238792,0.285192,0.815504,0.0612937,-0.759218,0.71205,0,0,3.36953,2
1770272347877,-0.238871,0.285441,0.814603,0.0802652,-0.826174,0.752972,0,0,3.28625,2
1770272347890,-0.242946,0.282453,0.815424,0.0821173,-0.821484,0.662745,0,0,3.37779,2
1770272347904,-0.241275,0.283509,0.815164,-0.0161933,-0.815322,0.568014,0,0,3.30936,2
1770272347919,-0.241689,0.285061,0.813335,0.0109873,-0.732089,0.551183,0,0,4.04812,2
1770272347932,-0.240381,0.285183,0.817321,-0.0441246,-0.839327,0.588568,0,0,3.30556,2
1770272347946,-0.243302,0.285436,0.818218,-0.0564135,-0.778442,0.57291,0,0,3.74064,2
1770272347960,-0.24334,0.284636,0.816869,-0.0282067,-0.893038,0.54218,0,0,3.33286,2
1770272347973,-0.243714,0.28456,0.816266,-0.0637217,-0.889267,0.610785,0,0,3.29016,2
1770272347987,-0.241855,0.285036,0.814829,-0.047128,-0.85303,0.626003,0,0,3.31836,2
1770272348001,-0.242674,0.285604,0.81452,-0.00829683,-0.865447,0.679414,0,0,3.27981,2
1770272348014,-0.240401,0.286318,0.81607,0.0416531,-0.906006,0.725203,0,0,3.40803,2
1770272348028,-0.238942,0.283978,0.816803,-0.0745933,-0.827049,0.72138,0,0,3.29373,2
1770272348041,-0.237306,0.284575,0.814911,-0.0067623,-0.77612,0.624049,0,0,3.52425,2
1770272348055,-0.240367,0.286183,0.816671,0.0538708,-0.807907,0.655536,0,0,3.2606,2
1770272348069,-0.241631,0.284503,0.818326,-0.0494005,-0.827618,0.621661,0,0,3.66247,2
1770272348084,-0.241481,0.285262,0.813002,0.00201731,-0.871824,0.669609,0,0,5.22159,2
1770272348098,-0.242871,0.283912,0.81186,0.0162758,-0.86721,0.68595,0,0,3.31062,2
1770272348111,-0.242801,0.286107,0.809028,0.0195883,-0.830551,0.648318,0,0,3.32032,2
1770272348124,-0.242669,0.284454,0.812546,-0.0818089,-0.793138,0.637136,0,0,3.29586,2
1770272348138,-0.240922,0.284443,0.814541,-0.0752556,-0.720997,0.601011,0,0,3.34423,2
1770272348151,-0.239364,0.283649,0.815034,-0.133048,-0.791796,0.708902,0,0,3.27618,2
1770272348165,-0.24055,0.283664,0.815963,-0.0932414,-0.808112,0.690329,0,0,3.2986,2
1770272348179,-0.240175,0.283936,0.813148,0.0793335,-0.785735,0.669592,0,0,3.30583,2
1770272348193,-0.240808,0.283936,0.817639,-0.0557531,-0.816532,0.724109,0,0,3.38971,2
1770272348206,-0.241565,0.283061,0.816235,-0.0393269,-0.904449,0.739917,0,0,3.28932,2
1770272348219,-0.2417,0.284074,0.811224,-0.0501978,-0.994209,0.694386,0,0,3.32751,2
1770272348233,-0.241613,0.284374,0.812555,-0.00601494,-0.974204,0.721239,0,0,3.30081,2
1770272348246,-0.240332,0.285442,0.811311,0.0351605,-0.968018,0.742299,0,0,3.25679,2
1770272348260,-0.239335,0.28464,0.813136,0.0175802,-0.854238,0.699394,0,0,3.28249,2
1770272348273,-0.238345,0.28325,0.816057,-0.140065,-0.850783,0.613056,0,0,3.62449,2
1770272348287,-0.238585,0.284458,0.815308,-0.0891164,-0.940659,0.596604,0,0,3.43019,2
1770272348301,-0.240488,0.283484,0.814739,-0.0331078,-0.924528,0.676165,0,0,3.32412,2
1770272348314,-0.241796,0.284433,0.815686,-0.0738058,-0.889745,0.66251,0,0,3.2841,2
1770272348327,-0.240187,0.286704,0.813932,-0.00255176,-0.967773,0.628965,0,0,3.29992,2
1770272348341,-0.238367,0.287111,0.81272,0.0483424,-0.922818,0.55494,0,0,3.29038,2
1770272348356,-0.239474,0.286848,0.813428,0.00127046,-0.873623,0.537012,0,0,5.56418,2
1770272348370,-0.239571,0.286242,0.815894,-0.0489831,-0.894827,0.581483,0,0,3.29505,2
1770272348383,-0.241296,0.286028,0.814154,-0.0283083,-0.893978,0.641887,0,0,3.41345,2
1770272348397,-0.241878,0.285191,0.817322,0.0736321,-0.821035,0.668272,0,0,3.29349,2
1770272348411,-0.241639,0.28824,0.817519,-0.00898548,-0.87235,0.658563,0,0,3.78955,2
1770272348424,-0.24201,0.285386,0.815546,-0.0388439,-0.752969,0.646076,0,0,3.30371,2
1770272348438,-0.240499,0.285129,0.817953,-0.0270555,-0.708545,0.658916,0,0,3.30207,2
1770272348452,-0.241804,0.283914,0.816699,0.028457,-0.797021,0.692053,0,0,3.39306,2
1770272348465,-0.243866,0.284534,0.818256,0.0638468,-0.879426,0.689538,0,0,3.3347,2
1770272348479,-0.241603,0.283707,0.815582,0.00902264,-0.871011,0.692097,0,0,3.49294,2
1770272348492,-0.2405,0.284314,0.817102,-0.0947253,-0.798101,0.670476,0,0,3.31532,2
1770272348510,-0.241105,0.284791,0.817552,-0.0702634,-0.773096,0.598597,0,0,3.69592,2
1770272348524,-0.241755,0.282123,0.817754,-0.0503989,-0.829296,0.55884,0,0,3.29919,2
1770272348537,-0.240423,0.282335,0.815259,-0.0404666,-0.895564,0.56568,0,0,3.38281,2
1770272348551,-0.240181,0.283521,0.816108,-0.0125997,-0.940148,0.565283,0,0,3.29258,2
1770272348564,-0.242037,0.283319,0.814728,0.0280513,-0.886105,0.649054,0,0,3.31618,2
1770272348577,-0.242703,0.283278,0.814105,-0.0432263,-0.881984,0.61842,0,0,3.3864,2
1770272348591,-0.241381,0.28535,0.81283,-0.0712315,-0.88374,0.637454,0,0,3.31001,2
1770272348606,-0.242545,0.285893,0.811925,-0.100501,-0.75103,0.715674,0,0,3.35303,2
1770272348619,-0.242154,0.284929,0.813005,-0.118953,-0.764828,0.720432,0,0,3.29957,2
1770272348633,-0.239717,0.284223,0.816148,-0.0327589,-0.878597,0.631208,0,0,3.43371,2
1770272348646,-0.237366,0.285432,0.814579,0.0141549,-0.901131,0.647665,0,0,3.32351,2
1770272348660,-0.237869,0.283322,0.813047,0.0376118,-0.816978,0.587191,0,0,3.40405,2
1770272348673,-0.239678,0.283192,0.814163,-0.0422628,-0.839786,0.587489,0,0,3.39595,2
1770272348687,-0.238828,0.282584,0.814967,-0.0592993,-0.782489,0.618172,0,0,3.2979,2
1770272348700,-0.241344,0.283068,0.813558,-0.060184,-0.673687,0.698399,0,0,3.29566,2
1770272348713,-0.240946,0.284603,0.815978,-0.00719125,-0.691805,0.673627,0,0,3.26832,2
1770272348727,-0.240341,0.283927,0.817093,0.0231219,-0.712315,0.645974,0,0,3.38388,2
1770272348740,-0.240828,0.283755,0.819471,-0.0418741,-0.756921,0.685582,0,0,3.30131,2
1770272348754,-0.241315,0.283382,0.818548,-0.0667386,-0.710521,0.629051,0,0,3.31755,2
1770272348767,-0.242502,0.282531,0.819618,-0.0486365,-0.706406,0.608418,0,0,3.28414,2
1770272348781,-0.241777,0.284259,0.817155,0.00239932,-0.776867,0.51795,0,0,3.28657,2
1770272348794,-0.23965,0.285542,0.816449,0.0737187,-0.842632,0.537601,0,0,3.4609,2
1770272348808,-0.242571,0.286454,0.815559,0.044493,-0.902232,0.635213,0,0,3.30203,2
1770272348821,-0.241734,0.285464,0.818749,0.0222465,-0.817528,0.664935,0,0,3.50895,2
1770272348835,-0.242159,0.284654,0.815811,0.0989095,-0.859146,0.691246,0,0,3.35831,2
1770272348848,-0.240682,0.285009,0.81375,-0.0230643,-0.811252,0.677684,0,0,3.29621,2
1770272348862,-0.23956,0.284624,0.815051,-0.087868,-0.810206,0.701437,0,0,3.3321,2
1770272348875,-0.240589,0.282366,0.815712,-0.0133997,-0.760065,0.701864,0,0,3.28334,2
1770272348891,-0.240287,0.283366,0.816135,-0.0448678,-0.677742,0.721161,0,0,5.2075,2
1770272348904,-0.241492,0.284269,0.813871,-0.0415179,-0.835054,0.623939,0,0,3.28651,2
1770272348918,-0.240954,0.283975,0.814167,-0.0589269,-0.864092,0.617313,0,0,3.42064,2
1770272348931,-0.241396,0.283786,0.814707,-0.0638146,-0.905328,0.675069,0,0,3.3451,2
1770272348945,-0.242642,0.285939,0.814354,-0.0662584,-0.929763,0.654328,0,0,3.67679,2
1770272348959,-0.242829,0.284171,0.816576,-0.0102285,-0.991599,0.655408,0,0,3.82314,2
1770272348972,-0.241987,0.283737,0.815903,-0.0432822,-0.965265,0.610147,0,0,3.28132,2
1770272348986,-0.240659,0.284858,0.815383,0.031794,-0.917747,0.625684,0,0,3.3129,2
1770272348999,-0.243743,0.28479,0.814263,-0.0260877,-0.745133,0.64872,0,0,3.29582,2
1770272349013,-0.243448,0.286845,0.813981,0.0480248,-0.769513,0.62207,0,0,3.49888,2
1770272349026,-0.23976,0.285803,0.814063,0.0888979,-0.827505,0.612562,0,0,3.32818,2
1770272349040,-0.241067,0.283822,0.816214,0.00628102,-0.772531,0.657426,0,0,3.40142,2
1770272349053,-0.242518,0.285087,0.815146,-0.0159435,-0.870998,0.637873,0,0,3.31768,2
1770272349067,-0.242575,0.286249,0.814111,-0.00797173,-0.706492,0.685349,0,0,3.28588,2
1770272349080,-0.242348,0.286382,0.813883,-0.175742,-0.899047,0.674735,0,0,3.3086,2
1770272349094,-0.242903,0.287255,0.815749,-0.187107,-0.800669,0.638894,0,0,3.32264,2
1770272349107,-0.243609,0.284579,0.817734,-0.143172,-0.96522,0.674409,0,0,3.4791,2
1770272349121,-0.241175,0.285223,0.81857,-0.0868532,-0.98261,0.642548,0,0,3.30288,2
1770272349134,-0.240139,0.28345,0.817882,-0.035793,-0.979855,0.664785,0,0,3.40594,2
1770272349148,-0.24061,0.284586,0.815429,0.0393554,-0.940309,0.603385,0,0,3.29034,2
1770272349164,-0.241263,0.28514,0.816129,0.0578456,-0.943437,0.668105,0,0,6.40493,2
1770272349178,-0.241769,0.284009,0.814392,0.00220526,-0.945001,0.715732,0,0,3.30038,2
1770272349191,-0.242706,0.28477,0.815813,-0.0141645,-0.857997,0.720461,0,0,3.32179,2
1770272349205,-0.241733,0.284383,0.813664,-0.029983,-0.791594,0.734276,0,0,3.35071,2
1770272349218,-0.241634,0.284136,0.815434,-0.079877,-0.743125,0.703016,0,0,3.26932,2
1770272349231,-0.240433,0.284414,0.813858,-0.0552057,-0.806677,0.675936,0,0,3.30316,2
1770272349245,-0.238962,0.285817,0.814946,-0.0963051,-0.865171,0.612777,0,0,3.27231,2
1770272349259,-0.238456,0.283831,0.813107,-0.0939541,-0.814265,0.520129,0,0,3.39394,2
1770272349272,-0.238656,0.28483,0.815776,-0.0927786,-0.762094,0.603576,0,0,3.31386,2
1770272349286,-0.237559,0.285385,0.817751,-0.06929,-0.716925,0.633849,0,0,3.94892,2
1770272349301,-0.238518,0.284953,0.818057,-0.0155611,-0.68289,0.580283,0,0,5.16174,2
1770272349315,-0.241144,0.284326,0.814929,-0.0268645,-0.707857,0.709989,0,0,3.30516,2
1770272349328,-0.239157,0.283224,0.816333,-0.0439666,-0.831028,0.679422,0,0,3.34095,2
1770272349342,-0.23928,0.283916,0.815222,-0.0334337,-0.938415,0.675589,0,0,3.29207,2
1770272349355,-0.243121,0.283311,0.814247,0.0443519,-0.931039,0.608787,0,0,3.47016,2
1770272349369,-0.242087,0.283622,0.813009,0.0641607,-0.801398,0.625004,0,0,3.30507,2
1770272349382,-0.242735,0.284697,0.812827,0.00917957,-0.755661,0.656013,0,0,3.42127,2
1770272349397,-0.242889,0.283287,0.815596,-0.0755629,-0.847296,0.663885,0,0,3.35979,2
1770272349411,-0.2429,0.283519,0.816236,-0.083583,-0.854946,0.629652,0,0,3.26056,2
1770272349424,-0.241333,0.282619,0.818484,-0.00744034,-0.874038,0.589635,0,0,3.28703,2
1770272349438,-0.242601,0.283965,0.815115,9.66238e-05,-0.853049,0.607795,0,0,3.30895,2
1770272349452,-0.241666,0.282992,0.814178,-0.0991883,-0.97996,0.571073,0,0,3.76109,2
1770272349465,-0.242377,0.28368,0.814189,-0.129747,-0.852575,0.548895,0,0,3.2804,2
1770272349479,-0.243884,0.283422,0.814371,-0.125942,-0.788883,0.549257,0,0,3.32884,2
1770272349494,-0.245638,0.284131,0.814226,-0.0553375,-0.722686,0.610506,0,0,4.44748,2
1770272349507,-0.242827,0.281962,0.818243,-0.0696535,-0.777373,0.622047,0,0,3.34064,2
1770272349521,-0.240411,0.281707,0.81811,-0.0462771,-0.751282,0.685069,0,0,3.4179,2
1770272349534,-0.240348,0.281106,0.816712,-0.0231386,-0.806939,0.674596,0,0,3.37721,2
1770272349551,-0.239258,0.283432,0.815641,0.0418658,-0.758431,0.631191,0,0,3.3389,2
1770272349564,-0.24092,0.284574,0.817052,-0.00578464,-0.688376,0.716359,0,0,3.35853,2
1770272349578,-0.241199,0.284433,0.817958,-0.0486938,-0.729684,0.674973,0,0,3.43286,2
1770272349591,-0.242428,0.283205,0.818889,-0.1045,-0.853392,0.654281,0,0,3.29595,2
1770272349605,-0.24138,0.282767,0.817999,-0.0331658,-0.983948,0.70882,0,0,3.32369,2
1770272349618,-0.240969,0.283448,0.81428,0.0177682,-1.00724,0.720822,0,0,3.29671,2
1770272349632,-0.240619,0.285285,0.815042,0.0470521,-0.957819,0.700106,0,0,3.49986,2
1770272349645,-0.243367,0.286813,0.813256,0.000625264,-0.952192,0.628679,0,0,3.3211,2
1770272349659,-0.244694,0.283683,0.814822,-0.0378553,-0.945562,0.619683,0,0,3.3382,2
1770272349672,-0.240735,0.283861,0.813728,-0.137248,-0.915529,0.649536,0,0,3.31299,2
1770272349686,-0.242567,0.284063,0.816437,0.0306125,-0.923413,0.553776,0,0,3.28579,2
1770272349703,-0.242169,0.284717,0.815551,0.0687414,-0.789951,0.605132,0,0,3.36799,2
1770272349717,-0.241388,0.284175,0.816907,0.0114699,-0.791922,0.695696,0,0,3.29518,2
1770272349734,-0.241237,0.283127,0.813841,-0.00571542,-0.819625,0.615023,0,0,7.30689,2
1770272349747,-0.239741,0.283941,0.813886,-0.0791936,-0.837293,0.76171,0,0,3.2744,2
1770272349761,-0.24053,0.284901,0.814351,-0.0663144,-0.838494,0.682382,0,0,3.42573,2
1770272349774,-0.241036,0.284293,0.812901,0.00882756,-0.846728,0.642718,0,0,3.29086,2
1770272349788,-0.24381,0.284165,0.814332,0.0158642,-0.850845,0.683954,0,0,3.43366,2
1770272349801,-0.244541,0.283296,0.814113,-0.0073351,-0.860537,0.71984,0,0,3.29577,2
1770272349815,-0.24501,0.2837,0.813622,-0.087637,-1.0066,0.707248,0,0,3.28827,2
1770272349830,-0.243211,0.283784,0.816806,-0.0323681,-0.961317,0.6437,0,0,4.84725,2
1770272349843,-0.242757,0.284888,0.817625,-0.0123673,-0.93104,0.611927,0,0,3.28268,2
1770272349857,-0.243428,0.285684,0.817626,0.104503,-0.969337,0.653292,0,0,3.47234,2
1770272349870,-0.243508,0.286282,0.817976,-0.00118342,-0.847264,0.597638,0,0,3.28825,2
1770272349884,-0.239711,0.284829,0.81925,-0.0921948,-0.847296,0.634697,0,0,3.43058,2
1770272349899,-0.240511,0.284072,0.817619,-0.0613646,-0.89693,0.637959,0,0,3.33253,2
1770272349912,-0.240674,0.28411,0.816747,-0.0955678,-0.88358,0.681575,0,0,3.30356,2
1770272349927,-0.240342,0.284485,0.81715,-0.0248831,-0.968507,0.676665,0,0,3.27469,2
1770272349940,-0.239079,0.285338,0.817846,0.0295432,-0.938452,0.628409,0,0,3.25558,2
1770272349954,-0.242292,0.285535,0.81838,-0.011946,-0.919608,0.539395,0,0,3.2874,2
1770272349967,-0.242254,0.285662,0.815049,0.0665461,-0.814766,0.632293,0,0,3.25714,2
1770272349982,-0.242493,0.284956,0.814835,0.0943418,-0.773795,0.587139,0,0,4.23744,2
1770272349995,-0.24422,0.283978,0.816623,0.0548045,-0.810562,0.675249,0,0,3.24649,2
1770272350011,-0.242005,0.285012,0.816195,-0.0374833,-0.760243,0.704037,0,0,3.34532,2
1770272350025,-0.242333,0.284714,0.814172,-0.0454592,-0.857221,0.661179,0,0,3.29262,2
1770272350038,-0.242193,0.285047,0.813485,0.000171169,-0.795022,0.693185,0,0,3.61779,2
1770272350055,-0.241054,0.286049,0.814619,-0.0686167,-0.809725,0.644302,0,0,3.26973,2
1770272350069,-0.243122,0.287128,0.813335,-0.0304916,-0.988832,0.745815,0,0,3.50732,2
1770272350082,-0.244274,0.284935,0.81671,-0.0686809,-0.933347,0.63245,0,0,3.2681,2
1770272350096,-0.241865,0.285277,0.814064,-0.0267069,-0.840719,0.579584,0,0,3.27325,2
1770272350109,-0.243992,0.284446,0.815865,0.00191375,-0.950894,0.686738,0,0,3.36756,2
1770272350123,-0.243433,0.283913,0.815884,0.0429416,-0.929646,0.686881,0,0,3.23899,2
1770272350137,-0.24115,0.284709,0.816684,-0.0205139,-0.976273,0.595349,0,0,3.86257,2
1770272350150,-0.240909,0.285656,0.814485,0.0126438,-0.927068,0.534316,0,0,3.27036,2
1770272350163,-0.239006,0.284427,0.814299,0.0330395,-1.02079,0.580135,0,0,3.33279,2
1770272350177,-0.241283,0.286963,0.814441,0.0165197,-1.01803,0.614495,0,0,3.29203,2
1770272350190,-0.240732,0.286141,0.815408,0.0349774,-0.940311,0.627858,0,0,3.2911,2
1770272350204,-0.240641,0.286138,0.81769,0.00985512,-0.859468,0.722326,0,0,3.54658,2
1770272350217,-0.242332,0.28771,0.815656,0.0316451,-0.849582,0.635972,0,0,3.24958,2
1770272350232,-0.240968,0.286271,0.817236,-0.0795973,-0.825554,0.611879,0,0,4.08857,2
1770272350245,-0.240618,0.284647,0.816064,0.040354,-0.847892,0.630367,0,0,3.24907,2
1770272350259,-0.240743,0.28343,0.814438,-0.0141741,-0.85906,0.635794,0,0,3.46271,2
1770272350272,-0.239774,0.283699,0.813743,-0.0109039,-0.830294,0.676676,0,0,3.27679,2
1770272350286,-0.241513,0.283871,0.817584,-0.00163514,-0.731941,0.685666,0,0,3.42318,2
1770272350299,-0.240355,0.282844,0.818561,-0.000817568,-0.705665,0.693978,0,0,3.26482,2
1770272350313,-0.240399,0.28411,0.81709,-0.0118592,-0.765046,0.591264,0,0,3.24549,2
1770272350327,-0.241915,0.282648,0.817807,-0.0135632,-0.901607,0.620059,0,0,4.10255,2
1770272350340,-0.240088,0.283634,0.818705,-0.0754839,-0.935536,0.63064,0,0,3.24603,2
1770272350354,-0.239878,0.283392,0.819281,-0.0415587,-0.956318,0.624481,0,0,3.82279,2
1770272350368,-0.240705,0.28315,0.817026,-0.0665809,-1.01251,0.613767,0,0,3.28634,2
1770272350381,-0.241149,0.282382,0.817766,0.0392286,-0.903202,0.642761,0,0,3.3854,2
1770272350395,-0.239947,0.282326,0.818066,0.0157975,-0.936334,0.676343,0,0,3.26292,2
1770272350408,-0.241712,0.28264,0.813448,0.0384331,-0.765877,0.61298,0,0,3.27971,2
1770272350421,-0.243369,0.284329,0.816869,0.0459341,-0.791335,0.623284,0,0,3.29692,2
1770272350435,-0.241371,0.285587,0.81819,-0.0381016,-0.811698,0.655154,0,0,3.24212,2
1770272350448,-0.244638,0.284208,0.816939,-0.0381348,-0.676841,0.667271,0,0,3.43464,2
1770272350463,-0.244197,0.283673,0.815786,-0.0801361,-0.735367,0.65043,0,0,3.33168,2
1770272350477,-0.241903,0.28403,0.814084,-0.0438848,-0.722645,0.661093,0,0,3.33771,2
1770272350491,-0.242092,0.283646,0.817015,-0.0143088,-0.746819,0.563371,0,0,4.16868,2
1770272350504,-0.241777,0.282438,0.81671,-0.0682231,-0.89631,0.62138,0,0,3.39134,2
1770272350518,-0.240874,0.285161,0.813889,-0.0417451,-0.868002,0.661835,0,0,3.28868,2
1770272350531,-0.239246,0.284984,0.813654,0.024929,-0.865299,0.682063,0,0,3.28844,2
1770272350545,-0.239687,0.286008,0.814028,-0.0257035,-0.841046,0.745611,0,0,3.2986,2
1770272350558,-0.238484,0.28649,0.81523,-0.0357525,-0.931974,0.678149,0,0,3.30871,2
1770272350572,-0.240423,0.2854,0.815126,0.0317421,-0.97362,0.678769,0,0,3.5121,2
1770272350585,-0.24123,0.2861,0.81471,-0.00321293,-0.998261,0.587476,0,0,3.28127,2
1770272350600,-0.240786,0.285762,0.816892,0.082363,-0.918978,0.583814,0,0,3.35897,2
1770272350614,-0.238577,0.284845,0.815931,0.0640823,-0.959489,0.635419,0,0,3.2889,2
1770272350627,-0.241707,0.286618,0.81855,0.100743,-0.983561,0.661221,0,0,3.27668,2
1770272350640,-0.242229,0.285045,0.818919,0.0618221,-0.991781,0.662671,0,0,3.29408,2
1770272350654,-0.23959,0.28456,0.816707,0.0767126,-0.927188,0.690114,0,0,3.25392,2
1770272350667,-0.238771,0.284686,0.814675,0.0383563,-0.925426,0.673301,0,0,3.27488,2
1770272350681,-0.238771,0.285817,0.812059,0.0420789,-0.939812,0.683979,0,0,3.25768,2
1770272350694,-0.238595,0.284793,0.813267,0.0134059,-0.824868,0.674051,0,0,3.4836,2
1770272350708,-0.238658,0.284661,0.815354,-0.0352818,-0.897167,0.67672,0,0,3.28164,2
1770272350721,-0.239048,0.283876,0.815468,-0.0634424,-0.719576,0.666604,0,0,3.68655,2
1770272350735,-0.240085,0.283548,0.815454,-0.0775227,-0.813986,0.661546,0,0,3.73383,2
1770272350749,-0.239701,0.283687,0.815533,-0.0692957,-0.731421,0.685735,0,0,3.24899,2
1770272350762,-0.241204,0.285613,0.815496,0.0340544,-0.84281,0.606226,0,0,3.62962,2
1770272350776,-0.240682,0.283262,0.811974,-0.0516751,-0.909954,0.688609,0,0,3.27256,2
1770272350789,-0.240871,0.284116,0.816186,-0.00675357,-0.905359,0.615297,0,0,3.41145,2
1770272350803,-0.240031,0.283789,0.815915,-0.0339111,-0.86871,0.635893,0,0,3.30653,2
1770272350817,-0.239929,0.285153,0.815391,-0.0818411,-0.896187,0.619473,0,0,4.00881,2
1770272350830,-0.241,0.281743,0.81523,-0.00275259,-0.848857,0.645614,0,0,3.26638,2
1770272350844,-0.241076,0.282791,0.813115,-0.043361,-0.851909,0.704487,0,0,3.25675,2
1770272350857,-0.240687,0.283813,0.810883,0.00122025,-0.853436,0.66522,0,0,3.29179,2
1770272350870,-0.241662,0.28377,0.810063,-0.0413746,-0.735878,0.569251,0,0,3.24743,2
1770272350884,-0.24255,0.284704,0.813385,-0.0703056,-0.780153,0.685389,0,0,3.30308,2
1770272350897,-0.240758,0.282329,0.815429,-0.0198856,-0.756489,0.667122,0,0,3.24768,2
1770272350911,-0.242057,0.283692,0.812368,0.0358587,-0.744657,0.680889,0,0,3.34047,2
1770272350924,-0.241054,0.284829,0.81399,0.0446469,-0.860878,0.641971,0,0,3.2624,2
1770272350937,-0.240936,0.284946,0.815468,0.0146899,-0.831202,0.710299,0,0,3.26595,2
1770272350951,-0.241209,0.284672,0.813705,0.0684136,-0.865983,0.660493,0,0,3.34442,2
1770272350964,-0.243309,0.28502,0.813973,0.0609244,-0.868106,0.643224,0,0,3.30038,2
1770272350978,-0.242645,0.285506,0.815982,-0.0649577,-0.872984,0.646039,0,0,3.31745,2
1770272350992,-0.242219,0.285118,0.817883,-0.112632,-0.886874,0.609279,0,0,3.81096,2
1770272351006,-0.24177,0.283995,0.816042,-0.0295982,-0.764048,0.556548,0,0,4.41374,2
1770272351019,-0.243319,0.284324,0.814336,-0.0262495,-0.740802,0.606518,0,0,3.26201,2
1770272351033,-0.243526,0.284185,0.813416,0.0135928,-0.744447,0.581885,0,0,3.87984,2
1770272351047,-0.242259,0.282871,0.815274,-0.096257,-0.872224,0.611553,0,0,3.26514,2
1770272351060,-0.241709,0.283252,0.813931,-0.0595789,-0.848325,0.702723,0,0,3.24707,2
1770272351074,-0.239869,0.285421,0.813855,-0.075591,-0.863094,0.641438,0,0,3.24275,2
1770272351087,-0.241661,0.286376,0.814244,0.0309068,-0.839944,0.637513,0,0,3.48581,2
1770272351101,-0.242112,0.287076,0.814057,0.0917893,-0.900888,0.700436,0,0,3.31195,2
1770272351114,-0.241002,0.285863,0.812887,0.0535282,-0.858841,0.594493,0,0,3.25703,2
1770272351130,-0.240202,0.284386,0.811699,0.0305809,-0.868352,0.705643,0,0,3.41049,2
1770272351144,-0.241788,0.282125,0.815047,0.0801759,-0.884558,0.7116,0,0,3.30536,2
1770272351157,-0.240969,0.280937,0.81326,0.0133704,-0.781973,0.722212,0,0,3.58079,2
1770272351171,-0.243767,0.28446,0.815087,-0.0543835,-0.787933,0.712251,0,0,3.24814,2
1770272351184,-0.243376,0.285497,0.816609,-0.118795,-0.798547,0.657652,0,0,3.25845,2
1770272351198,-0.24295,0.284763,0.818548,-0.086115,-0.937441,0.557834,0,0,3.27279,2
1770272351211,-0.240053,0.284291,0.819792,-0.0659582,-0.892385,0.57281,0,0,3.25405,2
1770272351224,-0.240118,0.285476,0.817442,-0.0100784,-0.946192,0.587932,0,0,3.44505,2
1770272351238,-0.237011,0.283874,0.818296,-0.0164896,-0.915844,0.584042,0,0,3.74605,2
1770272351252,-0.240003,0.284509,0.819368,-0.0922142,-0.935021,0.528662,0,0,3.43784,2
1770272351265,-0.240086,0.285878,0.817257,-0.00412239,-0.982778,0.550591,0,0,3.25403,2
1770272351279,-0.241538,0.285182,0.818789,-0.0173284,-0.907419,0.62644,0,0,3.31912,2
1770272351292,-0.240984,0.283423,0.816798,-0.0277482,-0.77432,0.649098,0,0,3.32469,2
1770272351306,-0.241065,0.282995,0.816396,-0.0940267,-0.87571,0.629893,0,0,3.26116,2
1770272351319,-0.242079,0.284206,0.81395,-0.0584638,-0.922588,0.647007,0,0,3.33805,2
1770272351333,-0.241156,0.282273,0.81623,-0.00251432,-0.823889,0.693733,0,0,3.35775,2
1770272351347,-0.240389,0.282956,0.81813,-0.00507395,-0.85851,0.629309,0,0,3.54086,2
1770272351360,-0.24147,0.282869,0.81655,-0.0407049,-0.864369,0.661983,0,0,3.26047,2
1770272351374,-0.24164,0.282552,0.817198,-0.0127189,-0.840582,0.716488,0,0,4.01559,2
1770272351388,-0.243935,0.283922,0.820588,-0.0483442,-0.805787,0.770458,0,0,3.32369,2
1770272351401,-0.243047,0.286026,0.819002,-0.0203553,-0.853275,0.705839,0,0,3.25277,2
1770272351415,-0.241689,0.284577,0.817897,-0.0178112,-0.8045,0.742233,0,0,3.32797,2
1770272351431,-0.241343,0.286097,0.817713,-0.0279896,-0.822097,0.684093,0,0,3.30568,2
1770272351445,-0.244095,0.284798,0.814796,-0.0521627,-0.777461,0.628306,0,0,3.29231,2
1770272351458,-0.242887,0.284926,0.817734,-0.0222646,-0.87728,0.714916,0,0,3.28932,2
1770272351472,-0.242461,0.283784,0.815859,-0.0263995,-0.900472,0.742954,0,0,3.35392,2
1770272351485,-0.242188,0.283314,0.81518,-0.0628181,-0.931152,0.726439,0,0,3.27506,2
1770272351498,-0.240701,0.284236,0.81422,-0.107745,-0.923591,0.699097,0,0,3.33569,2
1770272351512,-0.241496,0.283429,0.814828,-0.0347885,-0.862559,0.651075,0,0,3.28158,2
1770272351525,-0.242269,0.284485,0.817056,0.0284073,-0.881661,0.600347,0,0,3.27236,2
1770272351539,-0.244076,0.284288,0.81691,0.00657005,-0.830144,0.567349,0,0,3.43819,2
1770272351552,-0.24165,0.283724,0.812269,-0.0196157,-0.800568,0.638636,0,0,3.26338,2
1770272351568,-0.242368,0.285987,0.813751,-0.00980787,-0.812498,0.529242,0,0,4.06812,2
1770272351581,-0.243528,0.286301,0.815402,0.0370808,-0.860447,0.569964,0,0,3.25918,2
1770272351595,-0.25573,0.287903,0.801942,3.50709,1.52779,4.15139,0,0,3.73827,5
1770272351609,-0.21563,0.293041,0.79829,1.21156,3.51199,-0.64186,0,0,3.26758,2
1770272351622,-0.24325,0.292228,0.8193,0.0294443,-2.78599,2.06075,0,0,3.41936,2
1770272351636,-0.239458,0.293805,0.82631,-0.0997817,-0.847194,-0.519244,0,0,3.31423,2
1770272351649,-0.239561,0.289395,0.823636,-0.137677,-1.16787,0.373966,0,0,3.26451,2
1770272351663,-0.238141,0.276506,0.822533,0.419711,0.232858,0.751868,0,0,3.76505,2
1770272351676,-0.23408,0.277506,0.821038,0.110619,-0.356853,0.551507,0,0,3.29097,2
1770272351690,-0.241008,0.281471,0.821653,-0.0324768,-1.06392,0.920792,0,0,3.38418,2
1770272351703,-0.238369,0.285853,0.82091,-0.0811239,-0.814404,0.510014,0,0,3.26305,2
1770272351717,-0.23825,0.283941,0.819821,0.0205068,-0.460637,0.457297,0,0,3.35271,2
1770272351730,-0.237474,0.28114,0.819997,0.0484213,-0.501311,0.56071,0,0,3.24381,2
1770272351743,-0.240737,0.282754,0.818711,0.134898,-0.785007,0.696385,0,0,3.25366,2
1770272351757,-0.239595,0.282915,0.816136,-0.00507024,-0.888687,0.607735,0,0,3.26742,2
1770272351770,-0.241398,0.284767,0.81597,-0.0674206,-0.944343,0.635928,0,0,3.30281,2
1770272351784,-0.242206,0.284644,0.816914,-0.0871454,-0.941637,0.588957,0,0,3.3372,2
1770272351797,-0.241237,0.28509,0.819181,-0.158077,-0.829597,0.630356,0,0,3.28593,2
1770272351810,-0.238954,0.286513,0.815388,-0.178275,-0.926249,0.58617,0,0,3.33575,2
1770272351824,-0.2388,0.286202,0.817065,0.0024656,-0.93259,0.628963,0,0,3.27171,2
1770272351837,-0.241151,0.288801,0.819628,0.0661183,-0.897593,0.66181,0,0,3.28377,2
1770272351851,-0.238024,0.296417,0.817949,-0.7532,-1.24269,0.414874,0,0,3.28325,2
1770272351864,-0.242139,0.297456,0.818271,-0.00637119,-0.644246,1.00515,0,0,3.29897,2
1770272351878,-0.233585,0.289201,0.812442,0.27544,-0.1351,0.643795,0,0,3.32986,2
1770272351891,-0.24139,0.288539,0.813513,-0.343196,-1.00648,0.718844,0,0,3.26631,2
1770272351904,-0.238964,0.2924,0.814112,-0.289919,-0.507057,0.401407,0,0,3.34149,2
1770272351918,-0.239682,0.292866,0.816771,-0.77473,-0.70391,0.254138,0,0,3.26082,2
1770272351931,-0.238918,0.289404,0.815853,-0.509503,-0.226001,0.298825,0,0,3.3931,2
1770272351949,-0.240964,0.288407,0.816314,0.29105,0.116007,0.481474,0,0,3.25994,2
1770272351962,-0.241665,0.28698,0.815735,0.275296,-0.43818,0.721653,0,0,3.39973,2
1770272351976,-0.245176,0.292712,0.820173,-2.12189,-2.00535,-0.0857385,0,0,3.36662,2
1770272351989,-0.243318,0.285369,0.821448,-0.408275,0.237783,0.193772,0,0,3.26231,2
1770272352002,-0.240989,0.284156,0.815268,1.27678,-0.32004,2.04727,0,0,3.2706,2
1770272352016,-0.266871,0.251715,0.814452,-1.34634,-5.40429,-7.83896,0,0,3.25668,2
1770272352029,-0.213858,0.263171,0.784714,-33.8984,-26.7594,-18.7515,0,0,3.41369,2
1770272352043,-0.241413,0.258452,0.823707,-27.3041,-12.4255,-15.5704,0,0,3.27081,2
1770272352056,-0.235393,0.255074,0.812957,2.37846,-5.12115,7.26059,0,0,3.58305,2
1770272352070,-0.218497,0.279496,0.793988,-8.04359,-4.46897,-5.01856,0,0,3.26199,2
1770272352087,-0.231358,0.269279,0.82065,-4.02561,-3.08945,0.181559,0,0,3.39497,2
1770272352100,-0.222555,0.272868,0.815718,0.49101,-1.33862,3.50299,0,0,3.28708,2
1770272352114,-0.225828,0.285929,0.817014,-4.20106,-1.23038,-0.675984,0,0,3.25981,2
1770272352127,-0.225304,0.284778,0.815397,-2.37534,-3.13046,1.83758,0,0,3.25286,2
1770272352140,-0.237475,0.259986,0.836575,5.23981,10.1447,32.8272,0,0,3.24456,2
1770272352154,0.0478976,0.13282,0.665615,45.681,42.2861,76.635,0,0,3.35118,4
1770272352167,-0.0581268,0.15031,0.741766,42.039,23.9827,59.8786,0,0,3.23694,5
1770272352181,-0.153981,0.194509,0.791772,54.466,21.0982,90.5118,0,0,3.29564,5
1770272352194,-0.191092,0.240629,0.817128,86.4849,26.3201,122.405,0,0,3.25368,4
1770272352207,-0.198377,0.317019,0.806374,101.464,39.328,125.317,0,0,3.24282,5
1770272352221,-0.161156,0.195398,0.852738,112.549,34.2556,123.078,0,0,3.30973,5
1770272352234,-0.155375,0.322454,0.79389,100.358,24.0476,113.547,0,0,3.24027,5
1770272352247,-0.164085,0.365507,0.763297,87.4654,18.7605,94.7047,0,0,3.32121,4
1770272352261,-0.164339,0.427597,0.726521,69.58,12.5749,70.4974,0,0,3.25321,5
1770272352274,-0.159255,0.43132,0.728723,48.3244,7.58134,42.0426,0,0,3.32453,5
1770272352288,-0.164301,0.463535,0.71859,32.7729,4.12273,21.8648,0,0,3.25664,5
1770272352301,-0.169551,0.489981,0.702379,24.5964,3.29037,5.17668,0,0,3.25112,5
1770272352314,-0.165835,0.491384,0.700022,7.88597,6.22152,-11.2361,0,0,3.27905,5
1770272352328,-0.170273,0.478814,0.703408,-4.80129,12.8436,-33.2936,0,0,3.25544,5
1770272352341,-0.211606,0.473284,0.753774,-3.77469,5.58973,-44.5285,0,0,3.26949,5
1770272352355,-0.42863,0.700994,0.820295,-2.18506,30.6804,-8.31005,0,0,3.25036,5
1770272352368,-0.364634,0.621202,0.854413,-4.87115,32.218,-18.884,0,0,3.31642,2
1770272352381,-0.290504,0.582154,0.817356,-8.74474,35.4564,-32.7435,0,0,3.24745,2
1770272352395,-0.309055,0.517036,0.834771,-10.7159,28.7892,-28.6084,0,0,3.32938,2
1770272352408,-0.288948,0.517317,0.813585,-19.5068,17.2496,-19.6744,0,0,3.29638,2
1770272352422,-0.291175,0.498868,0.791505,-19.8221,1.88815,10.2468,0,0,3.23705,2
1770272352435,-0.26829,0.444958,0.750046,-19.0103,3.7227,2.9249,0,0,3.27558,2
1770272352448,-0.426697,0.407912,0.808106,-24.383,-16.5928,-6.11388,0,0,3.24118,2
1770272352462,-0.350274,0.402156,0.806882,-22.9243,-19.4873,-2.83557,0,0,3.44897,2
1770272352475,-0.347762,0.411407,0.799711,-22.508,-21.1253,-14.8109,0,0,3.26081,2
1770272352489,-0.341864,0.425216,0.786275,-18.6204,-26.3489,-4.67645,0,0,3.46057,2
1770272352502,-0.30458,0.441425,0.767069,-18.3904,-29.0523,0.341165,0,0,3.25279,2
1770272352516,-0.277329,0.453576,0.75728,-18.6265,-29.7323,4.71257,0,0,3.23888,2
1770272352529,-0.278384,0.451752,0.770066,-21.6148,-32.16,6.20743,0,0,3.29755,2
1770272352543,-0.272851,0.458104,0.784831,-26.3646,-35.4541,9.33272,0,0,3.24666,2
1770272352556,-0.33245,0.549121,0.837077,-45.0144,-56.7728,16.8877,0,0,3.45286,2
1770272352570,-0.292941,0.510531,0.797747,-61.156,-72.791,13.8332,0,0,3.34388,2
1770272352583,-0.255428,0.425591,0.715654,-58.517,-72.4413,11.5731,0,0,3.32971,2
1770272352597,-0.216923,0.413501,0.73242,-62.4455,-72.4191,15.6644,0,0,3.26582,2
1770272352610,-0.228073,0.446589,0.68344,-59.6197,-70.8355,10.2291,0,0,3.24727,2
1770272352623,-0.442522,0.274438,0.494045,-16.6381,-53.3109,-21.4312,0,0,3.30266,2
1770272352637,-0.267629,0.611695,1.04957,-66.8954,-86.1058,-17.5858,0,0,3.26705,2
1770272352650,-0.191341,0.587248,1.03942,-86.0469,-102.347,3.87502,0,0,3.33768,2
1770272352664,-0.18288,0.537886,0.896812,-90.3212,-96.9253,17.6551,0,0,3.24577,2
1770272352677,-0.155847,0.448568,0.846315,-85.8629,-103.982,13.381,0,0,3.33151,2
1770272352691,-0.100976,0.372182,0.795541,-75.9696,-115.915,8.27827,0,0,3.26164,2
1770272352704,-0.0436337,0.329109,0.749487,-62.0497,-112.724,10.0017,0,0,3.24323,2
1770272352717,0.00855885,0.300593,0.755356,-47.4218,-98.6676,14.2948,0,0,3.26058,2
1770272352731,0.0607706,0.279406,0.80854,-45.1193,-86.4407,17.5825,0,0,3.25701,2
1770272352744,0.0599907,0.283128,0.843108,-48.7352,-75.7585,20.1958,0,0,3.36936,2
1770272352757,0.0305393,0.292426,0.848674,-53.2684,-80.8182,21.6819,0,0,3.25088,2
1770272352771,-0.000693594,0.306877,0.844286,-60.4891,-97.9053,21.2608,0,0,3.33831,3
1770272352784,0.0236078,0.295772,0.837709,-67.111,-117.281,23.0808,0,0,3.26195,3
1770272352798,0.0643056,0.242114,0.752583,-65.6662,-113.892,4.94497,0,0,3.32132,3
1770272352811,0.0901607,0.247475,0.787693,-68.4629,-106.919,8.76638,0,0,3.27827,3
1770272352825,0.102905,0.236485,0.848797,-75.0978,-108.124,12.1733,0,0,3.30727,3
1770272352838,0.154815,0.242639,0.831683,-80.0604,-107.451,22.224,0,0,3.27162,3
1770272352851,0.166787,0.239153,0.834431,-83.908,-108.962,30.9746,0,0,3.24845,3
1770272352865,0.1938,0.231056,0.827974,-94.6601,-102.13,32.3232,0,0,3.58308,3
1770272352879,0.207899,0.21484,0.800301,-99.353,-105.66,36.4898,0,0,3.27903,3
1770272352892,0.23304,0.135773,0.738461,-122.211,-111.204,23.4777,0,0,3.4657,4
1770272352906,0.245151,0.1655,0.785802,-123.46,-96.3426,27.6435,0,0,3.36945,4
1770272352919,0.201494,0.205044,0.857642,-113.078,-79.1026,51.0393,0,0,3.27379,3
1770272352933,0.264091,0.112955,0.819866,-117.814,-82.6658,70.4128,0,0,3.32245,4
1770272352946,0.32814,0.03654,0.760812,-116.334,-80.7222,86.6377,0,0,3.32164,4
1770272352960,0.368894,-0.0248315,0.736734,-119.885,-73.9374,93.0517,0,0,3.43879,4
1770272352973,0.404493,-0.0614174,0.697317,-121.858,-66.2588,95.9762,0,0,3.26273,4
1770272352987,0.443607,-0.126704,0.683216,-121.479,-64.8889,96.3545,0,0,3.54273,4
1770272353000,0.449204,-0.186795,0.644779,-118.155,-62.3567,77.3452,0,0,3.34107,4
1770272353014,0.443611,-0.220284,0.678627,-116.463,-70.3768,73.1077,0,0,3.24662,4
1770272353027,0.41973,-0.202504,0.714955,-110.8,-76.3449,75.2447,0,0,3.27388,4
1770272353040,0.367145,-0.276022,0.764858,-113.583,-88.8366,71.214,0,0,3.26723,4
1770272353054,0.392962,-0.313406,0.779127,-131.414,-92.4641,61.7444,0,0,3.36666,4
1770272353067,0.459473,-0.310807,0.738254,-143.963,-90.6328,49.8684,0,0,3.27401,4
1770272353081,0.506879,-0.361444,0.661382,-144.584,-83.3927,42.3235,0,0,3.35784,4
1770272353094,0.627128,-0.400062,0.638377,-132.872,-79.1811,47.7839,0,0,3.26943,4
1770272353108,0.625491,-0.370442,0.598336,-107.444,-76.228,56.6744,0,0,3.3016,4
1770272353121,0.581932,-0.409947,0.586984,-97.5883,-69.7781,43.8754,0,0,3.31297,4
1770272353135,0.540597,-0.41527,0.576988,-92.0117,-72.5646,44.6934,0,0,3.29227,4
1770272353151,0.53821,-0.481573,0.569086,-97.1929,-71.393,34.7971,0,0,3.36707,4
1770272353165,0.540352,-0.552374,0.545385,-90.5354,-77.0591,39.6314,0,0,3.26993,4
1770272353178,0.568929,-0.563436,0.582742,-88.8975,-74.686,27.747,0,0,3.33197,4
1770272353191,0.571349,-0.560739,0.637153,-90.9525,-60.4499,17.1139,0,0,3.25042,4
1770272353205,0.644448,-0.591546,0.654753,-72.8465,-43.1181,17.2325,0,0,3.3466,4
1770272353218,0.67203,-0.632132,0.638496,-64.5874,-46.1774,18.2193,0,0,3.30669,4
1770272353232,0.683082,-0.581733,0.620716,-82.9044,-54.9933,-8.41705,0,0,3.36023,4
1770272353245,0.50335,-0.656535,0.442335,-61.2995,-77.3821,-14.6627,0,0,3.26673,3
1770272353259,0.551567,-0.683198,0.384975,-35.6994,-60.5422,-25.5795,0,0,3.31686,3
1770272353273,0.59598,-0.687013,0.36662,-2.63595,-45.6108,-25.805,0,0,3.33166,3
1770272353287,0.611188,-0.672493,0.364724,25.1515,-33.3283,-23.5094,0,0,3.24994,3
1770272353300,0.61806,-0.617694,0.393945,30.6712,-28.4733,-22.7585,0,0,3.28469,3
1770272353313,0.626319,-0.583751,0.413922,22.2402,-26.7176,-19.6235,0,0,3.24758,3
1770272353327,0.628296,-0.56328,0.422807,10.2728,-32.2557,-26.0942,0,0,3.32171,3
1770272353340,0.626853,-0.543233,0.427196,0.338667,-42.3531,-25.4555,0,0,3.26316,3
1770272353354,0.647006,-0.544013,0.430013,-5.41082,-43.8941,-24.785,0,0,3.26543,3
1770272353367,0.681105,-0.538828,0.394473,-2.89625,-47.0692,-19.6177,0,0,3.31244,3
1770272353380,0.615261,-0.512848,0.426156,-8.1237,-64.2178,-11.473,0,0,3.24325,3
1770272353395,0.613327,-0.527575,0.426634,-13.8901,-69.6356,-2.32809,0,0,4.10762,5
1770272353408,0.652845,-0.550408,0.401751,-10.3344,-67.7606,1.29015,0,0,3.25673,5
1770272353422,0.70427,-0.561387,0.37135,-5.30077,-66.9986,3.6718,0,0,3.57107,3
1770272353435,0.743831,-0.554264,0.331637,-2.19619,-63.1253,1.55345,0,0,3.26947,3
1770272353449,0.74263,-0.535786,0.329679,-5.36527,-61.8527,0.719475,0,0,3.29862,3
1770272353462,0.7653,-0.550517,0.326148,-3.14828,-67.0103,20.9819,0,0,3.2626,3
1770272353476,0.802064,-0.62898,0.27324,-13.0894,-68.1502,-2.63883,0,0,3.25138,3
1770272353490,0.77003,-0.685194,0.273311,-9.50654,-45.1553,-7.87667,0,0,4.22249,3
1770272353507,0.7737,-0.664941,0.278954,4.82307,-8.26465,-6.57956,0,0,3.28216,3
1770272353520,0.777542,-0.613547,0.277677,12.9497,-3.27736,-11.1066,0,0,3.40538,3
1770272353534,0.769074,-0.577328,0.293564,11.3145,-6.93639,-14.8663,0,0,3.2661,3
1770272353547,0.783407,-0.565456,0.298599,9.31758,-11.8384,-19.4255,0,0,3.39962,3
1770272353561,0.795317,-0.549528,0.309089,6.80001,-12.7475,-20.3158,0,0,3.29988,3
1770272353574,0.799199,-0.561697,0.302614,7.28932,-8.9577,-20.5396,0,0,3.31214,3
1770272353588,0.818658,-0.569244,0.298984,10.6523,-2.35289,-19.4759,0,0,3.31344,3
1770272353601,0.816015,-0.560006,0.292718,16.7574,6.77012,-18.4899,0,0,3.25175,3
1770272353614,0.822627,-0.548917,0.300505,25.3444,15.2171,-13.2907,0,0,3.30747,3
1770272353628,0.814276,-0.525357,0.314598,24.5271,16.2536,-14.5881,0,0,3.29208,3
1770272353641,0.822561,-0.547935,0.299502,29.1682,21.1688,-13.336,0,0,3.32327,3
1770272353655,0.81642,-0.54773,0.328649,29.3093,23.2752,-20.065,0,0,3.26851,3
1770272353668,0.816065,-0.546462,0.326012,29.2043,24.6071,-29.8149,0,0,3.36544,3
1770272353682,0.812077,-0.536989,0.337178,30.8044,26.9677,-37.6556,0,0,3.31408,3
1770272353695,0.80908,-0.520851,0.327462,33.6847,29.896,-42.7553,0,0,3.26857,3
1770272353709,0.805757,-0.496588,0.344143,36.4072,34.5702,-42.912,0,0,3.31477,3
1770272353722,0.800913,-0.47988,0.371466,35.6578,38.4759,-44.185,0,0,3.26082,3
1770272353736,0.794918,-0.465309,0.387864,33.9358,40.7227,-43.4513,0,0,3.33129,3
1770272353749,0.791071,-0.445113,0.398037,33.0366,42.827,-39.7943,0,0,3.25451,3
1770272353765,0.803121,-0.450345,0.407189,34.4,47.6349,-36.4811,0,0,5.49926,3
1770272353779,0.813653,-0.468397,0.420147,40.0053,53.1495,-37.752,0,0,3.25492,3
1770272353793,0.829421,-0.492576,0.436773,51.1134,59.4488,-44.4943,0,0,3.37773,3
1770272353807,0.837966,-0.503895,0.46266,65.8468,66.6404,-55.3311,0,0,3.29764,3
1770272353820,0.81686,-0.48317,0.504901,84.3012,64.4042,-69.5167,0,0,3.31923,3
1770272353834,0.816172,-0.467071,0.506994,101.261,69.4464,-77.4912,0,0,3.32177,3
1770272353847,0.806985,-0.395863,0.512885,110.36,78.8453,-81.9937,0,0,3.31475,3
1770272353861,0.775199,-0.340633,0.526986,114.149,86.9914,-85.8175,0,0,3.31177,3
1770272353874,0.753751,-0.28376,0.544782,109.296,91.427,-82.6759,0,0,3.25642,3
1770272353888,0.734127,-0.231519,0.556465,99.0984,85.9654,-75.2807,0,0,4.29373,4
1770272353902,0.720396,-0.200267,0.573846,92.1675,81.0209,-71.0068,0,0,3.25851,4
1770272353915,0.711148,-0.18476,0.585962,90.496,81.1669,-67.8316,0,0,3.41162,4
1770272353929,0.848043,-0.362334,0.0241643,136.737,147.064,-42.0227,0,0,3.46536,3
1770272353942,0.7642,-0.290515,0.174432,140.46,168.746,-23.2213,0,0,3.24847,5
1770272353956,0.676283,-0.216174,0.301827,159.627,163.174,-19.5076,0,0,3.31192,5
1770272353969,0.627035,-0.159457,0.446732,165.806,160.522,-23.2233,0,0,3.27231,3
1770272353983,0.612662,-0.119736,0.57576,172.815,159.559,-28.459,0,0,3.49357,4
1770272353996,0.58367,-0.0648569,0.677542,171.667,145.524,-48.7333,0,0,3.27873,5
1770272354010,0.518796,-0.0166064,0.552448,171.872,141.182,-56.7216,0,0,3.46166,5
1770272354024,0.522121,0.0868667,0.484853,161.558,142.461,-58.357,0,0,3.27671,4
1770272354037,0.482708,0.142249,0.557977,165.493,143.284,-57.6594,0,0,3.26129,3
1770272354052,0.419018,0.198257,0.596945,166.815,142.195,-52.7954,0,0,4.41525,3
1770272354065,0.381907,0.2356,0.625626,166.587,138.789,-45.3519,0,0,3.26814,3
1770272354079,0.35468,0.254316,0.645344,165.095,136.452,-42.7103,0,0,3.42114,3
1770272354092,0.331784,0.28933,0.689485,161.116,130.546,-41.7979,0,0,3.32084,3
1770272354106,0.304846,0.332967,0.7172,153.676,121.865,-39.8799,0,0,3.46473,3
1770272354119,0.273739,0.384411,0.732974,143.441,115.016,-35.6957,0,0,3.25147,3
1770272354135,0.241881,0.420224,0.744584,128.06,106.119,-34.5349,0,0,3.37831,3
1770272354148,0.403364,0.0233734,0.293892,121.358,109.781,-74.2827,0,0,3.2889,5
1770272354162,0.274512,0.211009,0.478113,122.393,122.226,-57.1452,0,0,3.2589,3
1770272354175,0.178265,0.373406,0.572894,114.853,123.266,-44.6413,0,0,3.30551,3
1770272354189,0.119648,0.476312,0.638968,102.068,112.709,-30.3168,0,0,3.32719,3
1770272354202,0.0922648,0.528093,0.680495,90.1484,100.965,-23.0935,0,0,3.38101,5
1770272354216,0.0753913,0.571558,0.70006,81.662,96.4445,-16.5849,0,0,3.24469,5
1770272354229,0.0451456,0.604961,0.700546,73.0638,91.6993,-11.9757,0,0,3.32056,5
1770272354242,0.0262604,0.620274,0.697359,64.5128,83.6474,-9.17868,0,0,3.25301,5
1770272354257,0.019214,0.625116,0.683419,60.3633,78.8199,-7.11224,0,0,3.39603,5
1770272354270,0.00900674,0.632859,0.660128,58.1702,79.1886,-6.63246,0,0,3.33623,5
1770272354284,-0.00733977,0.634854,0.638622,57.8065,82.2737,-9.70172,0,0,3.27527,5
1770272354297,-0.296057,0.915148,0.875408,18.5445,59.301,-8.68292,0,0,3.31953,2
1770272354311,-0.220255,0.85572,0.838264,11.9134,50.0512,2.27686,0,0,3.26275,2
1770272354324,-0.146508,0.773763,0.754863,9.45291,48.6783,8.24148,0,0,3.3659,2
1770272354338,-0.0997928,0.741984,0.716386,6.68829,42.133,13.4528,0,0,3.24742,2
1770272354351,-0.0818842,0.711182,0.697378,5.80598,38.6619,17.7531,0,0,3.29018,2
1770272354367,-0.0673302,0.696487,0.682294,5.34192,39.8462,21.8384,0,0,3.29097,2
1770272354381,-0.0606142,0.689069,0.669902,4.08699,40.4269,24.6864,0,0,3.41544,5
1770272354394,-0.0712609,0.687982,0.671134,3.66182,32.9158,24.6867,0,0,3.28047,5
1770272354408,-0.0167801,0.662969,0.63274,6.25839,35.7861,27.1105,0,0,3.30018,5
1770272354421,-0.133832,0.408137,0.730377,-1.66088,24.1755,-11.7653,0,0,3.44655,5
1770272354435,-0.12647,0.510058,0.680117,-5.55563,15.7061,-26.1918,0,0,3.30986,5
1770272354448,-0.127255,0.571879,0.652324,-6.81598,12.6507,-30.9318,0,0,3.31379,5
1770272354462,-0.133532,0.602105,0.638949,-6.28585,14.5353,-32.714,0,0,3.25716,5
1770272354475,-0.14377,0.632961,0.630278,-7.8414,17.1531,-32.731,0,0,3.3649,5
1770272354489,-0.141419,0.637893,0.649466,-10.1993,14.8705,-26.6174,0,0,3.30399,5
1770272354503,-0.137811,0.652954,0.642888,-10.9279,13.1452,-21.74,0,0,3.31434,5
1770272354516,-0.141181,0.651423,0.640765,-11.2922,7.2367,-17.0303,0,0,3.27408,5
1770272354529,-0.13757,0.654814,0.642814,-10.6308,2.95423,-9.77851,0,0,3.2684,5
1770272354544,-0.137003,0.658827,0.639318,-11.3498,-3.04579,-3.50758,0,0,4.82644,2
1770272354558,-0.136551,0.649157,0.643548,-12.7131,-6.44274,-0.0400485,0,0,3.26527,2
1770272354571,-0.131801,0.644876,0.652034,-13.4825,-9.01526,3.72807,0,0,3.47923,2
1770272354585,-0.130414,0.640292,0.658705,-14.3214,-10.6412,7.48617,0,0,3.33812,5
1770272354599,-0.124888,0.637787,0.661237,-15.0653,-12.8206,10.6782,0,0,4.00929,2
1770272354614,-0.1321,0.632594,0.66085,-14.4907,-17.2576,16.7818,0,0,3.53597,2
1770272354627,-0.131831,0.641069,0.6634,-16.7835,-24.7319,25.6848,0,0,3.25231,2
1770272354640,-0.120462,0.635312,0.661451,-20.4108,-32.1865,34.9493,0,0,3.26894,5
1770272354654,-0.152963,0.603104,0.659063,-29.1558,-38.8414,24.3525,0,0,3.26236,5
1770272354667,-0.159738,0.607712,0.659105,-38.8489,-51.9474,11.9625,0,0,3.43071,2
1770272354681,-0.161025,0.648542,0.691056,-47.4015,-62.1569,3.80187,0,0,3.3406,2
1770272354694,-0.165962,0.680867,0.723281,-69.7046,-83.7846,10.6719,0,0,3.34271,2
1770272354708,-0.160033,0.698724,0.72848,-87.2111,-99.2091,12.4199,0,0,3.27614,2
1770272354723,-0.161477,0.709747,0.734703,-110.384,-120.414,14.8245,0,0,3.33827,2
1770272354737,-0.119983,0.694955,0.728375,-128.856,-133.692,20.5077,0,0,4.00288,2
1770272354751,-0.0683388,0.655986,0.716355,-144.394,-141.342,26.1851,0,0,3.25597,3
1770272354764,-0.0278498,0.621969,0.717563,-161.586,-149.48,32.1002,0,0,3.26379,3
1770272354777,-0.0035281,0.575124,0.741342,-183.595,-164.053,39.1303,0,0,3.29045,3
1770272354791,0.0458417,0.530367,0.742432,-207.393,-180.053,45.1071,0,0,3.39258,3
1770272354804,0.121082,0.473044,0.73351,-227.349,-189.011,45.7787,0,0,3.25357,3
1770272354819,0.196831,0.399434,0.719213,-238.094,-189.578,48.9237,0,0,4.18768,4
1770272354832,0.284627,0.306364,0.705665,-239.318,-178.934,50.3435,0,0,3.26949,4
1770272354845,0.327937,0.20028,0.697146,-234.625,-168.956,44.668,0,0,3.39345,4
1770272354859,0.373749,0.107887,0.685118,-229.545,-159.001,42.208,0,0,3.3054,4
1770272354873,0.434373,0.0425585,0.667516,-214.463,-142.756,45.7567,0,0,3.52431,4
1770272354886,0.45045,-0.0193074,0.640564,-197.861,-130.462,50.2295,0,0,3.36268,4
1770272354900,0.482371,-0.0776394,0.633064,-178.908,-114.193,53.6491,0,0,3.28844,4
1770272354914,0.504693,-0.108951,0.641283,-166.351,-109.654,50.6719,0,0,4.51196,4
1770272354928,0.533187,-0.14855,0.659852,-148.5,-102.037,44.0955,0,0,3.29645,4
1770272354941,0.558645,-0.177111,0.690924,-133.078,-93.2741,39.2386,0,0,3.69029,4
1770272354955,0.581893,-0.204973,0.707365,-123.642,-88.6256,30.2605,0,0,3.30805,4
1770272354971,0.594012,-0.224166,0.722202,-114.993,-84.1678,17.489,0,0,5.98337,4
1770272354985,0.557795,-0.312315,0.622917,-44.5804,-79.8472,-59.6181,0,0,3.32753,4
1770272354998,0.569889,-0.181795,0.707892,-38.0345,-81.0916,-74.2251,0,0,3.29518,4
1770272355011,0.59007,-0.191973,0.730237,-77.9867,-79.0687,-36.3301,0,0,3.33388,4
1770272355025,0.617016,-0.22317,0.681252,-83.8903,-76.1756,-29.3368,0,0,3.31342,4
1770272355038,0.63527,-0.209779,0.680254,-93.3306,-79.4885,-19.1913,0,0,3.45521,4
1770272355052,0.671213,-0.214042,0.653637,-96.8562,-77.5916,-9.85519,0,0,3.32768,4
1770272355065,0.699264,-0.239345,0.629121,-96.1724,-73.25,-2.18714,0,0,3.36279,4
1770272355079,0.695399,-0.274125,0.593883,-93.8457,-71.1403,1.13926,0,0,3.31764,4
1770272355092,0.693182,-0.320935,0.551677,-87.4801,-69.051,0.0467269,0,0,3.35747,5
1770272355106,0.716511,-0.330683,0.530189,-84.95,-68.0446,18.4012,0,0,3.33471,3
1770272355119,0.726497,-0.362129,0.492347,-75.3872,-63.2093,25.1357,0,0,3.29627,3
1770272355133,0.718124,-0.387994,0.456604,-61.8883,-60.8757,14.503,0,0,3.44997,3
1770272355147,0.741614,-0.402756,0.547021,-78.6159,-82.8081,19.8126,0,0,3.46412,3
1770272355161,0.737271,-0.378468,0.55694,-88.285,-83.2361,36.0666,0,0,3.36092,4
1770272355174,0.775418,-0.426468,0.536016,-91.7723,-79.0455,18.0066,0,0,3.31755,4
1770272355188,0.833398,-0.461558,0.477719,-74.7335,-55.5113,31.6025,0,0,3.36644,4
1770272355201,0.843404,-0.531658,0.422551,-46.298,-34.0381,18.6677,0,0,3.34183,4
1770272355215,0.827434,-0.523727,0.397644,-31.6108,-21.3816,5.35674,0,0,3.26921,3
1770272355229,0.800742,-0.495547,0.38717,-24.6795,-14.3015,-0.768196,0,0,3.42869,4
1770272355242,0.781427,-0.479912,0.396804,-17.9428,-12.9332,-3.20471,0,0,3.29371,4
1770272355256,0.766932,-0.457633,0.394416,-17.4447,-10.5735,2.64955,0,0,3.40605,4
1770272355269,0.769875,-0.447796,0.411338,-16.6994,-10.7829,6.86676,0,0,3.2904,4
1770272355283,0.778498,-0.451717,0.412139,-15.8001,-11.7579,5.70819,0,0,3.40056,4
1770272355296,0.785869,-0.455195,0.39586,-13.9802,-10.5354,4.35028,0,0,3.32999,3
1770272355310,0.78299,-0.457077,0.406492,-9.21911,-8.85932,4.82018,0,0,3.33457,4
1770272355324,0.78088,-0.460647,0.405706,-4.85383,-6.86096,3.91009,0,0,3.32429,3
1770272355338,0.785386,-0.464512,0.403102,-1.12539,-4.03353,2.6955,0,0,3.34538,3
1770272355351,0.78023,-0.459558,0.400556,1.63578,-1.27249,2.62256,0,0,3.29423,3
1770272355364,0.777622,-0.453842,0.397698,2.5011,0.642381,3.50594,0,0,3.28127,3
1770272355378,0.778222,-0.455072,0.397526,2.57879,2.62272,3.51633,0,0,3.45021,4
1770272355392,0.781406,-0.461547,0.396278,4.98405,4.74266,2.78488,0,0,3.30795,4
1770272355405,0.789922,-0.466664,0.393466,9.81264,8.02782,1.72832,0,0,3.34953,3
1770272355419,0.797398,-0.475196,0.387812,18.6888,12.7887,5.37943,0,0,3.33166,4
1770272355432,0.810506,-0.482333,0.388208,29.81,21.1844,9.99124,0,0,3.28803,4
1770272355446,0.819879,-0.489887,0.405867,41.7943,30.7334,9.16356,0,0,3.36123,4
1770272355459,0.831492,-0.495084,0.414838,53.9544,42.2408,6.98254,0,0,3.3289,3
1770272355473,0.836758,-0.501394,0.450246,56.8742,48.6547,4.94929,0,0,3.64762,3
1770272355487,0.845036,-0.497658,0.459237,59.6661,56.8274,-5.58261,0,0,3.3972,3
1770272355500,0.842126,-0.501121,0.499468,58.3903,61.4938,-21.2608,0,0,3.48038,3
1770272355514,0.833612,-0.46206,0.50753,59.7371,68.6591,-29.6953,0,0,3.35653,3
1770272355527,0.808293,-0.441278,0.51113,62.0594,78.2647,-32.5728,0,0,3.30636,4
1770272355541,0.789158,-0.412198,0.513965,64.9839,89.2468,-30.3017,0,0,3.35353,4
1770272355555,0.770844,-0.392662,0.523744,70.0568,102.902,-22.105,0,0,3.37544,4
1770272355568,0.759003,-0.379337,0.547599,75.3299,116.844,-15.8044,0,0,3.57368,4
1770272355582,0.741171,-0.370524,0.563433,81.5581,128.83,-9.77626,0,0,3.31312,4
1770272355597,0.720543,-0.362594,0.572458,86.7943,135.457,-6.15531,0,0,4.68233,4
1770272355611,0.678005,-0.360828,0.569852,91.5727,136.969,-7.73414,0,0,3.38768,4
1770272355625,0.657091,-0.346751,0.574653,93.1146,130.462,-6.75638,0,0,3.38721,4
1770272355639,0.624778,-0.33413,0.584643,98.0344,124.864,-10.5805,0,0,3.31044,4
1770272355653,0.59337,-0.306264,0.611259,104.319,123.161,-14.5345,0,0,3.27886,4
1770272355666,0.558345,-0.27841,0.637873,112.762,126.791,-15.4772,0,0,3.3334,4
1770272355680,0.53753,-0.248727,0.670696,118.114,132.792,-15.1355,0,0,3.31653,4
1770272355693,0.521286,-0.216384,0.6859,125.37,143.587,-8.9151,0,0,3.39375,4
1770272355707,0.484009,-0.190205,0.681663,135.998,153.316,0.649322,0,0,3.29495,4
1770272355720,0.435247,-0.156349,0.685416,143.743,154.532,3.32084,0,0,3.4067,4
1770272355734,0.391622,-0.118878,0.701819,146.73,150.804,2.54592,0,0,3.34112,4
1770272355750,0.346133,-0.0747149,0.737798,146.705,144.52,1.67754,0,0,6.50056,4
1770272355764,0.303296,-0.019609,0.763686,143.219,136.55,1.74335,0,0,3.31618,5
1770272355778,0.262861,0.0410323,0.783535,139.464,132.733,5.34496,0,0,3.81979,4
1770272355795,0.203762,0.0859834,0.790326,133.831,129.206,7.53889,0,0,3.31803,4
1770272355809,0.160676,0.122003,0.809203,127.007,123.691,7.26945,0,0,3.29071,4
1770272355822,0.130489,0.154651,0.82849,119.752,116.12,7.75686,0,0,3.33227,4
1770272355835,0.117677,0.180939,0.846552,113.246,109.129,9.46622,0,0,3.27575,4
1770272355849,0.113478,0.200608,0.852808,107.417,104.95,12.4392,0,0,3.30953,5
1770272355862,0.104836,0.21288,0.866181,101.628,100.349,12.1738,0,0,3.33631,5
1770272355876,0.0882694,0.230027,0.873102,95.0355,96.9531,10.7625,0,0,3.53594,5
1770272355889,0.0575209,0.252489,0.852615,91.3994,94.5873,10.2515,0,0,3.32877,5
1770272355903,0.0195955,0.273988,0.832996,88.1539,89.87,9.39291,0,0,3.4484,5
1770272355917,-0.00570499,0.292334,0.809997,86.7716,85.4464,8.12775,0,0,3.30947,5
1770272355930,-0.00803439,0.306031,0.808182,85.3438,81.7079,7.25853,0,0,3.30143,5
1770272355944,-0.00673038,0.319369,0.819875,83.0765,79.5563,7.1369,0,0,3.35607,5
1770272355957,-0.0246986,0.340436,0.835601,78.9505,77.1293,7.42341,0,0,3.29758,5
1770272355971,-0.0545972,0.367601,0.816566,75.605,74.9578,8.33003,0,0,3.80881,5
1770272355985,-0.0796446,0.381972,0.797092,74.7796,73.7842,8.65356,0,0,3.43499,5
1770272355999,-0.093357,0.399329,0.789842,74.0501,72.5448,9.60159,0,0,4.00129,5
1770272356012,-0.10102,0.416677,0.786676,74.1777,73.2991,10.3351,0,0,3.3009,5
1770272356026,-0.111535,0.433671,0.79068,71.9591,71.2831,10.0722,0,0,3.29203,5
1770272356041,-0.120295,0.451574,0.792812,66.8918,68.1225,8.6315,0,0,5.56241,5
1770272356055,-0.151369,0.468573,0.781148,60.7016,62.6414,6.86537,0,0,3.30716,2
1770272356068,-0.179532,0.480969,0.745674,56.8394,56.7062,5.79528,0,0,3.38506,2
1770272356082,-0.1802,0.488312,0.721771,56.8433,53.5134,6.22207,0,0,3.32012,5
1770272356096,-0.199171,0.487426,0.702583,57.1049,49.6689,4.19882,0,0,3.57188,5
1770272356109,-0.210121,0.497266,0.696655,56.8959,45.6322,1.50399,0,0,3.29629,5
1770272356122,-0.223271,0.516089,0.692413,55.364,40.9001,-1.61442,0,0,3.38097,5
1770272356136,-0.233984,0.530704,0.677795,54.2965,36.6981,-4.70797,0,0,3.33018,5
1770272356149,-0.243046,0.540958,0.678386,52.1025,31.1086,-8.06009,0,0,3.26458,5
1770272356163,-0.247899,0.551475,0.673692,49.4634,26.2986,-10.0949,0,0,3.29921,2
1770272356177,-0.252937,0.561984,0.671117,47.5714,24.1188,-10.6162,0,0,3.45258,2
1770272356191,-0.259407,0.571091,0.658269,45.9613,22.6166,-11.831,0,0,3.38338,2
1770272356205,-0.264084,0.577022,0.625096,47.2135,22.0335,-12.53,0,0,3.28508,2
1770272356219,-0.258338,0.579516,0.607568,50.4655,22.7839,-12.3833,0,0,3.51571,2
1770272356232,-0.256138,0.579368,0.611627,50.4656,21.2736,-12.4321,0,0,3.27003,2
1770272356246,-0.261199,0.590293,0.622628,47.1488,18.3735,-13.9069,0,0,3.26036,2
1770272356259,-0.266546,0.601852,0.63065,42.3149,15.5646,-15.942,0,0,3.30119,2
1770272356273,-0.279161,0.616967,0.628013,36.917,12.9083,-17.4786,0,0,3.29692,2
1770272356286,-0.293816,0.624568,0.60463,33.3478,10.8167,-19.121,0,0,3.28312,2
1770272356299,-0.293775,0.633907,0.577642,31.7541,10.6794,-17.6139,0,0,3.26288,2
1770272356313,-0.267771,0.649608,0.56452,22.2053,27.7328,-13.4367,0,0,3.39144,2
1770272356326,-0.290181,0.636594,0.554088,21.137,40.2748,-18.1497,0,0,3.2857,2
1770272356339,-0.311646,0.650721,0.599435,21.683,23.542,-12.5863,0,0,3.27779,2
1770272356353,-0.313439,0.66241,0.622326,19.6163,17.5725,-11.3351,0,0,3.35916,2
1770272356366,-0.320975,0.676209,0.636578,14.7585,12.1221,-9.20573,0,0,3.27038,2
1770272356380,-0.329571,0.702121,0.636191,8.16553,10.2824,19.5651,0,0,3.35666,5
1770272356393,-0.320307,0.70974,0.645302,3.83467,9.73664,22.1108,0,0,3.27392,2
1770272356407,-0.342875,0.693988,0.645463,1.00894,4.48664,17.0401,0,0,3.65238,2
1770272356421,-0.382635,0.712218,0.631485,-5.26271,-6.9437,14.0468,0,0,3.31358,2
1770272356434,-0.360657,0.72348,0.659337,-4.65807,-6.17414,7.93942,0,0,3.39205,2
1770272356448,-0.36186,0.72852,0.665141,-15.2222,-12.8275,3.82467,0,0,3.29051,2
1770272356461,-0.388259,0.713824,0.661781,-21.9737,-20.6046,-2.53805,0,0,3.27768,2
1770272356475,-0.347561,0.718125,0.656213,-32.6777,-19.7183,-7.09345,0,0,3.34301,2
1770272356488,-0.332988,0.707678,0.666022,-42.522,-16.4546,-3.76428,0,0,3.31316,2
1770272356502,-0.342179,0.69319,0.660422,-50.6313,-24.6013,-0.168401,0,0,3.55918,2
1770272356517,-0.344491,0.682055,0.642134,-55.724,-31.2701,1.44633,0,0,4.444,2
1770272356530,-0.333642,0.654268,0.623576,-58.8315,-21.1389,-1.32263,0,0,3.38482,2
1770272356544,-0.322919,0.653228,0.63843,-68.1295,-30.3901,2.18601,0,0,3.29503,2
1770272356557,-0.320498,0.634631,0.660995,-72.4044,-45.5729,4.22278,0,0,3.26658,2
1770272356571,-0.322269,0.627595,0.689558,-79.1755,-58.7177,4.48162,0,0,3.32092,2
1770272356584,-0.325066,0.627715,0.735177,-91.8015,-75.4467,2.67211,0,0,3.27632,2
1770272356597,-0.360623,0.61336,0.781684,-107.924,-98.2233,-16.5991,0,0,3.42262,2
1770272356611,-0.35694,0.620941,0.778642,-123.427,-115.955,-18.0629,0,0,3.29842,2
1770272356624,-0.378891,0.663329,0.760247,-155.065,-158.653,-2.95893,0,0,3.33253,2
1770272356638,-0.38432,0.569479,0.682493,-166.815,-171.693,9.40603,0,0,3.30255,2
1770272356651,-0.293603,0.490447,0.667581,-158.602,-185.476,17.3786,0,0,3.25742,2
1770272356665,-0.213782,0.440778,0.669644,-155.183,-191.734,14.4603,0,0,3.31147,2
1770272356678,-0.155211,0.384588,0.67158,-146.923,-186.89,5.64236,0,0,3.31731,2
1770272356692,-0.105641,0.353164,0.7309,-146.794,-184.666,-7.12539,0,0,3.36321,2
1770272356705,-0.0448782,0.304922,0.786898,-150.775,-189.616,-18.4635,0,0,3.28323,2
1770272356718,0.0187808,0.265216,0.773329,-154.601,-192.491,-26.1058,0,0,3.34386,2
1770272356732,0.0666308,0.228977,0.757887,-149.392,-183.253,-28.1521,0,0,3.30549,2
1770272356749,0.105122,0.203272,0.760222,-137.318,-166.684,-26.4921,0,0,7.01495,2
1770272356762,0.138921,0.18284,0.781225,-125.537,-154.372,-23.7613,0,0,3.30234,2
1770272356776,0.165771,0.15897,0.776773,-121.005,-151.186,-20.8616,0,0,3.29729,3
1770272356789,0.219562,0.12196,0.782488,-116.552,-150.555,-19.7132,0,0,3.32216,3
1770272356803,0.271663,0.13162,0.876682,-114.402,-153.4,-9.17341,0,0,3.44755,3
1770272356818,0.303699,0.104933,0.897771,-114.472,-153.536,-3.83098,0,0,4.60177,3
1770272356831,0.329155,0.076524,0.860487,-120.988,-155.264,-3.44221,0,0,3.27421,3
1770272356845,0.354589,0.0533945,0.816094,-120.887,-153.983,1.23691,0,0,3.33175,3
1770272356859,0.37677,0.0171223,0.780432,-121.234,-153.152,5.68716,0,0,3.28882,3
1770272356875,0.426341,-0.0240854,0.764282,-120.491,-151.11,6.63366,0,0,5.12142,3
1770272356888,0.47136,-0.0674985,0.756541,-120.852,-148.612,10.8054,0,0,3.29297,3
1770272356901,0.516607,-0.0897607,0.749912,-120.209,-144.783,15.4027,0,0,3.30094,3
1770272356915,0.534185,-0.128363,0.732538,-121.074,-142.88,13.8349,0,0,3.35073,3
1770272356928,0.548615,-0.168616,0.706782,-123.598,-144.585,6.9938,0,0,3.27856,3
1770272356942,0.581403,-0.176169,0.654479,-123.001,-144.193,10.9167,0,0,3.31492,4
1770272356955,0.58399,-0.21985,0.612343,-121.512,-145.871,5.58051,0,0,3.29525,3
1770272356969,0.629033,-0.251643,0.586527,-117.283,-145.443,2.004,0,0,3.72005,3
1770272356982,0.673507,-0.264961,0.570922,-113.015,-141.413,10.3188,0,0,3.35786,4
1770272356996,0.683768,-0.285579,0.553823,-110.844,-138.901,4.96474,0,0,3.3249,4
1770272357011,0.707409,-0.298285,0.522908,-107.513,-134.137,1.8297,0,0,4.98324,4
1770272357024,0.710422,-0.313086,0.483388,-105.52,-131.454,-5.78362,0,0,3.28414,4
1770272357039,0.738771,-0.309465,0.426539,-99.1303,-126.471,-4.79639,0,0,4.52599,4
1770272357053,0.75084,-0.326034,0.382623,-92.4468,-123.888,-1.1272,0,0,3.27088,3
1770272357066,0.744679,-0.386347,0.357413,-80.9142,-115.272,-3.83841,0,0,3.41358,4
1770272357080,0.783933,-0.393127,0.344384,-72.9877,-109.006,4.45866,0,0,3.28494,3
1770272357093,0.776587,-0.412435,0.318267,-68.6503,-103.118,12.7789,0,0,3.37068,3
1770272357107,0.821465,-0.373571,0.307892,-66.8671,-93.1543,21.5269,0,0,3.28919,4
1770272357120,0.906856,-0.477642,0.321438,-59.3801,-62.8825,25.0306,0,0,3.26557,3
1770272357134,0.960517,-0.502708,0.310539,-59.3733,-53.4222,12.8626,0,0,3.35783,3
1770272357148,0.910463,-0.492291,0.27608,-57.137,-54.3179,-9.87784,0,0,3.97253,3
1770272357161,0.856737,-0.418783,0.227203,-52.8395,-58.4605,-20.0229,0,0,3.50188,3
1770272357175,0.83153,-0.3982,0.177905,-48.2404,-61.5241,-22.416,0,0,3.40708,3
1770272357190,0.846753,-0.453038,0.145482,-39.5973,-63.9567,-31.7576,0,0,3.36282,3
1770272357203,0.851538,-0.460241,0.152226,-27.0658,-65.6883,-12.7376,0,0,3.27773,3
1770272357219,0.900002,-0.468188,0.190665,-18.7276,-54.2564,-26.3192,0,0,4.78216,3
1770272357236,0.912037,-0.453957,0.225042,1.6553,-46.4984,-60.8962,0,0,6.71439,3
1770272357252,0.991394,-0.3829,0.325122,-9.40517,-40.0316,-51.1733,0,0,4.07268,3
1770272357265,1.01171,-0.391265,0.24608,-17.4354,-32.9853,-44.537,0,0,3.29207,3
1770272357279,1.0062,-0.384301,0.199291,-12.7635,-26.798,-45.5242,0,0,3.61638,3
1770272357293,0.992784,-0.351843,0.170052,-8.63748,-18.0364,-38.5827,0,0,3.31144,3
1770272357306,1.00263,-0.357952,0.13808,-5.82637,-13.3464,-28.1387,0,0,3.34719,3
1770272357320,0.998276,-0.334322,0.128059,4.25857,-4.42513,-26.2258,0,0,3.34555,3
1770272357333,0.999069,-0.330527,0.127575,3.87356,-3.73547,-15.8801,0,0,3.27893,3
1770272357347,0.997653,-0.32748,0.131988,5.76884,-1.30285,-8.11562,0,0,3.33236,3
1770272357360,0.992983,-0.319314,0.136482,7.33862,1.45545,-4.62651,0,0,3.30114,3
1770272357374,0.97643,-0.307514,0.143564,7.90977,4.80406,-3.0499,0,0,3.63375,3
1770272357388,0.952512,-0.316822,0.139975,12.0045,9.99745,-11.1051,0,0,3.36249,3
1770272357401,0.955006,-0.288772,0.163911,8.61294,11.1209,-0.212856,0,0,3.49977,3
1770272357415,0.961067,-0.294474,0.168863,8.02021,14.6482,8.38594,0,0,3.3039,3
1770272357428,0.953848,-0.30618,0.165044,8.13606,15.389,1.11282,0,0,3.28101,3
1770272357442,0.94633,-0.294275,0.183148,6.90391,14.0151,-1.20695,0,0,3.37925,3
1770272357455,0.952525,-0.285585,0.190217,3.58554,12.2938,6.10645,0,0,3.3137,3
1770272357469,0.964285,-0.300213,0.187494,3.60575,13.2958,7.82803,0,0,3.64253,5
1770272357483,0.967109,-0.301729,0.197992,4.48226,15.6555,12.1965,0,0,3.39538,5
1770272357496,0.963324,-0.300427,0.201143,5.95487,19.6904,14.8807,0,0,3.29721,5
1770272357510,0.967892,-0.309126,0.192144,13.966,30.2956,14.4098,0,0,3.31757,5
1770272357523,0.983156,-0.324067,0.21016,17.9639,39.2241,23.0255,0,0,3.30445,4
1770272357537,1.00695,-0.350536,0.215599,27.2453,52.6273,30.3715,0,0,3.43271,4
1770272357550,1.03857,-0.380729,0.226961,41.1494,69.7297,37.7087,0,0,3.31175,4
1770272357564,1.05379,-0.405179,0.251221,56.6052,89.1969,39.2513,0,0,3.75351,4
1770272357578,1.05542,-0.400315,0.261105,73.8904,107.663,34.5569,0,0,3.31014,4
1770272357592,1.02254,-0.357571,0.260887,87.7391,129.53,38.5456,0,0,3.93751,4
1770272357606,0.961895,-0.309849,0.288037,95.6482,150.555,43.414,0,0,3.31784,4
1770272357619,0.917557,-0.265929,0.343682,91.7172,164.923,58.7032,0,0,3.30247,4
1770272357633,0.867237,-0.277103,0.387439,88.0342,170.664,49.6875,0,0,3.36042,4
1770272357646,0.849464,-0.255673,0.436249,94.0247,181.118,34.4506,0,0,3.32225,4
1770272357660,0.779019,-0.244019,0.534483,103.947,163.032,23.8055,0,0,3.41592,4
1770272357673,0.806495,-0.267066,0.564812,89.115,171.066,30.2539,0,0,3.29316,4
1770272357687,0.798938,-0.27827,0.577366,79.9964,170.14,29.8445,0,0,3.40586,4
1770272357703,0.742221,-0.27479,0.590933,74.2158,173.661,38.4261,0,0,3.29494,4
1770272357719,0.679496,-0.279903,0.601126,73.5964,169.319,36.7168,0,0,5.07059,4
1770272357733,0.633646,-0.278724,0.603032,76.5349,162.942,33.0607,0,0,3.31081,4
1770272357746,0.60667,-0.285751,0.617637,81.7712,160.387,31.2746,0,0,3.72433,4
1770272357760,0.596269,-0.301544,0.649576,85.2559,157.495,30.3396,0,0,3.38099,4
1770272357773,0.58111,-0.304157,0.672171,87.9218,155.251,31.1698,0,0,3.28686,4
1770272357787,0.555987,-0.264551,0.506843,91.0258,149.072,26.7872,0,0,3.40401,4
1770272357800,0.500594,-0.25409,0.557221,109.486,140.09,12.0501,0,0,3.27703,4
1770272357814,0.430146,-0.223324,0.601183,125.339,137.755,0.94489,0,0,3.37823,4
1770272357827,0.408465,-0.184862,0.653536,131.009,137.118,2.34649,0,0,3.29638,4
1770272357841,0.413882,-0.159918,0.729028,127.401,135.666,6.63126,0,0,3.55038,4
1770272357854,0.386745,-0.154493,0.724296,127.655,136.512,1.44922,0,0,3.32862,4
1770272357868,0.355423,-0.100806,0.755196,127.16,130.092,0.419266,0,0,3.30327,4
1770272357881,0.278995,-0.0369653,0.853482,108.305,105.851,1.71345,0,0,3.35625,4
1770272357895,0.231872,-0.0120893,0.805738,108.817,107.487,1.0094,0,0,3.27647,4
1770272357913,0.251049,-0.0279627,0.725244,108.66,109.824,-2.14034,0,0,4.89818,4
1770272357926,0.211401,0.0194903,0.807584,108.815,101.24,0.284792,0,0,3.31171,5
1770272357940,0.212984,0.00104979,0.76605,107.045,105.62,-4.40341,0,0,3.46514,5
1770272357953,0.171667,0.0597127,0.86141,99.4461,89.7986,2.13036,0,0,3.31107,4
1770272357967,0.126785,0.10698,0.873713,96.3337,96.9718,-4.04932,0,0,3.59455,4
1770272357981,0.125708,0.174574,0.92333,78.0104,84.6691,6.81122,0,0,3.30747,4
1770272357994,0.0725378,0.195036,0.895519,81.8716,83.5292,0.504844,0,0,3.27712,5
1770272358007,-0.00549122,0.139945,0.817584,88.8098,87.715,-6.89262,0,0,3.28147,5
1770272358021,-0.0101713,0.201152,0.890283,86.9507,77.827,0.0956767,0,0,3.29221,2
1770272358035,-0.0419508,0.193462,0.830842,92.0364,93.5929,-7.08957,0,0,3.45471,5
1770272358049,-0.0473885,0.257362,0.912173,82.5946,74.6438,-0.311959,0,0,3.36338,5
1770272358064,-0.0646976,0.245628,0.846814,83.6599,81.6387,-5.59491,0,0,3.48238,5
1770272358078,-0.0629481,0.271947,0.862597,68.8872,68.6552,6.29796,0,0,3.51618,5
1770272358091,-0.0677731,0.289974,0.853746,72.665,71.0452,-2.90827,0,0,3.35006,5
1770272358104,-0.0546884,0.319211,0.852964,67.4852,83.9844,-16.7557,0,0,3.3202,5
1770272358118,-0.0720062,0.310859,0.808642,80.5441,89.8739,-26.7213,0,0,3.26882,2
1770272358131,-0.100175,0.336287,0.803551,82.585,85.4942,-30.0553,0,0,3.33614,2
1770272358145,-0.13111,0.36039,0.791626,84.6284,85.0295,-35.9399,0,0,3.29144,2
1770272358158,-0.15726,0.362825,0.778812,82.8524,81.4919,-47.0425,0,0,3.33471,2
1770272358172,-0.185937,0.389228,0.759656,83.472,80.078,-43.7006,0,0,3.31042,2
1770272358185,-0.201191,0.407396,0.754972,83.7474,79.6802,-41.4801,0,0,3.37225,2
1770272358200,-0.217453,0.424654,0.745931,80.6829,79.0768,-43.1523,0,0,4.24809,5
1770272358215,-0.24372,0.44981,0.73217,78.5475,75.2368,-38.9464,0,0,3.96514,2
1770272358228,-0.272647,0.474351,0.724563,75.4226,70.0879,-34.1449,0,0,3.31153,2
1770272358242,-0.304155,0.497185,0.708049,70.1999,66.4943,-30.3969,0,0,3.3319,2
1770272358255,-0.332247,0.5114,0.686955,67.5808,61.5792,-25.3473,0,0,3.38216,2
1770272358268,-0.347214,0.519649,0.675867,67.2828,53.9881,-21.8416,0,0,3.2796,2
1770272358282,-0.355594,0.536138,0.678635,62.6032,46.8719,-16.5238,0,0,3.54497,2
1770272358296,-0.358348,0.548818,0.69187,58.4238,42.31,-18.281,0,0,3.29455,2
1770272358312,-0.362914,0.57235,0.692578,52.0401,41.029,-15.2779,0,0,6.08933,2
1770272358325,-0.378527,0.576693,0.66417,50.1231,40.2817,-11.4748,0,0,3.30838,2
1770272358339,-0.373765,0.566185,0.631682,49.7638,43.2515,-7.61146,0,0,3.36807,2
1770272358352,-0.370884,0.556381,0.621329,49.8476,47.5991,-4.30955,0,0,3.55058,2
1770272358366,-0.370347,0.559448,0.622819,50.1223,49.2194,-1.796,0,0,3.28731,2
1770272358380,-0.379011,0.561678,0.619402,49.8169,46.6669,0.292842,0,0,4.29501,2
1770272358394,-0.391568,0.56897,0.596392,48.3626,44.4136,0.333444,0,0,3.29162,2
1770272358407,-0.405225,0.57225,0.572005,45.8531,42.3328,-1.19206,0,0,3.42714,2
1770272358421,-0.418712,0.584326,0.553118,44.3235,38.2084,-3.26015,0,0,3.29775,2
1770272358434,-0.418883,0.574232,0.529715,45.4785,38.0966,-6.05756,0,0,3.70873,2
1770272358448,-0.415582,0.592595,0.523705,44.2087,42.8651,-3.91427,0,0,3.48457,2
1770272358462,-0.413725,0.588023,0.534105,43.1769,42.1348,-6.35027,0,0,3.27699,2
1770272358475,-0.417082,0.60853,0.529234,39.2144,42.0712,-7.67895,0,0,3.29829,2
1770272358488,-0.410403,0.650904,0.578412,23.0118,24.0242,17.275,0,0,3.28612,2
1770272358502,-0.407865,0.630428,0.520932,-9.288,52.1915,37.2635,0,0,3.42349,2
1770272358516,-0.469737,0.654198,0.505736,11.8827,25.6606,41.6394,0,0,3.32566,5
1770272358529,-0.464923,0.633242,0.451202,22.8574,16.296,23.2395,0,0,3.48812,5
1770272358543,-0.459821,0.644896,0.468159,24.4707,37.0831,7.24954,0,0,3.29366,5
1770272358556,-0.465994,0.64424,0.4891,25.2964,32.1293,-2.28363,0,0,3.31334,5
1770272358569,-0.450101,0.659651,0.510411,21.8619,22.7288,0.476506,0,0,3.31482,5
1770272358583,-0.445761,0.669891,0.524786,13.1943,17.9026,6.44818,0,0,3.2904,5
1770272358596,-0.449449,0.654333,0.453544,10.1659,21.1421,1.45691,0,0,3.40357,5
1770272358610,-0.818032,0.941818,0.64608,-46.0545,-3.1236,-47.512,0,0,3.28373,2
1770272358624,-0.72771,0.850182,0.565319,-53.1379,3.28553,-39.9621,0,0,3.93099,2
1770272358637,-0.64342,0.765311,0.545854,-47.7827,3.53208,-37.4696,0,0,3.30464,2
1770272358651,-0.597899,0.709358,0.507998,-42.8188,-1.44007,-38.3608,0,0,3.32544,2
1770272358664,-0.554342,0.675637,0.503033,-38.8064,0.371569,-37.543,0,0,3.32792,2
1770272358678,-0.541783,0.642015,0.495037,-33.5635,4.67815,-37.0883,0,0,3.30494,2
1770272358691,-0.505123,0.638281,0.529352,-36.3657,1.76656,-26.8419,0,0,3.35684,2
1770272358705,-0.658626,0.592327,0.602016,-29.1218,-4.53657,3.30427,0,0,3.30701,2
1770272358720,-0.686638,0.419131,0.542465,-4.16013,-6.53928,19.2437,0,0,4.7844,2
1770272358733,-0.630094,0.494897,0.597573,-21.9808,-21.7696,8.28599,0,0,3.28742,2
1770272358747,-0.623721,0.480019,0.582209,-23.8835,-32.6787,-0.857005,0,0,3.34069,2
1770272358760,-0.661439,0.451754,0.597977,-60.8654,-85.6714,-29.5468,0,0,3.32407,2
1770272358773,-0.733488,0.407026,0.460192,-68.5281,-87.4388,-7.53677,0,0,3.28656,2
1770272358787,-0.606457,0.40806,0.483287,-46.2106,-55.7957,-0.650065,0,0,3.34477,2
1770272358800,-0.555635,0.494789,0.53913,-59.1969,-52.4017,-6.57694,0,0,3.30503,2
1770272358814,-0.495907,0.505402,0.563246,-67.8084,-46.2657,-12.0366,0,0,3.30319,2
1770272358827,-0.460288,0.496732,0.575749,-63.8469,-38.9687,-12.2397,0,0,3.27279,2
1770272358841,-0.440579,0.420584,0.52552,-23.0685,-14.118,-6.42899,0,0,3.34266,2
1770272358854,-0.436065,0.445886,0.582764,-58.393,-31.1277,-27.1878,0,0,3.33821,2
1770272358868,-0.418736,0.449617,0.629995,-33.6011,-17.2547,-16.3305,0,0,3.38245,2
1770272358881,-0.440852,0.484723,0.640276,-24.1631,-7.45177,-16.3179,0,0,3.39179,2
1770272358895,-0.426706,0.469991,0.650809,-27.8258,1.51076,-27.1857,0,0,3.32331,2
1770272358908,-0.433809,0.462637,0.653808,-24.5732,3.67904,-24.5852,0,0,3.32503,2
1770272358922,-0.435919,0.46369,0.652409,-18.3286,4.43112,-22.6476,0,0,3.39649,2
1770272358936,-0.438759,0.471713,0.632443,-21.2139,7.64686,-28.2131,0,0,3.49145,2
1770272358949,-0.450466,0.466803,0.614995,-35.4848,14.2929,-40.534,0,0,3.29945,2
1770272358963,-0.446258,0.45508,0.608259,-40.3455,16.2304,-51.1449,0,0,3.51807,2
1770272358976,-0.423703,0.464876,0.638834,-40.7872,19.4625,-48.4389,0,0,3.40955,2
1770272358990,-0.447888,0.447196,0.648922,-34.4585,20.4412,-32.25,0,0,3.2961,2
1770272359003,-0.525597,0.431128,0.676912,-35.6033,7.15189,-27.2395,0,0,3.3361,2
1770272359017,-0.632755,0.416442,0.610383,-36.4925,-46.1569,-13.49,0,0,3.30571,2
1770272359030,-0.692077,0.309757,0.503839,-90.0745,-67.6433,-48.0122,0,0,3.49055,2
1770272359044,-0.646967,0.236394,0.687715,-120.014,-24.1003,-36.1359,0,0,3.33807,2
1770272359058,-0.516121,0.531741,0.563962,-107.778,-8.01961,40.4779,0,0,3.43973,2
1770272359071,-0.220748,0.337392,0.393231,-64.3471,17.8528,10.8153,0,0,3.28534,5
1770272359084,-0.144113,0.213895,0.784317,-11.4827,29.5142,54.9534,0,0,3.28832,2
1770272359098,-0.321729,0.330301,0.662428,-3.45509,28.8716,24.5416,0,0,3.3206,2
1770272359111,-0.286148,0.299521,0.65934,-0.861135,20.5389,5.69065,0,0,3.30208,2
1770272359126,-0.314394,0.286853,0.669866,-0.0221707,11.9564,0.997997,0,0,4.65603,2
1770272359140,-0.349489,0.295691,0.686592,-0.0187189,6.28357,0.0638838,0,0,3.53792,2
1770272359154,-0.37892,0.300314,0.698375,-0.131497,2.92423,0.150263,0,0,3.70544,2
1770272359167,-0.398507,0.304679,0.707162,-0.145901,1.17204,0.330856,0,0,3.29482,5
1770272359181,-0.413089,0.308006,0.709127,-0.248523,0.13182,0.451688,0,0,3.40636,5
1770272359194,-0.422447,0.311103,0.712049,-0.242582,-0.598212,0.565539,0,0,3.29725,2
1770272359208,-0.428714,0.312915,0.716637,-0.0754895,-0.917427,0.60338,0,0,3.30794,2
1770272359221,-0.432999,0.312854,0.716169,-0.114081,-1.06177,0.702453,0,0,3.35656,2
1770272359235,-0.432687,0.312902,0.71928,-0.171544,-1.1034,0.755807,0,0,3.28347,2
1770272359248,-0.434062,0.310921,0.716204,-0.0972225,-1.04025,0.721415,0,0,3.32479,2
1770272359262,-0.435031,0.31105,0.716416,-0.0753288,-0.959057,0.666051,0,0,3.28716,2
1770272359275,-0.436703,0.311832,0.716115,-0.0223972,-0.998612,0.67272,0,0,3.56445,2
1770272359289,-0.4397,0.314957,0.717759,0.00788536,-1.01839,0.691322,0,0,3.2894,2
1770272359302,-0.441273,0.313027,0.720476,0.0497442,-1.01683,0.700623,0,0,3.29592,2
1770272359316,-0.440884,0.31485,0.722394,-0.0514638,-1.03132,0.728174,0,0,3.40171,2
1770272359329,-0.439409,0.31497,0.722051,-0.0829838,-0.939322,0.615995,0,0,3.36723,2
1770272359343,-0.4382,0.315047,0.721043,-0.0796598,-1.02691,0.586624,0,0,3.30919,2
1770272359356,-0.438737,0.313173,0.72302,-0.0665475,-1.04399,0.667358,0,0,3.32497,2
1770272359370,-0.436894,0.313719,0.721316,-0.140144,-1.06398,0.631389,0,0,3.52464,2
1770272359384,-0.438336,0.314332,0.719697,-0.0929727,-1.03199,0.670656,0,0,3.48353,2
1770272359397,-0.437774,0.313501,0.721719,-0.130456,-1.11905,0.682656,0,0,3.43292,2
1770272359411,-0.438376,0.31253,0.719518,-0.0117928,-0.967921,0.738275,0,0,3.31149,2
1770272359424,-0.438062,0.313744,0.71968,-0.0364308,-0.995411,0.750817,0,0,3.29895,2
1770272359438,-0.437948,0.313823,0.721096,-0.128902,-0.92137,0.684569,0,0,3.43697,2
1770272359452,-0.436213,0.314136,0.720606,-0.167505,-0.880532,0.712513,0,0,3.33396,2
1770272359465,-0.436499,0.316699,0.719154,-0.0761187,-0.909732,0.764654,0,0,3.66075,2
1770272359479,-0.433709,0.315282,0.719271,-0.0571433,-0.920515,0.638052,0,0,3.37927,2
1770272359492,-0.434717,0.313848,0.71821,-0.0285717,-1.00224,0.715973,0,0,3.35916,2
1770272359506,-0.435539,0.31424,0.717966,-0.0906217,-1.00875,0.712948,0,0,3.32881,2
1770272359520,-0.436504,0.313442,0.71676,-0.00714292,-1.00056,0.688535,0,0,3.29643,2
1770272359533,-0.437123,0.313279,0.717385,-0.011205,-0.897227,0.607626,0,0,3.47153,2
1770272359547,-0.436821,0.315012,0.71735,-0.0208697,-1.00587,0.708393,0,0,3.30869,2
1770272359563,-0.437502,0.313937,0.717501,-0.128755,-0.846444,0.712975,0,0,5.96813,2
1770272359576,-0.437239,0.314209,0.718211,-0.0834617,-0.743833,0.772518,0,0,3.43845,2
1770272359590,-0.438469,0.314559,0.722253,0.0307882,-0.894817,0.794656,0,0,3.43447,2
1770272359604,-0.439784,0.315571,0.722222,-0.0762089,-0.871073,0.740839,0,0,3.35181,2
1770272359617,-0.438004,0.314908,0.723427,-0.0228373,-0.988971,0.687214,0,0,3.41231,2
1770272359631,-0.438523,0.313346,0.723326,0.00384853,-0.960135,0.629866,0,0,3.35012,2
1770272359645,-0.439381,0.312955,0.722736,-0.0171597,-0.819762,0.776765,0,0,3.41038,2
1770272359659,-0.438095,0.315941,0.72297,-0.000946265,-0.88698,0.720444,0,0,3.34871,2
1770272359673,-0.43692,0.315233,0.723995,0.0224276,-0.893872,0.726634,0,0,3.26801,2
1770272359686,-0.437827,0.313991,0.72404,0.0760993,-0.943119,0.649577,0,0,3.47473,2
1770272359700,-0.43666,0.314857,0.720483,0.068584,-0.918124,0.649216,0,0,3.26108,2
1770272359715,-0.435737,0.314799,0.720824,0.0381088,-0.886543,0.633768,0,0,3.30827,2
1770272359729,-0.437855,0.314326,0.716495,0.045772,-0.916554,0.629861,0,0,3.26394,2
1770272359742,-0.437028,0.314546,0.716953,0.0152524,-1.01171,0.658442,0,0,3.88572,2
1770272359756,-0.436498,0.315825,0.715848,-0.0381753,-1.02876,0.703267,0,0,3.33803,2
1770272359770,-0.438431,0.31752,0.718987,-0.030538,-0.918959,0.687511,0,0,3.33536,2
1770272359786,-0.438447,0.317646,0.719077,-0.0267194,-0.944212,0.694901,0,0,3.41158,2
1770272359799,-0.435134,0.316415,0.718697,-0.062978,-0.968289,0.706229,0,0,3.28629,2
1770272359813,-0.435457,0.31405,0.721515,0.0753812,-0.95361,0.730977,0,0,3.38845,2
1770272359827,-0.437151,0.313932,0.723148,0.0758585,-0.915736,0.705183,0,0,3.3451,2
1770272359842,-0.437626,0.316305,0.721485,-0.0193226,-0.809013,0.787706,0,0,4.61138,2
1770272359855,-0.437668,0.317041,0.717969,0.0246898,-0.885423,0.676296,0,0,3.25895,2
1770272359869,-0.437346,0.316989,0.717811,-0.0410902,-0.793856,0.662575,0,0,3.51877,2
1770272359882,-0.437663,0.315555,0.71771,-0.0319955,-0.832043,0.693883,0,0,3.35031,2
1770272359895,-0.439267,0.315685,0.720444,-0.0465321,-0.889304,0.747705,0,0,3.27392,2
1770272359910,-0.438721,0.316031,0.723686,0.0339859,-0.975186,0.648662,0,0,4.48014,2
1770272359923,-0.440383,0.314416,0.723842,-0.0249918,-1.00668,0.683109,0,0,3.29108,2
1770272359937,-0.438388,0.314692,0.724991,0.00277127,-1.05296,0.700333,0,0,3.45079,2
1770272359951,-0.438507,0.315306,0.726954,-0.00243116,-0.961593,0.728029,0,0,3.30542,2
1770272359965,-0.439021,0.314126,0.726464,0.0140516,-1.04187,0.722793,0,0,4.51029,2
1770272359979,-0.438214,0.314418,0.724837,-0.0387757,-1.04765,0.674374,0,0,3.37253,2
1770272359992,-0.436821,0.315043,0.724231,-0.0232047,-0.95894,0.722683,0,0,3.35245,2
1770272360006,-0.437239,0.31282,0.726028,-0.0688542,-0.903134,0.674319,0,0,3.29455,2
1770272360019,-0.435583,0.311831,0.722634,-0.0420607,-0.753094,0.631052,0,0,3.26875,2
1770272360034,-0.435745,0.31347,0.721067,-0.0286639,-0.914715,0.720106,0,0,4.8634,2
1770272360048,-0.436811,0.312598,0.721899,-0.109752,-0.911556,0.695931,0,0,3.37036,2
1770272360062,-0.437058,0.3137,0.722433,-0.0434255,-0.818373,0.691477,0,0,3.57851,2
1770272360075,-0.436866,0.312745,0.718927,-0.0255296,-0.977889,0.685433,0,0,3.29731,2
1770272360089,-0.437006,0.314057,0.720088,-0.0356655,-0.897341,0.724396,0,0,3.55545,2
1770272360102,-0.438058,0.313586,0.716722,0.0165184,-0.952488,0.804946,0,0,3.34999,2
1770272360116,-0.437333,0.314597,0.718061,-0.026092,-0.884641,0.814687,0,0,3.33692,2
1770272360129,-0.439055,0.315857,0.720407,-0.0206796,-0.896519,0.731771,0,0,3.38155,2
1770272360143,-0.43911,0.316229,0.720163,-0.0866757,-0.894824,0.801,0,0,3.5476,2
1770272360158,-0.435822,0.31708,0.719657,-0.0738722,-0.810008,0.839431,0,0,4.91037,2
1770272360171,-0.435024,0.316663,0.722393,-0.0369361,-1.00042,0.774677,0,0,3.27268,2
1770272360185,-0.436873,0.317096,0.721438,-0.0680864,-0.908609,0.734667,0,0,3.36196,2
1770272360199,-0.435873,0.315799,0.725111,-0.0645775,-0.877969,0.733746,0,0,3.28644,2
1770272360212,-0.435581,0.317241,0.724581,-0.0780903,-0.893183,0.763819,0,0,3.38642,2
1770272360226,-0.434344,0.318429,0.726603,0.00675638,-0.820637,0.817024,0,0,3.28958,2
1770272360239,-0.432326,0.315518,0.723352,-0.103492,-0.994288,0.767291,0,0,3.30677,2
1770272360252,-0.434442,0.315224,0.725202,0.0131395,-0.833022,0.677538,0,0,3.34382,2
1770272360266,-0.435275,0.313198,0.722103,-0.0201478,-0.874526,0.708998,0,0,3.28455,2
1770272360283,-0.434323,0.313473,0.722914,-0.0291579,-0.937263,0.67511,0,0,3.41395,2
1770272360296,-0.435024,0.312775,0.722647,-0.0222125,-0.781609,0.703967,0,0,3.2924,2
1770272360311,-0.435998,0.312151,0.723,0.0308785,-0.814468,0.64206,0,0,3.34851,2
1770272360325,-0.434612,0.311839,0.720603,0.0154392,-0.922501,0.748511,0,0,3.28655,2
1770272360339,-0.435647,0.310939,0.7244,0.0344372,-0.903999,0.744484,0,0,4.05538,2
1770272360352,-0.435611,0.314384,0.723688,-0.0209494,-0.845129,0.723387,0,0,3.3321,2
1770272360366,-0.435588,0.314497,0.722443,0.0276933,-0.78516,0.785358,0,0,3.4106,2
1770272360380,-0.436273,0.313956,0.721558,0.0520146,-0.869679,0.762908,0,0,3.5447,2
1770272360393,-0.437237,0.314834,0.7244,-0.00834386,-0.873771,0.744049,0,0,3.31164,2
1770272360407,-0.43567,0.31566,0.720889,0.0721639,-0.959786,0.73462,0,0,3.42344,2
1770272360420,-0.436763,0.313216,0.71986,-0.0822386,-0.949359,0.741356,0,0,3.30027,2
1770272360434,-0.437727,0.312872,0.719637,-0.0640201,-0.947962,0.702739,0,0,3.9566,2
1770272360448,-0.438957,0.314925,0.719932,-0.0968955,-0.954897,0.694881,0,0,3.38547,2
1770272360462,-0.438085,0.314144,0.719333,-0.0751653,-0.851494,0.717669,0,0,3.5167,2
1770272360475,-0.436389,0.317316,0.719037,-0.0643002,-0.834144,0.782499,0,0,3.30199,2
1770272360490,-0.435912,0.315853,0.71631,-0.0168829,-0.894171,0.730944,0,0,3.30814,2
1770272360503,-0.435781,0.314914,0.716572,-0.000807879,-0.78678,0.731884,0,0,3.37521,2
1770272360517,-0.433773,0.315449,0.720064,-0.072923,-0.847589,0.70182,0,0,3.2854,2
1770272360530,-0.436245,0.31378,0.717494,-0.0135607,-0.908527,0.732589,0,0,3.5517,2
1770272360544,-0.436083,0.312447,0.717856,0.0810059,-0.977164,0.74034,0,0,3.35462,2
1770272360558,-0.436853,0.31369,0.718002,0.0328694,-0.950414,0.660247,0,0,3.39099,2
1770272360571,-0.435773,0.313789,0.71862,0.00880109,-0.921772,0.624016,0,0,3.30636,2
1770272360585,-0.437441,0.312365,0.717354,0.00440054,-0.850199,0.621169,0,0,3.28896,2
1770272360598,-0.437725,0.31355,0.717942,-0.0207005,-0.894565,0.711348,0,0,3.31662,2
1770272360612,-0.436944,0.314923,0.722167,-0.109587,-0.874763,0.798422,0,0,3.29329,2
1770272360626,-0.437406,0.314842,0.724092,-0.0204423,-0.956466,0.746539,0,0,4.45099,2
1770272360640,-0.436303,0.316102,0.721566,0.0164964,-0.947699,0.751132,0,0,3.31169,2
1770272360653,-0.435857,0.317173,0.722831,-0.0299197,-0.947132,0.734345,0,0,3.37797,2
1770272360667,-0.435046,0.31235,0.725917,0.431605,-0.454482,0.58473,0,0,3.30768,2
1770272360681,-0.436188,0.318264,0.717664,-0.391068,-1.29213,0.933586,0,0,3.99305,2
1770272360694,-0.44278,0.318036,0.724001,-0.180267,-1.05064,1.02404,0,0,3.29421,2
1770272360708,-0.435116,0.314303,0.716697,0.0587216,-0.914635,0.863168,0,0,3.28155,2
