timestamp,ax,ay,az,gx,gy,gz,delay_ms,classe_prevista,tempo_s,Fase
1774299874496,-0.0,0.660213,0.00374474,0.0596732,0.035181300000000006,0.0065781500000000005,3.86749,-1,0.0,0
1774299874510,0.00900232,0.794442,0.00478798,0.0713621,0.037048899999999996,0.0056406699999999995,3.40758,-1,0.014,0
1774299874524,0.013007,0.854798,0.00937187,0.0779354,0.034455,0.00312712,3.29026,-1,0.028,0
1774299874537,0.0197819,0.891636,0.0150455,0.0851895,0.028797100000000003,0.0006619800000000001,3.26076,-1,0.041,0
1774299874550,0.0232947,0.910912,0.0193873,0.0913177,0.020853700000000003,0.000431124,3.25767,-1,0.054,0
1774299874564,0.0200164,0.924802,0.0242843,0.0943582,0.0135362,0.000986684,3.26682,-1,0.068,0
1774299874577,0.0131095,0.934158,0.0279905,0.09721460000000001,0.0108724,-1.9682e-05,3.25791,-1,0.081,0
1774299874591,0.00840095,0.939672,0.0323006,0.0984404,0.011151500000000002,-0.00265468,3.25919,-1,0.095,0
1774299874604,0.00590665,0.94618,0.036881,0.0997732,0.0119924,-0.0043222899999999995,3.25407,-1,0.108,0
1774299874617,0.00446928,0.950489,0.0398186,0.101409,0.011022700000000002,-0.00468361,3.3256,0,0.121,0
1774299874631,0.000672107,0.953681,0.0426476,0.10129300000000001,0.00956732,-0.00437078,3.26508,0,0.135,0
1774299874644,-0.00489991,0.955484,0.0452088,0.0994561,0.00912523,-0.00325544,3.25537,0,0.148,0
1774299874657,-0.0100166,0.95685,0.0474645,0.09669570000000001,0.010529,-0.00204477,3.27872,0,0.161,0
1774299874671,-0.0132094,0.959226,0.0495729,0.0940645,0.0129585,-0.00129384,3.2515,5,0.175,0
1774299874684,-0.01556,0.960537,0.0505238,0.0913241,0.0153451,-0.0006353490000000001,3.26385,5,0.188,0
1774299874698,-0.0192005,0.961732,0.0519997,0.0878787,0.0184775,0.00088588,3.51722,5,0.202,0
1774299874711,-0.0237795,0.961941,0.052592,0.08368439999999999,0.022466200000000002,0.00242368,3.26722,5,0.215,0
1774299874724,-0.0296021,0.962114,0.0525221,0.0786609,0.028481100000000002,0.00434266,3.27667,5,0.228,0
1774299874738,-0.0330417,0.962239,0.0525966,0.0728844,0.0365055,0.00569589,3.27648,5,0.242,0
1774299874751,-0.0328884,0.964415,0.0524418,0.0682311,0.0436321,0.00786335,3.30037,5,0.255,0
1774299874765,-0.0327051,0.965392,0.0513202,0.0644379,0.0486742,0.0114224,3.27693,1,0.269,0
1774299874778,-0.0342509,0.966779,0.0499266,0.059939099999999995,0.0532693,0.014815400000000001,3.28987,1,0.282,0
1774299874791,-0.0358657,0.967836,0.0489594,0.0556986,0.058676700000000005,0.0171096,3.27567,1,0.295,0
1774299874805,-0.0361892,0.968759,0.0474216,0.0515831,0.06430860000000001,0.0194221,3.32999,1,0.309,0
1774299874818,-0.0341326,0.969825,0.0459573,0.046805000000000006,0.0684351,0.0220704,3.29352,1,0.322,0
1774299874831,-0.0312778,0.972069,0.0451267,0.0422763,0.0704557,0.024678900000000004,3.2798,1,0.335,0
1774299874845,-0.0294703,0.974135,0.044124,0.0378819,0.0706241,0.026683500000000002,3.28443,1,0.349,0
1774299874858,-0.0282461,0.975988,0.043551,0.0333884,0.07039640000000001,0.0283296,3.27596,1,0.362,0
1774299874872,-0.0270881,0.977698,0.0427059,0.0295938,0.0702394,0.029931600000000003,3.27374,1,0.376,0
1774299874885,-0.0256242,0.978667,0.0421943,0.0257902,0.06934560000000001,0.0315169,3.28135,1,0.389,0
1774299874898,-0.0234771,0.979769,0.0415689,0.022007099999999998,0.0679451,0.032630900000000004,3.304,1,0.402,0
1774299874912,-0.0208842,0.981272,0.0409449,0.0186002,0.06570430000000001,0.0331777,3.30415,1,0.416,0
1774299874925,-0.0179686,0.982167,0.0400259,0.0155097,0.0624346,0.0338192,3.26348,1,0.429,0
1774299874938,-0.0158631,0.982871,0.0389832,0.0120799,0.058445000000000004,0.0342021,3.27204,1,0.442,0
1774299874952,-0.0149796,0.983548,0.03801,0.00839844,0.0549968,0.0341841,3.25824,1,0.456,0
1774299874965,-0.0146522,0.984545,0.0370785,0.00497049,0.0524239,0.033721100000000004,3.26374,1,0.469,0
1774299874978,-0.0134594,0.985053,0.0354974,0.0018355,0.0507433,0.0324984,3.26122,1,0.482,0
1774299874992,-0.0120331,0.986081,0.0343872,-0.00132483,0.0492829,0.030998500000000002,3.26524,5,0.496,0
1774299875005,-0.0104657,0.987204,0.0329835,-0.00363884,0.0477876,0.0292035,3.31271,5,0.509,0
1774299875019,-0.00817804,0.98837,0.0314938,-0.00534332,0.045765700000000006,0.027698900000000002,3.27109,5,0.523,0
1774299875032,-0.00654497,0.988916,0.0301582,-0.00654598,0.0433319,0.026287699999999997,3.29004,5,0.536,0
1774299875045,-0.00587654,0.988373,0.02823,-0.00819972,0.0406283,0.0246291,3.27448,5,0.549,0
1774299875059,-0.00606501,0.988713,0.0269984,-0.010568500000000002,0.0391555,0.022077700000000002,3.27276,5,0.563,0
1774299875072,-0.00505731,0.989914,0.0259602,-0.0112385,0.0385098,0.019011800000000002,3.27246,5,0.576,0
1774299875085,-0.00310344,0.99089,0.0249836,-0.0110774,0.0376245,0.0160676,3.27632,5,0.589,0
1774299875099,-6.4096e-05,0.991666,0.024076,-0.0113017,0.035337600000000004,0.012887299999999999,3.274,5,0.603,0
1774299875112,0.00239035,0.992228,0.0230688,-0.0110769,0.0314331,0.00974345,3.2976,5,0.616,0
1774299875126,0.0045749,0.992851,0.0220874,-0.01014,0.0263851,0.00657752,3.28317,5,0.63,0
1774299875139,0.00614233,0.992865,0.0213164,-0.00853243,0.0208849,0.00354568,3.27215,5,0.643,0
1774299875152,0.00833515,0.99254,0.0205924,-0.00686172,0.014816000000000001,0.000527832,3.28398,5,0.656,0
1774299875166,0.0114067,0.99284,0.0200656,-0.00495915,0.007371379999999999,-0.0027741500000000004,3.26997,5,0.67,0
1774299875179,0.0153476,0.992224,0.0199547,-0.00284225,-0.0017274900000000001,-0.0059396499999999994,3.27654,5,0.683,0
1774299875192,0.018792,0.992494,0.0191648,-0.000665118,-0.0125925,-0.00869289,3.27309,5,0.696,0
1774299875206,0.0219049,0.993131,0.0182917,0.0026392700000000004,-0.0246116,-0.011775500000000001,3.65134,5,0.71,0
1774299875220,0.0249621,0.994811,0.0168629,0.00671014,-0.0373411,-0.015186,3.28339,5,0.724,0
1774299875233,0.0288753,0.996198,0.0148502,0.0117187,-0.051737700000000005,-0.0189789,3.27206,5,0.737,0
1774299875246,0.0372681,0.997825,0.011913,0.0169677,-0.069609,-0.023918300000000003,3.29508,5,0.75,0
1774299875260,0.0471594,1.00155,0.0100154,0.0240489,-0.09542410000000001,-0.0297674,3.27691,5,0.764,0
1774299875273,0.050436,1.00481,0.00821422,0.0362016,-0.12640700000000002,-0.034857,3.26659,5,0.777,0
1774299875286,0.0471648,1.0048,0.00581524,0.0503754,-0.15587199999999998,-0.0398653,3.27174,5,0.79,0
1774299875300,0.0419303,1.00508,0.00215658,0.0634368,-0.179335,-0.0436818,3.28032,5,0.804,0
1774299875313,0.0387162,1.00217,-0.00265081,0.0735918,-0.19809200000000002,-0.0433506,3.31275,5,0.817,0
1774299875327,0.0342372,0.998455,-0.00677027,0.0776864,-0.213511,-0.0420733,3.27345,5,0.831,0
1774299875340,0.0269063,0.999104,-0.00887925,0.07920110000000001,-0.223855,-0.0452151,3.29611,5,0.844,0
1774299875353,0.0184521,1.00049,-0.0111843,0.0822723,-0.225838,-0.0500918,3.28228,5,0.857,0
1774299875367,0.011619,0.998124,-0.0150506,0.0838034,-0.22158000000000003,-0.0529069,3.27809,5,0.871,0
1774299875380,0.00458504,0.999387,-0.0177474,0.0825485,-0.212611,-0.0550365,3.28595,5,0.884,0
1774299875393,-0.000421047,1.00111,-0.019724,0.0833781,-0.198945,-0.0589789,3.27985,5,0.897,0
1774299875407,-0.00404757,1.00225,-0.0217739,0.0851167,-0.18249500000000002,-0.062387,3.64577,5,0.911,0
1774299875420,-0.00601327,1.00254,-0.0234116,0.0867918,-0.165521,-0.0639282,3.26428,5,0.924,0
1774299875434,-0.00781708,1.00037,-0.0246876,0.08633350000000001,-0.14888400000000002,-0.0642861,3.31389,5,0.938,0
1774299875447,-0.0103124,1.00192,-0.0240759,0.0842688,-0.13256500000000002,-0.06592200000000001,3.26115,5,0.951,0
1774299875461,-0.0129546,1.00331,-0.0228272,0.0854343,-0.11607900000000002,-0.0676887,3.26965,5,0.965,0
1774299875474,-0.0147523,1.00301,-0.0220618,0.08671430000000001,-0.100411,-0.06682890000000001,3.27667,5,0.978,0
1774299875487,-0.0147799,1.00273,-0.0210947,0.0868858,-0.08659560000000001,-0.0647195,3.26998,5,0.991,0
1774299875501,-0.0126127,1.0024,-0.0195067,0.08676500000000001,-0.0760315,-0.062947,3.2713,5,1.005,0
1774299875514,-0.0106906,1.00205,-0.0177747,0.0863511,-0.06884030000000001,-0.060944200000000004,3.30452,5,1.018,0
1774299875527,-0.0105645,1.00109,-0.0156375,0.08548510000000001,-0.0633161,-0.0589254,3.30058,1,1.031,0
1774299875541,-0.0126684,0.999611,-0.0135194,0.08381970000000001,-0.056748700000000006,-0.056951400000000006,3.27726,1,1.045,0
1774299875554,-0.014958,0.998366,-0.0121573,0.0811814,-0.0484171,-0.0552937,3.27641,1,1.058,0
1774299875568,-0.0151476,0.995893,-0.0114111,0.0768625,-0.0401891,-0.053682,3.27935,1,1.072,0
1774299875581,-0.0144522,0.99417,-0.0106976,0.0703021,-0.0332108,-0.052447600000000004,3.27283,1,1.085,0
1774299875594,-0.014418,0.993997,-0.00923511,0.0640842,-0.0272151,-0.05108120000000001,3.27943,1,1.098,0
1774299875608,-0.0150267,0.993394,-0.00784748,0.0588019,-0.0218514,-0.0487423,3.29921,1,1.112,0
1774299875621,-0.0161964,0.992177,-0.00671309,0.053790199999999996,-0.016330400000000002,-0.045100100000000004,3.32221,1,1.125,0
1774299875634,-0.0172721,0.988939,-0.00704974,0.047312599999999996,-0.010917900000000001,-0.0418335,3.27854,1,1.138,0
1774299875648,-0.0199889,0.980821,-0.00950876,0.0329338,-0.0057534,-0.0392042,3.28871,1,1.152,0
1774299875661,-0.0253968,0.974448,-0.0092422,0.00935845,0.0026841,-0.0368979,3.28037,1,1.165,0
1774299875675,-0.02873,0.977255,-0.00611327,-0.012397499999999999,0.014870399999999999,-0.0365709,3.27167,1,1.179,0
1774299875688,-0.027366,0.981679,-0.0039975,-0.0259272,0.0267413,-0.036493500000000005,3.28013,1,1.192,0
1774299875701,-0.0224829,0.984137,-0.00344867,-0.0357133,0.0347518,-0.035337,3.27824,1,1.205,0
1774299875715,-0.0181448,0.983303,-0.00501765,-0.047202799999999996,0.038142100000000005,-0.033671700000000006,3.31556,1,1.219,0
1774299875728,-0.0177355,0.98335,-0.00447765,-0.0598419,0.0397922,-0.0317358,3.27121,1,1.232,0
1774299875741,-0.0192774,0.986343,-0.00276497,-0.0685347,0.0428184,-0.030036900000000002,3.31525,1,1.245,0
1774299875755,-0.0195769,0.98772,-0.00135158,-0.0719226,0.0466083,-0.0281893,3.28039,2,1.259,0
1774299875768,-0.0186884,0.99018,-0.000363222,-0.0757499,0.049410600000000006,-0.025225,3.27454,2,1.272,0
1774299875782,-0.0121782,0.992308,0.00391417,-0.0665894,0.047619499999999995,-0.0289484,3.30549,2,1.286,0
1774299875795,-0.0181924,0.991598,0.00342254,-0.0655218,0.051298500000000004,-0.0238347,3.2778,2,1.299,0
1774299875808,-0.0159441,0.993866,0.00481072,-0.0625101,0.0560429,-0.014263600000000001,3.278,2,1.312,0
1774299875822,-0.0107291,0.994978,0.00394883,-0.0568242,0.0548347,-0.0113568,3.28811,2,1.326,0
1774299875835,-0.00723755,0.990574,0.00248389,-0.057122200000000005,0.0510694,-0.0101502,3.29197,2,1.339,0
1774299875848,-0.00587441,0.992545,0.00374217,-0.0597972,0.0471386,-0.00761545,3.26685,5,1.352,0
1774299875862,-0.00457092,0.995317,0.00491336,-0.0568326,0.044366,-0.00380128,3.26937,5,1.366,0
1774299875875,-0.00182943,0.995436,0.00438876,-0.053400600000000006,0.0406912,-0.00178108,3.27156,2,1.379,0
1774299875889,0.000728032,0.995785,0.00455987,-0.050516500000000006,0.0367217,-0.000550752,3.26754,2,1.393,0
1774299875902,0.0027251,0.996205,0.0048196,-0.0474003,0.0328206,0.00161253,3.28363,2,1.406,0
1774299875915,0.00507261,0.996349,0.0050039,-0.044270500000000004,0.0286717,0.00366303,3.49511,5,1.419,0
1774299875929,0.00817167,0.997096,0.0050947,-0.0406911,0.024258799999999997,0.00437388,3.28526,5,1.433,0
1774299875942,0.0113487,0.996412,0.00418848,-0.0372782,0.0190315,0.00512622,3.3141,5,1.446,0
1774299875956,0.0129452,0.995074,0.00366359,-0.0362234,0.0136778,0.00653002,3.28661,5,1.46,0
1774299875969,0.0124218,0.995375,0.00407996,-0.0358614,0.00976336,0.006758920000000001,3.29624,5,1.473,0
1774299875982,0.0114193,0.996154,0.0043927,-0.0341282,0.00789261,0.006097190000000001,3.27572,5,1.486,0
1774299875996,0.0125536,0.996279,0.00385889,-0.0323252,0.00709877,0.005271329999999999,3.28059,5,1.5,0
1774299876009,0.014407,0.996207,0.00334844,-0.030623300000000003,0.006165350000000001,0.00531392,3.27289,5,1.513,0
1774299876023,0.016094,0.996085,0.00322335,-0.028785699999999997,0.00519865,0.005414060000000001,3.30228,5,1.527,0
1774299876036,0.0166287,0.996042,0.0028795,-0.0265972,0.00444032,0.00429253,3.28235,5,1.54,0
1774299876049,0.0168197,0.99582,0.00230511,-0.024582899999999998,0.0038101600000000004,0.00294275,3.27789,5,1.553,0
1774299876063,0.0161695,0.994946,0.00121129,-0.023657900000000003,0.00374202,0.00225529,3.27545,5,1.567,0
1774299876076,0.0155371,0.994879,0.00078461,-0.022874699999999998,0.00436281,0.00116108,3.27024,5,1.58,0
1774299876089,0.0147081,0.994718,0.000590135,-0.0217971,0.0063275300000000005,0.000316655,3.27363,5,1.593,0
1774299876103,0.0154316,0.994885,0.000724486,-0.0207671,0.008567420000000001,-0.000309132,3.30473,5,1.607,0
1774299876117,0.0167747,0.994938,0.00038316,-0.019598,0.00955981,-0.00133657,3.92234,5,1.621,0
1774299876130,0.0172903,0.995181,0.000451821,-0.018306,0.00989708,-0.00218648,3.27061,5,1.634,0
1774299876144,0.0174203,0.995093,0.000570865,-0.016684,0.010031300000000002,-0.00262048,3.28845,5,1.648,0
1774299876157,0.0169254,0.994496,0.000620639,-0.015123,0.0101666,-0.0023536000000000004,3.27448,5,1.661,0
1774299876170,0.0165802,0.994117,0.00046537,-0.0139878,0.010371300000000002,-0.00205887,3.3095,5,1.674,0
1774299876184,0.0163142,0.99368,0.000316893,-0.012942,0.0102392,-0.0023801300000000003,3.29271,5,1.688,0
1774299876197,0.0165724,0.994032,0.000548607,-0.0115652,0.00977187,-0.00240077,3.27324,5,1.701,0
1774299876210,0.0170221,0.994047,0.000503261,-0.00967474,0.00846157,-0.00187217,3.27743,5,1.714,0
1774299876224,0.016662,0.99451,0.000331772,-0.00766338,0.00692932,-0.00100499,3.29195,5,1.728,0
1774299876237,0.0156558,0.99443,-0.000366069,-0.0063557399999999995,0.005846980000000001,-0.00020785200000000002,3.26602,5,1.741,0
1774299876251,0.0152594,0.994332,-0.00063834,-0.00560102,0.005527570000000001,0.000634489,3.32434,5,1.755,0
1774299876264,0.0152433,0.994014,-0.000396883,-0.0048972,0.00544874,0.00172075,3.28193,5,1.768,0
1774299876277,0.0153668,0.994126,-0.000924054,-0.00395453,0.00575541,0.0026647199999999998,3.28417,5,1.781,0
1774299876291,0.0148976,0.994223,-0.00125734,-0.00326171,0.0063189200000000004,0.00321748,3.26896,5,1.795,0
1774299876304,0.0152284,0.994262,-0.00186432,-0.00286894,0.0072105,0.00346947,3.27813,5,1.808,0
1774299876317,0.0154699,0.994054,-0.00242341,-0.00306769,0.007679550000000001,0.0039299800000000005,3.268,5,1.821,0
1774299876331,0.0156582,0.994955,-0.00253097,-0.0027200600000000003,0.00823361,0.00411632,3.30463,5,1.835,0
1774299876344,0.0167138,0.99573,-0.00311428,-0.0021307300000000004,0.00857248,0.00423225,3.28054,5,1.848,0
1774299876358,0.0180862,0.996547,-0.00333043,-0.000970722,0.00850697,0.004649980000000001,3.26309,5,1.862,0
1774299876371,0.019452,0.996666,-0.00393217,0.00022698599999999998,0.007884210000000001,0.005057120000000001,3.26298,5,1.875,0
1774299876384,0.0195729,0.997015,-0.00451826,0.00145171,0.00788728,0.00472207,3.30812,5,1.888,0
1774299876398,0.0199555,0.997252,-0.00547378,0.00307446,0.00898633,0.003725,3.30245,5,1.902,0
1774299876411,0.0213142,0.99686,-0.00633412,0.00410093,0.00986531,0.00294657,3.27402,5,1.915,0
1774299876425,0.0231261,0.998011,-0.006292,0.005262510000000001,0.0101597,0.00229744,3.29441,5,1.929,0
1774299876438,0.0245384,0.998301,-0.00700979,0.00702261,0.009846770000000001,0.00108954,3.27182,5,1.942,0
1774299876451,0.0245116,0.998343,-0.00669256,0.00846562,0.00945287,-0.000179059,3.28041,5,1.955,0
1774299876465,0.0236318,0.998608,-0.00656003,0.0102345,0.00974476,-0.00155206,3.27387,5,1.969,0
1774299876478,0.0226837,0.998327,-0.00663616,0.011514400000000001,0.0107525,-0.00299791,3.30523,5,1.982,0
1774299876491,0.0228021,0.997674,-0.00677302,0.0116693,0.011874899999999999,-0.0045724599999999995,3.29176,5,1.995,0
1774299876505,0.0229367,0.997456,-0.0062526,0.011519999999999999,0.0122793,-0.006358430000000001,3.2741,5,2.009,0
1774299876518,0.0222966,0.997802,-0.00555208,0.011678800000000001,0.012716700000000001,-0.00795858,3.28287,1,2.022,0
1774299876532,0.0211934,0.997717,-0.00512777,0.0119614,0.0133564,-0.009588870000000001,3.29908,1,2.036,0
1774299876545,0.019722,0.997688,-0.00554413,0.011281900000000001,0.0144698,-0.010917900000000001,3.34467,1,2.049,0
1774299876558,0.0184538,0.996231,-0.00706336,0.00810993,0.015370900000000002,-0.012318,3.29926,1,2.062,0
1774299876572,0.0171343,0.993651,-0.00876172,0.000838299,0.0160374,-0.014089100000000002,3.27761,1,2.076,0
1774299876585,0.0156483,0.989754,-0.00962775,-0.0114506,0.0172016,-0.0153027,3.28552,1,2.089,0
1774299876599,0.0167576,0.981778,-0.0127941,-0.0324017,0.0163652,-0.0190859,3.28058,1,2.103,0
1774299876612,0.0157152,0.975454,-0.0128005,-0.0648306,0.013691700000000001,-0.030471300000000003,3.29552,1,2.116,0
1774299876626,0.0116967,0.980083,-0.00993448,-0.09785970000000001,0.0163406,-0.0466988,3.30393,1,2.13,0
1774299876639,0.00977582,0.991214,-0.00707637,-0.11850300000000001,0.022767400000000004,-0.058230899999999995,3.34151,1,2.143,0
1774299876653,0.0100316,0.999595,-0.0067669,-0.126495,0.0296088,-0.0635112,3.29613,1,2.157,0
1774299876666,0.0102869,1.00378,-0.00683398,-0.129321,0.035518299999999996,-0.06903480000000001,3.286,1,2.17,0
1774299876679,0.00905762,1.00731,-0.00560622,-0.128875,0.041537300000000006,-0.0765565,3.28891,1,2.183,0
1774299876693,0.00760449,1.00755,-0.00461366,-0.12726800000000002,0.0478653,-0.0801066,3.27769,1,2.197,0
1774299876706,0.00694095,1.00925,-0.00262886,-0.127447,0.0526009,-0.0787562,3.30193,1,2.21,0
1774299876720,0.00717125,1.01414,0.000625119,-0.12378399999999999,0.0550284,-0.0762868,3.3374,1,2.224,0
1774299876733,0.00801073,1.01939,0.00408913,-0.113492,0.0539542,-0.0739003,3.31167,1,2.237,0
1774299876746,0.00682761,1.02202,0.00694254,-0.09852380000000001,0.0508978,-0.0685347,3.30104,1,2.25,0
1774299876760,0.00492748,1.02255,0.0105894,-0.081462,0.0470794,-0.0610722,3.32693,1,2.264,0
1774299876773,0.00230969,1.02387,0.0151978,-0.0618248,0.043672199999999994,-0.0537543,3.304,1,2.277,0
1774299876787,-0.000620695,1.02366,0.0203734,-0.0384762,0.0413124,-0.04306600000000001,3.27939,1,2.291,0
1774299876800,-0.00318804,1.02303,0.0254935,-0.012001200000000002,0.0393933,-0.0299286,3.29058,1,2.304,0
1774299876813,-0.00637981,1.02113,0.0292473,0.0172619,0.038673700000000005,-0.0193735,3.27519,1,2.317,0
1774299876827,-0.00928251,1.01603,0.0317051,0.0459884,0.0398871,-0.0132599,3.67164,1,2.331,0
1774299876841,-0.0113429,1.0072,0.0334042,0.0690143,0.0411609,-0.010555000000000002,3.28858,1,2.345,0
1774299876854,-0.0156088,0.99984,0.0364063,0.0860686,0.045514599999999995,-0.0103183,3.28082,1,2.358,0
1774299876867,-0.0212576,0.994455,0.038818,0.099306,0.054663899999999994,-0.011495100000000001,3.30319,1,2.371,0
1774299876881,-0.0256877,0.990982,0.0404196,0.111583,0.0678345,-0.013714900000000002,3.30528,1,2.385,0
1774299876894,-0.0258028,0.988194,0.0399011,0.122973,0.0826428,-0.0158102,3.30706,1,2.398,0
1774299876908,-0.0221226,0.985967,0.0382949,0.132402,0.09588390000000001,-0.0161865,3.27572,1,2.412,0
1774299876921,-0.0165427,0.985662,0.0368124,0.141863,0.105479,-0.0146876,3.27793,1,2.425,0
1774299876934,-0.0102887,0.979114,0.0315937,0.147835,0.10849500000000001,-0.011744300000000001,3.29943,1,2.438,0
1774299876948,-0.00478854,0.973664,0.0272759,0.144235,0.106395,-0.00924858,3.31154,1,2.452,0
1774299876961,-0.00164298,0.972745,0.0243534,0.137241,0.102132,-0.00701278,3.293,1,2.465,0
1774299876975,0.00303062,0.974385,0.0218683,0.132052,0.0945872,-0.00106155,3.27189,1,2.479,0
1774299876988,0.0093576,0.974865,0.0186484,0.128096,0.0817798,0.00656833,3.29247,1,2.492,0
1774299877001,0.0147886,0.974779,0.016178,0.12327400000000001,0.0656358,0.013329200000000001,3.33256,1,2.505,0
1774299877015,0.0199715,0.976298,0.0147658,0.119049,0.047948199999999996,0.0195139,3.31751,1,2.519,0
1774299877029,0.0247141,0.978723,0.013394,0.117128,0.0291631,0.026995900000000003,3.67038,1,2.533,0
1774299877042,0.0298152,0.979034,0.0117192,0.116394,0.0102328,0.0357495,3.28834,3,2.546,0
1774299877056,0.033081,0.975328,0.00877239,0.111313,-0.00978082,0.0436782,3.28993,3,2.56,0
1774299877069,0.0331718,0.973812,0.00713956,0.10034599999999999,-0.0270747,0.0489869,3.278,5,2.573,0
1774299877082,0.0309524,0.976484,0.006838,0.0899344,-0.0379691,0.0526919,3.2875,5,2.586,0
1774299877096,0.029855,0.979894,0.00627204,0.0828859,-0.0439449,0.0563517,3.28224,5,2.6,0
1774299877109,0.0297558,0.98199,0.00511156,0.076541,-0.0467681,0.058281900000000005,3.30406,5,2.613,0
1774299877123,0.0294688,0.983418,0.00410861,0.0691219,-0.045326500000000006,0.0584083,3.27656,5,2.627,0
1774299877136,0.0311589,0.986578,0.00329899,0.0618663,-0.041593700000000004,0.0570161,3.3021,5,2.64,0
1774299877149,0.0345048,0.990742,0.00268494,0.0568332,-0.0370126,0.0556762,3.29419,5,2.653,0
1774299877163,0.0388788,0.994072,0.00145712,0.0534183,-0.033022499999999996,0.053919100000000005,3.28776,5,2.667,0
1774299877176,0.0422073,0.995153,-2.66291e-05,0.0494157,-0.030605000000000004,0.050526400000000006,3.29275,5,2.68,0
1774299877190,0.0432122,0.995227,-0.00189392,0.043770699999999996,-0.028447200000000002,0.0461465,3.28676,5,2.694,0
1774299877203,0.0418243,0.995051,-0.0034233,0.0363571,-0.0252502,0.0414,3.38007,5,2.707,0
1774299877216,0.0399098,0.995726,-0.00431993,0.028875500000000002,-0.0207594,0.0361404,3.31415,5,2.72,0
1774299877230,0.0383673,0.996629,-0.00566848,0.0227427,-0.0157413,0.0307434,3.6116,5,2.734,0
1774299877244,0.0377464,0.996979,-0.00702212,0.0165386,-0.0115356,0.0261072,3.30202,5,2.748,0
1774299877257,0.0367469,0.997805,-0.00820979,0.0108709,-0.008507840000000001,0.022549000000000003,3.26972,5,2.761,0
1774299877270,0.0354602,0.998253,-0.00993275,0.006206199999999999,-0.00634784,0.0197513,3.2775,5,2.774,0
1774299877284,0.0338667,0.997967,-0.0117192,0.0016661400000000002,-0.00500266,0.0170462,3.2688,5,2.788,0
1774299877297,0.032012,0.997383,-0.0133954,-0.00324013,-0.00412687,0.0143688,3.29158,5,2.801,0
1774299877311,0.0295977,0.996184,-0.0155002,-0.00896308,-0.0032317,0.0119357,3.32056,5,2.815,0
1774299877324,0.0268299,0.996703,-0.0162637,-0.0144935,-0.0012306300000000001,0.00927938,3.28928,5,2.828,0
1774299877337,0.0243967,0.997531,-0.0173782,-0.0175898,0.00148031,0.006605100000000001,3.30265,5,2.841,0
1774299877351,0.0229347,0.997212,-0.0184866,-0.0198574,0.00411626,0.00431633,3.27254,5,2.855,0
1774299877364,0.0217822,0.996757,-0.0195573,-0.0225373,0.00614619,0.0020146400000000003,3.27817,5,2.868,0
1774299877378,0.0210752,0.99597,-0.0201968,-0.0253494,0.00693613,-0.000393444,3.27695,5,2.882,0
1774299877391,0.0203457,0.996477,-0.0199968,-0.0274815,0.0063501,-0.00275637,3.28502,5,2.895,0
1774299877404,0.0186979,0.996172,-0.0199658,-0.0286761,0.0053644700000000005,-0.00431451,3.27711,5,2.908,0
1774299877418,0.0164602,0.994856,-0.0199575,-0.030446,0.00439988,-0.0047490300000000004,3.28393,5,2.922,0
1774299877431,0.013968,0.994098,-0.0192021,-0.0332727,0.00417449,-0.00451262,3.28382,5,2.935,0
1774299877445,0.0115634,0.994292,-0.0186934,-0.0360479,0.00448413,-0.00497457,3.34466,5,2.949,0
1774299877458,0.0091572,0.994264,-0.018399,-0.038436200000000004,0.005765510000000001,-0.0061428,3.29919,5,2.962,0
1774299877471,0.00695234,0.994633,-0.0181176,-0.0407034,0.00781854,-0.00730545,3.29415,5,2.975,0
1774299877485,0.00562331,0.99523,-0.0176028,-0.0422268,0.0104158,-0.00803037,3.3339,5,2.989,0
1774299877498,0.00480084,0.996357,-0.0166515,-0.0432965,0.012897400000000002,-0.00850481,3.29802,5,3.002,0
1774299877512,0.00416381,0.996645,-0.0156991,-0.043741,0.0145547,-0.00893122,3.30156,5,3.016,0
1774299877525,0.00338381,0.997112,-0.0152688,-0.044015000000000006,0.0157336,-0.009089660000000001,3.28774,5,3.029,0
1774299877538,0.00193325,0.99758,-0.0146864,-0.0437556,0.017283200000000002,-0.00880673,3.29445,5,3.042,0
1774299877552,0.00062086,0.997664,-0.0143751,-0.0433651,0.0189214,-0.00831703,3.29754,5,3.056,0
1774299877565,-0.000836995,0.998215,-0.0138853,-0.0428252,0.0208616,-0.008377170000000001,3.27687,5,3.069,0
1774299877579,-0.00140897,0.998432,-0.0135023,-0.0420202,0.022812899999999997,-0.00872083,3.31758,5,3.083,0
1774299877592,-0.00162495,0.999023,-0.0130612,-0.040695100000000005,0.0243593,-0.00834299,3.27893,5,3.096,0
1774299877605,-0.000913278,0.999386,-0.0121591,-0.0388706,0.0249283,-0.00769517,3.30862,5,3.109,0
1774299877619,-0.000424909,1.00027,-0.0111148,-0.0368315,0.0243607,-0.00700234,3.27613,5,3.123,0
1774299877632,-0.000395649,1.00038,-0.010159,-0.0342517,0.0231056,-0.00644685,3.27348,5,3.136,0
1774299877646,-0.00118979,0.999673,-0.00895662,-0.0325874,0.0217196,-0.00605526,3.30258,1,3.15,0
1774299877659,-0.00220545,0.999805,-0.0075613,-0.0311534,0.021327699999999998,-0.0058911599999999995,3.28148,1,3.163,0
1774299877672,-0.00239727,0.999301,-0.00631241,-0.029543,0.021082,-0.00578337,3.31173,1,3.176,0
1774299877686,-0.00228176,0.998168,-0.00487257,-0.0292132,0.0207858,-0.005762969999999999,3.27928,1,3.19,0
1774299877699,-0.00216062,0.997981,-0.00260952,-0.0289961,0.020394899999999997,-0.0059920799999999995,3.28769,1,3.203,0
1774299877713,-0.00169244,0.997396,-0.000723037,-0.02856,0.0198161,-0.0057672900000000004,3.33606,1,3.217,0
1774299877726,-0.00202414,0.997083,0.00076064,-0.0284481,0.0191584,-0.0052553899999999995,3.30099,1,3.23,0
1774299877740,-0.00280045,0.99625,0.00246771,-0.0284453,0.0192399,-0.005089059999999999,3.36621,1,3.244,0
1774299877753,-0.00312641,0.995005,0.00336342,-0.0296928,0.019278200000000002,-0.00479076,3.27404,1,3.257,0
1774299877767,-0.00372639,0.995202,0.00435875,-0.031332900000000004,0.0195457,-0.0043379099999999995,3.28784,1,3.271,0
1774299877780,-0.00419336,0.995102,0.00517176,-0.0322344,0.0199094,-0.0040817399999999995,3.27845,5,3.284,0
1774299877793,-0.00493886,0.994665,0.00543672,-0.0336848,0.020732300000000002,-0.00390417,3.2878,5,3.297,0
1774299877807,-0.0057265,0.994845,0.00605311,-0.0348868,0.021967300000000002,-0.0037879400000000005,3.27572,5,3.311,0
1774299877820,-0.00623413,0.99539,0.00594855,-0.0353749,0.023145699999999998,-0.0033399600000000003,3.2885,5,3.324,0
1774299877834,-0.00583337,0.995101,0.00606209,-0.0362038,0.0237871,-0.00246752,3.28541,5,3.338,0
1774299877847,-0.00519389,0.995016,0.0064803,-0.0370976,0.0233007,-0.00168683,3.29489,5,3.351,0
1774299877860,-0.00519097,0.995448,0.00637841,-0.0374231,0.022105000000000003,-0.000988468,3.28254,5,3.364,0
1774299877874,-0.00614909,0.995743,0.0059927,-0.0372165,0.021087699999999997,-0.000312152,3.26971,5,3.378,0
1774299877887,-0.00690515,0.996217,0.00570927,-0.036507700000000004,0.0204615,0.00037761,3.34023,5,3.391,0
1774299877901,-0.00741462,0.996094,0.00538485,-0.0359157,0.0197634,0.00102012,3.27748,5,3.405,0
1774299877914,-0.0072078,0.995742,0.0048504,-0.0359307,0.0187833,0.00148528,3.2905,5,3.418,0
1774299877927,-0.00724492,0.99611,0.00485182,-0.036073400000000005,0.0174,0.00183444,3.28206,5,3.431,0
1774299877941,-0.0070135,0.996931,0.00537634,-0.034962,0.0159187,0.00226677,3.42953,5,3.445,0
1774299877954,-0.00681355,0.996564,0.00546153,-0.033429,0.0140324,0.00321437,3.27174,5,3.458,0
1774299877968,-0.00643016,0.99586,0.00545757,-0.0320892,0.012226200000000001,0.00412595,3.26571,5,3.472,0
1774299877981,-0.00644791,0.995667,0.00579545,-0.030297800000000003,0.0105427,0.00498639,3.27421,5,3.485,0
1774299877994,-0.00657165,0.995259,0.00589434,-0.028564,0.00941183,0.0055288099999999995,3.30512,5,3.498,0
1774299878008,-0.00645508,0.995498,0.00629853,-0.0268334,0.00917507,0.005916630000000001,3.30273,5,3.512,0
1774299878021,-0.00575639,0.995364,0.00678114,-0.0249214,0.00919993,0.006423990000000001,3.26752,5,3.525,0
1774299878034,-0.00466117,0.994691,0.00693301,-0.023515,0.00893651,0.00658176,3.26863,5,3.538,0
1774299878048,-0.00367791,0.994763,0.00735584,-0.022504200000000002,0.00860652,0.006529430000000001,3.295,5,3.552,0
1774299878061,-0.00323947,0.995078,0.00780289,-0.020848000000000002,0.0083507,0.00655283,3.26141,5,3.565,0
1774299878075,-0.00303374,0.994343,0.00819836,-0.018843600000000002,0.008104940000000001,0.00699882,3.2671,5,3.579,0
1774299878088,-0.0032534,0.99317,0.00828825,-0.0167461,0.00813417,0.00741551,3.27737,5,3.592,0
1774299878101,-0.00320721,0.993522,0.00839557,-0.0146678,0.00891536,0.00775317,3.27671,5,3.605,0
1774299878115,-0.00317372,0.993656,0.00844481,-0.0121238,0.010106599999999999,0.00866278,3.27235,5,3.619,0
1774299878128,-0.00200995,0.99436,0.00803279,-0.00947406,0.011153999999999999,0.00961985,3.27026,5,3.632,0
1774299878141,-0.00135617,0.995963,0.00775623,-0.00678458,0.0120098,0.0102492,3.27752,5,3.645,0
1774299878155,0.000112486,0.996439,0.00741703,-0.005012410000000001,0.0122782,0.00988839,3.31323,5,3.659,0
1774299878168,0.000684119,0.997363,0.00738094,-0.00405472,0.0125101,0.009175299999999999,3.29478,5,3.672,0
1774299878182,0.000333894,0.999059,0.00821126,-0.0025384400000000003,0.0131443,0.00777,3.26693,5,3.686,0
1774299878195,0.000233877,0.999943,0.0092188,2.74829e-05,0.0143553,0.00607958,3.29854,5,3.699,0
1774299878208,0.000874939,1.00035,0.0103638,0.0022225400000000003,0.015018700000000001,0.00460387,3.28569,5,3.712,0
1774299878222,0.00264107,1.00051,0.0117256,0.0043115900000000006,0.0142833,0.0037632900000000003,3.26885,5,3.726,0
1774299878235,0.00336904,1.00161,0.0133802,0.00659605,0.0121933,0.0032738800000000003,3.27597,1,3.739,0
1774299878248,0.00392638,1.0016,0.0148984,0.00837555,0.00908581,0.00258498,3.30958,1,3.752,0
1774299878262,0.00353046,1.00109,0.0167346,0.00911751,0.00568591,0.00202036,3.29441,1,3.766,0
1774299878275,0.00251123,1.00102,0.0182663,0.00936398,0.00278072,0.00115771,3.26861,1,3.779,0
1774299878289,0.00125898,0.999846,0.0195494,0.0093183,0.00106615,0.000253522,3.27419,5,3.793,0
1774299878302,0.000424511,0.998572,0.0206163,0.00811052,0.000411167,-0.000719836,3.3646,5,3.806,0
1774299878315,0.00101453,0.997278,0.021092,0.005805810000000001,-0.000245612,-0.00213529,3.27278,5,3.819,0
1774299878329,0.00131182,0.996298,0.0223477,0.00295813,-0.000938343,-0.00341997,3.28304,5,3.833,0
1774299878342,0.00131851,0.995467,0.0231534,0.00017598699999999998,-0.00159222,-0.00478245,3.27673,5,3.846,0
1774299878356,0.000652269,0.994939,0.0237638,-0.0022745499999999997,-0.00134876,-0.0061156100000000005,3.30749,5,3.86,0
1774299878369,-0.000593422,0.994317,0.0240805,-0.00448486,-0.000386757,-0.00770797,3.26426,5,3.873,0
1774299878382,-0.000973192,0.993615,0.0243727,-0.006738180000000001,0.00119782,-0.009545,3.25965,5,3.886,0
1774299878396,-0.00126162,0.993125,0.0239687,-0.00908777,0.00290332,-0.0115102,3.26534,5,3.9,0
1774299878409,-0.00192179,0.993704,0.0235291,-0.0109887,0.00420486,-0.0133866,3.26867,5,3.913,0
1774299878422,-0.00302288,0.994182,0.0227777,-0.012033700000000001,0.00536061,-0.0149522,3.26824,5,3.926,0
1774299878436,-0.00494065,0.99402,0.0220272,-0.0129002,0.006361599999999999,-0.0164343,3.26524,5,3.94,0
1774299878449,-0.00722297,0.993182,0.0213415,-0.0144031,0.00757193,-0.0178118,3.42475,5,3.953,0
1774299878463,-0.00933075,0.993629,0.0206324,-0.0158218,0.00882141,-0.019039200000000003,3.26806,5,3.967,0
1774299878476,-0.0107057,0.994282,0.0199009,-0.0159577,0.0100179,-0.0195813,3.38447,5,3.98,0
1774299878490,-0.0112839,0.9945,0.0191587,-0.0158205,0.0106935,-0.0196005,3.28197,5,3.994,0
1774299878503,-0.0116659,0.994367,0.0180966,-0.0159607,0.0104876,-0.0194259,3.27115,5,4.007,0
1774299878516,-0.0127679,0.994133,0.0170276,-0.0164527,0.009882170000000001,-0.0190899,3.28273,5,4.02,0
1774299878530,-0.0148147,0.994709,0.0165178,-0.0168872,0.009721790000000001,-0.018914,3.26652,5,4.034,0
1774299878543,-0.0165691,0.994834,0.0158275,-0.016175500000000002,0.0107479,-0.0186452,3.27921,5,4.047,0
1774299878556,-0.0175315,0.994249,0.0155304,-0.0160046,0.0120462,-0.0182759,3.29962,5,4.06,0
1774299878570,-0.0173734,0.994062,0.0153637,-0.015959,0.012912,-0.0177089,3.27026,5,4.074,0
1774299878583,-0.0171581,0.993681,0.014884,-0.0156376,0.013052600000000001,-0.0170067,3.26519,5,4.087,0
1774299878596,-0.0176676,0.993776,0.0149377,-0.015133,0.0132111,-0.0163825,3.29239,5,4.1,0
1774299878610,-0.0181762,0.993141,0.0146048,-0.0142499,0.0136904,-0.0157975,3.30999,5,4.114,0
1774299878623,-0.0185664,0.992822,0.0147028,-0.013883000000000001,0.0140529,-0.0151512,3.26234,5,4.127,0
1774299878637,-0.0184378,0.992409,0.014679,-0.0132884,0.0142923,-0.0145326,3.26713,5,4.141,0
1774299878650,-0.0180799,0.99177,0.0150728,-0.0133951,0.0140472,-0.0137773,3.30419,5,4.154,0
1774299878663,-0.0178017,0.991767,0.0157055,-0.013384499999999999,0.0134091,-0.0133128,3.29204,5,4.167,0
1774299878677,-0.0173115,0.99171,0.015766,-0.012496700000000001,0.0123573,-0.0123648,3.26341,5,4.181,0
1774299878690,-0.0174726,0.991635,0.0158666,-0.0121255,0.0112316,-0.0111232,3.28828,5,4.194,0
1774299878703,-0.0177975,0.991723,0.016091,-0.0117279,0.0102848,-0.0100711,3.27184,5,4.207,0
1774299878717,-0.0178947,0.991989,0.0159211,-0.0106376,0.00954517,-0.0090951,3.26313,5,4.221,0
1774299878730,-0.0178488,0.99172,0.0156519,-0.010023800000000001,0.00879566,-0.0077456899999999995,3.26789,5,4.234,0
1774299878745,-0.0172284,0.992136,0.0153411,-0.00932879,0.0077328,-0.00650622,4.7909,5,4.249,0
1774299878758,-0.0163575,0.992405,0.0151293,-0.008069030000000001,0.0064640900000000005,-0.005537530000000001,3.28374,5,4.262,0
1774299878772,-0.0164216,0.992812,0.0151937,-0.00701696,0.00538643,-0.00463174,3.27282,5,4.276,0
1774299878786,-0.0168245,0.993404,0.0153941,-0.00558715,0.0048231,-0.00375963,3.34697,5,4.29,0
1774299878800,-0.0172738,0.99302,0.0155536,-0.00419901,0.00477522,-0.002778,3.30147,5,4.304,0
1774299878813,-0.0165184,0.99278,0.0158557,-0.0037622299999999997,0.00473858,-0.00188998,3.34227,5,4.317,0
1774299878826,-0.0151981,0.992989,0.0160378,-0.0026220300000000005,0.00453273,-0.000859085,3.28404,5,4.33,0
1774299878840,-0.0139035,0.99305,0.0161158,-0.00118611,0.00370043,0.000152523,3.26458,5,4.344,0
1774299878853,-0.0137973,0.992628,0.0165748,-0.000233235,0.0032188200000000003,0.0009018569999999999,3.29515,5,4.357,0
1774299878867,-0.0135676,0.992395,0.0168963,0.000439255,0.0032823400000000003,0.0014807000000000002,3.25408,5,4.371,0
1774299878881,-0.0128568,0.992205,0.01683,0.0008899029999999999,0.00368056,0.00220264,4.04337,5,4.385,0
1774299878894,-0.0117714,0.991617,0.0174286,0.00114828,0.00357687,0.00283269,3.25935,5,4.398,0
1774299878908,-0.011374,0.991129,0.0178729,0.0009211600000000001,0.00350041,0.0032004700000000004,3.26784,5,4.412,0
1774299878921,-0.0113357,0.991432,0.0180522,0.000993664,0.00402342,0.0034833900000000003,3.27121,5,4.425,0
1774299878934,-0.010541,0.991412,0.0181062,0.00158021,0.00494099,0.0038789000000000002,3.25317,5,4.438,0
1774299878948,-0.00951418,0.991349,0.0183714,0.0015772100000000001,0.0058071,0.00432073,3.28424,5,4.452,0
1774299878961,-0.00860696,0.991685,0.0184755,0.0019169200000000001,0.0064747500000000005,0.00431815,3.26202,5,4.465,0
1774299878975,-0.007654,0.991899,0.0187672,0.00239173,0.00706643,0.00438851,4.067,5,4.479,0
1774299878989,-0.00742604,0.991495,0.0187579,0.00235177,0.0077448,0.00466902,3.27254,5,4.493,0
1774299879002,-0.00726144,0.991526,0.01908,0.00247677,0.009091630000000002,0.0048139,3.30138,5,4.506,0
1774299879016,-0.00644206,0.991982,0.018961,0.00321134,0.0108767,0.0049420900000000005,4.15858,5,4.52,0
1774299879030,-0.00480437,0.992151,0.0191354,0.00432005,0.0124975,0.00502027,3.30947,5,4.534,0
1774299879043,-0.00304611,0.992259,0.0189819,0.005503590000000001,0.013847499999999999,0.005055530000000001,3.38108,5,4.547,0
1774299879057,-0.00245379,0.99216,0.0190273,0.006719220000000001,0.0159053,0.00490041,3.27367,1,4.561,0
1774299879070,-0.00141759,0.992353,0.0186863,0.00811074,0.0172569,0.00407317,3.3166,1,4.574,0
1774299879083,-0.000362647,0.991876,0.0184563,0.00950555,0.0187724,0.0036520100000000002,3.26015,1,4.587,0
1774299879098,0.000251118,0.991965,0.0183432,0.0112503,0.019894600000000002,0.00318597,4.23803,1,4.602,0
1774299879111,0.000560443,0.992177,0.0182884,0.0140747,0.0210866,0.0028659600000000003,3.26248,1,4.615,0
1774299879125,0.000909624,0.9919,0.0177341,0.0177769,0.0221303,0.00297068,3.30147,1,4.629,0
1774299879138,0.000581568,0.992916,0.0173643,0.023283900000000003,0.0233211,0.00422562,3.31734,1,4.642,0
1774299879151,-0.000917276,0.996429,0.0166796,0.0324042,0.0249931,0.006459230000000001,3.28797,1,4.655,0
1774299879165,-0.00350368,0.999116,0.0148291,0.0463395,0.028237,0.00958664,3.2765,1,4.669,0
1774299879178,-0.00734361,1.00219,0.0124616,0.0653166,0.033598300000000005,0.015274700000000002,3.28382,1,4.682,0
1774299879192,-0.012094,0.999795,0.00946097,0.0870528,0.040727000000000006,0.0238423,4.03739,1,4.696,0
1774299879206,-0.015964,1.00413,-0.00127733,0.111162,0.0475073,0.034036000000000004,3.25954,1,4.71,0
1774299879219,-0.015127,0.99372,-0.0123895,0.128126,0.049334100000000006,0.0392262,3.22513,1,4.723,0
1774299879232,-0.0214802,0.989008,-0.0246279,0.133117,0.053477800000000006,0.0423996,3.26076,1,4.736,0
1774299879246,-0.0231673,0.987503,-0.0368863,0.134269,0.0591746,0.042736,3.24184,1,4.75,0
1774299879259,-0.0239265,0.986992,-0.0484485,0.13591799999999998,0.0639224,0.041554900000000006,3.23472,1,4.763,0
1774299879272,-0.0230937,0.9847,-0.0584266,0.134297,0.06687520000000001,0.0395408,3.21896,1,4.776,0
1774299879286,-0.0211121,0.981461,-0.067584,0.125869,0.0648368,0.0337133,3.23667,3,4.79,0
1774299879299,-0.0207868,0.9813,-0.0724118,0.11168,0.0616152,0.0288549,3.22005,3,4.803,0
1774299879313,-0.0201553,0.975616,-0.0771139,0.0916749,0.057007300000000004,0.026821,3.72981,3,4.817,0
1774299879326,-0.019434,0.97949,-0.0788024,0.0659925,0.051771399999999995,0.0218825,3.23393,3,4.83,0
1774299879339,-0.0175271,0.983879,-0.0783991,0.0448594,0.0463968,0.012952,3.22746,3,4.843,0
1774299879353,-0.0133653,0.987595,-0.0754403,0.0254255,0.0397051,0.00377737,3.24313,3,4.857,0
1774299879366,-0.00844603,0.986899,-0.0758033,0.00138676,0.029115500000000002,-0.0031741599999999997,3.21898,3,4.87,0
1774299879379,-0.00615482,0.995917,-0.0710361,-0.023996800000000002,0.0187259,-0.00716237,3.23611,3,4.883,0
1774299879393,-0.00348336,1.00691,-0.0611817,-0.039243,0.0102037,-0.0181632,3.2245,3,4.897,0
1774299879406,0.000245738,1.01688,-0.049356,-0.044937500000000005,0.005084,-0.032983,3.8146,3,4.91,0
1774299879420,0.0102392,1.02265,-0.0341077,-0.042789400000000005,-0.0010758900000000001,-0.044684999999999996,3.22448,5,4.924,0
1774299879433,0.0217602,1.02055,-0.0172627,-0.0371051,-0.0138397,-0.0542191,3.24024,5,4.937,0
1774299879446,0.0250153,1.0137,0.00492075,-0.0364239,-0.0284824,-0.0611289,3.24661,5,4.95,0
1774299879460,0.0247434,1.00789,0.0305436,-0.0383372,-0.0386642,-0.0654331,3.22457,5,4.964,0
1774299879473,0.0234371,0.997111,0.0559428,-0.0428066,-0.0459241,-0.0653981,3.23919,5,4.977,0
1774299879487,0.0220492,0.985974,0.0808718,-0.055002300000000004,-0.047377300000000004,-0.0600084,3.63892,5,4.991,0
1774299879500,0.0233911,0.98079,0.104615,-0.0685008,-0.043739299999999995,-0.05984950000000001,3.27787,5,5.004,0
1774299879516,0.0274931,0.976131,0.124885,-0.080193,-0.0379631,-0.0602776,5.52557,5,5.02,0
1774299879529,0.0312448,0.97015,0.140094,-0.0929764,-0.032695,-0.058365200000000006,3.29669,5,5.033,0
1774299879542,0.0327505,0.965273,0.151199,-0.108991,-0.026724800000000003,-0.059364600000000003,3.22893,5,5.046,0
1774299879556,0.0335176,0.962179,0.158915,-0.127117,-0.019745,-0.0622777,3.32141,5,5.06,0
1774299879569,0.0331622,0.963342,0.163123,-0.142937,-0.014377000000000001,-0.0637171,3.275,5,5.073,0
1774299879583,0.0285302,0.969654,0.162459,-0.15248799999999998,-0.00983675,-0.06341440000000001,3.22987,5,5.087,0
1774299879596,0.0220722,0.974504,0.154127,-0.154429,-0.00567109,-0.0617584,3.23278,5,5.1,0
1774299879609,0.0137185,0.983403,0.136774,-0.147805,-0.00268539,-0.0570397,3.22385,5,5.113,0
1774299879623,0.00408594,0.993161,0.111424,-0.128921,-0.00233351,-0.0484622,3.25476,5,5.127,0
1774299879636,-0.00328897,1.00171,0.0796564,-0.10031000000000001,-0.00564952,-0.035158999999999996,3.25874,5,5.14,0
1774299879649,-0.0111101,1.0035,0.0406294,-0.0670914,-0.0129415,-0.0157511,3.2273,5,5.153,0
1774299879663,-0.0191123,0.993467,-0.00231749,-0.043357400000000004,-0.0268381,0.00466624,3.23474,5,5.167,0
1774299879676,-0.0268394,0.991041,-0.0392863,-0.031068600000000002,-0.0437148,0.0155673,3.23167,5,5.18,0
1774299879689,-0.0416169,0.994134,-0.071115,-0.0157823,-0.0543652,0.025154700000000002,3.23207,5,5.193,0
1774299879702,-0.058364,0.998138,-0.0999716,0.0031724200000000004,-0.055738899999999994,0.0438171,3.22511,5,5.206,0
1774299879716,-0.0732256,1.00251,-0.12526,0.0231663,-0.0514092,0.059617199999999995,3.23772,5,5.22,0
1774299879729,-0.084768,1.00041,-0.137164,0.041058199999999996,-0.0445348,0.06165110000000001,3.25439,5,5.233,0
1774299879742,-0.0934675,0.996501,-0.135991,0.050221999999999996,-0.031225000000000003,0.0483361,3.23215,5,5.246,0
1774299879756,-0.100505,0.988027,-0.122538,0.0514127,-0.00538806,0.045856,3.22983,5,5.26,0
1774299879769,-0.0993236,0.980821,-0.104196,0.0475397,0.017394,0.0453177,3.22769,5,5.273,0
1774299879782,-0.109415,0.967449,-0.0831651,0.0351961,0.047791499999999994,0.0418038,3.23193,5,5.286,0
1774299879796,-0.108773,0.945031,-0.0564233,0.00930339,0.0864393,0.028827,3.22387,5,5.3,0
1774299879809,-0.0946735,0.954556,-0.0396274,-0.012871800000000001,0.11882999999999999,-0.00851782,3.23232,5,5.313,0
1774299879822,-0.0808279,0.961113,-0.0315843,-0.0193262,0.141808,-0.031449,3.22846,5,5.326,0
1774299879836,-0.0589929,0.959974,-0.0371537,-0.026202200000000002,0.156475,-0.038364300000000004,3.26308,5,5.34,0
1774299879849,-0.0233574,0.973928,-0.0376856,-0.039500600000000004,0.157473,-0.0722656,3.23446,5,5.353,0
1774299879862,-0.00351254,0.985072,-0.0277309,-0.040068099999999995,0.15401,-0.0877887,3.22769,5,5.366,0
1774299879875,0.00768098,0.991277,-0.020048,-0.0344079,0.144091,-0.06857590000000001,3.23402,3,5.379,0
1774299879889,0.00939503,0.996666,-0.0174736,-0.0329489,0.131786,-0.0556903,3.226,2,5.393,0
1774299879902,0.00533266,1.00233,-0.0102926,-0.0352499,0.12476200000000001,-0.0560733,3.259,2,5.406,0
1774299879915,0.00634865,1.01326,-0.00273169,-0.031080299999999998,0.11510500000000001,-0.0492114,3.27106,2,5.419,0
1774299879929,0.00665824,1.01685,0.000259853,-0.0237534,0.100847,-0.033614000000000005,3.31884,1,5.433,0
1774299879942,0.002833,1.01959,0.00291771,-0.017488300000000002,0.0900562,-0.0235929,3.241,2,5.446,0
1774299879956,0.000103949,1.01972,0.00665515,-0.00870577,0.08105689999999999,-0.0165575,3.23493,2,5.46,0
1774299879969,-0.00269794,1.02228,0.00935363,0.00115984,0.0718687,-0.00675677,3.23346,2,5.473,0
1774299879982,-0.00677597,1.01732,0.00785553,0.0123475,0.06457460000000001,-8.34305e-05,3.23065,2,5.486,0
1774299879995,-0.00777154,1.01357,0.00551541,0.0178294,0.0589271,0.0018224,3.24363,2,5.499,0
1774299880009,-0.00580879,1.0076,0.00567993,0.022549800000000002,0.051785199999999997,0.00498295,3.23037,2,5.513,0
1774299880022,-0.0049355,1.00545,0.00334954,0.025151500000000004,0.0445386,0.010488200000000001,3.24096,5,5.526,0
1774299880035,-0.00546704,0.997963,0.00371554,0.025080900000000003,0.0392229,0.0138649,3.25506,5,5.539,0
1774299880049,-0.00373318,0.995373,0.00302989,0.02343,0.0360893,0.0170223,3.24421,5,5.553,0
1774299880062,-0.00171214,0.99487,0.00505411,0.022698100000000002,0.0326948,0.0237748,3.231,5,5.566,2
1774299880075,-0.00102868,0.993472,0.00569791,0.0228978,0.030903700000000003,0.032889,3.23391,5,5.579,2
1774299880089,-5.48084e-05,0.995337,0.00371907,0.0229837,0.0311699,0.043101900000000005,3.23135,5,5.593,2
1774299880102,-0.00103469,0.996737,0.00616159,0.0223367,0.031267,0.054343300000000004,3.22248,5,5.606,2
1774299880115,-0.004011,0.997638,0.00957565,0.0243123,0.0324376,0.06521110000000001,3.23306,5,5.619,2
1774299880129,-0.0081704,1.00114,0.0103741,0.0270892,0.0332172,0.0739878,3.22374,5,5.633,2
1774299880142,-0.0123187,1.00462,0.0105503,0.029072200000000003,0.033238,0.0799086,3.25861,5,5.646,2
1774299880155,-0.0175455,1.00696,0.00974725,0.0317405,0.033172,0.08368600000000001,3.23256,5,5.659,2
1774299880169,-0.0219352,1.00604,0.0102499,0.0330045,0.0339832,0.08505929999999999,3.22461,5,5.673,2
1774299880182,-0.0234743,1.00623,0.0103461,0.0339621,0.0342907,0.0865525,3.23624,5,5.686,2
1774299880195,-0.0256294,1.00696,0.0103635,0.0343307,0.033733200000000005,0.08885680000000001,3.22206,5,5.699,2
1774299880208,-0.0282134,1.00731,0.00924827,0.0348928,0.034089,0.0892635,3.23298,5,5.712,2
1774299880222,-0.030866,1.00832,0.00943105,0.035342,0.035324,0.0894632,3.2245,5,5.726,2
1774299880235,-0.0325377,1.00773,0.00831393,0.0365881,0.036468400000000005,0.08994719999999999,3.262,5,5.739,2
1774299880248,-0.0338907,1.00911,0.0057509,0.0375845,0.0374115,0.0907338,3.23983,1,5.752,2
1774299880262,-0.0352166,1.00761,0.00380177,0.0380582,0.0379078,0.09063689999999999,3.22354,1,5.766,2
1774299880275,-0.0371785,1.00907,-8.0044e-05,0.038886500000000004,0.0382478,0.09060549999999999,3.22856,1,5.779,2
1774299880288,-0.0384994,1.00643,-0.00267103,0.0389061,0.038089200000000004,0.0893169,3.22811,1,5.792,2
1774299880302,-0.0409584,1.00532,-0.00533021,0.040350500000000004,0.0379052,0.0879037,3.22878,1,5.806,2
1774299880315,-0.0429575,1.0035,-0.00729654,0.0408404,0.037556,0.08581609999999999,3.23215,1,5.819,2
1774299880328,-0.0450506,1.00378,-0.00861101,0.042887100000000004,0.0372435,0.0831006,3.25378,1,5.832,2
1774299880342,-0.0470416,1.00261,-0.0110638,0.0451701,0.0368671,0.0798566,3.25046,1,5.846,2
1774299880355,-0.0489455,1.00127,-0.0122776,0.0466742,0.0369744,0.0759339,3.2245,1,5.859,2
1774299880368,-0.0514814,1.00117,-0.0141963,0.0483252,0.0369343,0.0717431,3.23513,1,5.872,2
1774299880381,-0.0545578,1.00069,-0.0150703,0.0488045,0.0371533,0.066901,3.22531,1,5.885,2
1774299880395,-0.0561116,0.998504,-0.014582,0.048940000000000004,0.0376256,0.061491300000000006,3.22717,1,5.899,2
1774299880408,-0.0575868,0.999669,-0.0161331,0.0492436,0.0376517,0.0567747,3.2283,1,5.912,2
1774299880421,-0.0582181,1.00028,-0.0159614,0.0482926,0.0373082,0.0519372,3.23696,1,5.925,2
1774299880435,-0.0600816,1.00058,-0.0142597,0.0480758,0.0369239,0.0478422,3.25602,1,5.939,2
1774299880448,-0.061522,0.999987,-0.0121841,0.04803810000000001,0.0360902,0.043621400000000005,3.23209,1,5.952,2
1774299880461,-0.0628673,0.99892,-0.0121317,0.04944130000000001,0.03577,0.0392092,3.22876,1,5.965,3
1774299880475,-0.0632143,0.99854,-0.0122524,0.0505089,0.035660500000000005,0.0350016,3.22165,1,5.979,3
1774299880488,-0.0630336,0.998604,-0.0111827,0.0513795,0.0352231,0.0320278,3.22798,1,5.992,3
1774299880501,-0.0637469,0.998398,-0.0141317,0.054470700000000004,0.034844400000000005,0.0288482,3.22752,1,6.005,3
1774299880515,-0.0666712,1.0043,-0.0166847,0.056044000000000004,0.0352878,0.025260400000000002,3.29041,1,6.019,3
1774299880528,-0.0668091,1.00305,-0.0176206,0.0586295,0.0356634,0.0209747,3.22596,1,6.032,3
1774299880541,-0.067667,1.00543,-0.0202773,0.0639517,0.0363434,0.017550200000000002,3.25508,1,6.045,3
1774299880555,-0.0671101,1.00548,-0.0229352,0.0677806,0.0366599,0.013859600000000001,3.24387,1,6.059,3
1774299880568,-0.0670579,1.00486,-0.0247723,0.0719172,0.037164100000000005,0.0106244,3.22744,1,6.072,3
1774299880581,-0.0674992,1.00363,-0.0260912,0.0753294,0.037091900000000004,0.0078875,3.23076,1,6.085,3
1774299880595,-0.0678251,1.00058,-0.0260072,0.0782675,0.0379187,0.00471752,3.22217,1,6.099,3
1774299880608,-0.0685532,0.999537,-0.0275284,0.0817731,0.0388619,0.0012886100000000001,3.23076,1,6.112,3
1774299880621,-0.0684486,0.99912,-0.028588,0.08408429999999999,0.0402445,-0.00225626,3.2217,1,6.125,3
1774299880635,-0.0688611,0.999735,-0.030007,0.08799580000000001,0.041588200000000006,-0.005268310000000001,3.50026,1,6.139,3
1774299880648,-0.0697253,1.00412,-0.0326131,0.0924286,0.0435201,-0.00821845,3.24528,1,6.152,3
1774299880661,-0.0703809,1.0054,-0.031614,0.0961974,0.0453394,-0.0118723,3.23232,1,6.165,3
1774299880675,-0.071499,1.00522,-0.0297082,0.10220000000000001,0.04650000000000001,-0.0144135,3.22941,1,6.179,3
1774299880688,-0.0737427,1.00729,-0.0260601,0.109925,0.047822500000000004,-0.0181224,3.22865,1,6.192,3
1774299880701,-0.0763153,1.01504,-0.0254329,0.120283,0.05032110000000001,-0.0230619,3.23757,1,6.205,3
1774299880715,-0.0779212,1.02763,-0.0286448,0.133781,0.0527566,-0.0274247,3.23046,1,6.219,3
1774299880728,-0.0797665,1.03549,-0.0253848,0.146979,0.055415099999999995,-0.032155,3.25541,1,6.232,3
1774299880741,-0.0822465,1.04254,-0.0272429,0.166271,0.059928499999999996,-0.0367056,3.25826,1,6.245,3
1774299880755,-0.0815645,1.04533,-0.0240229,0.18613900000000003,0.0652548,-0.0416476,3.22417,1,6.259,3
1774299880768,-0.0844676,1.05929,-0.0249902,0.21137,0.0716184,-0.0420219,3.23189,1,6.272,3
1774299880781,-0.0827809,1.06603,-0.0240468,0.23823,0.077655,-0.0384016,3.23632,1,6.285,3
1774299880795,-0.08262,1.07842,-0.0220449,0.263828,0.08450049999999999,-0.0337941,3.22844,1,6.299,3
1774299880808,-0.0843666,1.08624,-0.0249032,0.291557,0.0936082,-0.026023800000000003,3.232,1,6.312,4
1774299880821,-0.0791076,1.09511,-0.0294515,0.321862,0.0995759,-0.023326600000000003,3.24326,1,6.325,4
1774299880835,-0.0771534,1.09253,-0.0308327,0.347098,0.09900880000000001,-0.0249598,3.22237,1,6.339,4
1774299880848,-0.0732455,1.09436,-0.035015,0.368781,0.100465,-0.026668300000000002,3.24717,1,6.352,4
1774299880861,-0.0612765,1.09673,-0.0415234,0.393517,0.0974883,-0.0316809,3.2403,1,6.365,4
1774299880874,-0.0527351,1.09567,-0.047288,0.418176,0.0896007,-0.033886,3.22537,1,6.378,4
1774299880888,-0.042859,1.09482,-0.0544555,0.443178,0.0722216,-0.0368665,3.23106,1,6.392,4
1774299880901,-0.0401732,1.08839,-0.0608077,0.466798,0.0565753,-0.038678,3.22976,1,6.405,4
1774299880914,-0.04226,1.08555,-0.0679926,0.483103,0.0453733,-0.040618999999999995,3.23891,1,6.418,4
1774299880928,-0.0378708,1.07818,-0.0691831,0.49339,0.0307277,-0.047221200000000005,3.23413,1,6.432,4
1774299880941,-0.0397166,1.0526,-0.0495763,0.48997999999999997,0.0167751,-0.0561677,3.26158,1,6.445,4
1774299880954,-0.0398375,1.0328,-0.0261292,0.469719,0.00915442,-0.0726795,3.2385,1,6.458,4
1774299880968,-0.0391523,1.01674,-0.0023301,0.445606,0.00443186,-0.0946407,3.23089,5,6.472,5
1774299880981,-0.0431842,0.996803,0.021357,0.414916,0.00670956,-0.112578,3.26456,5,6.485,5
1774299880994,-0.0470505,0.978632,0.0437841,0.37729,0.015440700000000002,-0.130752,3.2343,5,6.498,5
1774299881008,-0.052424,0.960967,0.0645043,0.33400199999999997,0.0305246,-0.151082,3.23774,5,6.512,5
1774299881021,-0.0570286,0.94762,0.0832186,0.285564,0.0477682,-0.170264,3.2253,5,6.525,5
1774299881034,-0.0638342,0.937183,0.0985414,0.235754,0.068472,-0.183729,3.24689,5,6.538,5
1774299881048,-0.0678437,0.930802,0.110632,0.183205,0.09217650000000001,-0.19473,3.37151,5,6.552,5
1774299881061,-0.0694678,0.926376,0.119844,0.130705,0.11509499999999999,-0.20540500000000003,3.27737,5,6.565,5
1774299881074,-0.0697503,0.924951,0.126668,0.0759305,0.13381200000000001,-0.21326699999999998,3.25021,5,6.578,5
1774299881088,-0.0715793,0.927689,0.130716,0.0205246,0.150173,-0.217785,3.2275,5,6.592,5
1774299881101,-0.0673386,0.933168,0.131918,-0.0328226,0.162851,-0.218539,3.2382,5,6.605,5
1774299881114,-0.0613828,0.939048,0.131338,-0.08439780000000001,0.168827,-0.211864,3.22609,5,6.618,5
1774299881128,-0.054812,0.945781,0.129705,-0.13326000000000002,0.16789500000000002,-0.19804500000000003,3.27311,5,6.632,5
1774299881141,-0.0504824,0.952359,0.127097,-0.180563,0.161984,-0.18301800000000001,3.26256,5,6.645,5
1774299881154,-0.0486911,0.959685,0.124859,-0.22449300000000003,0.154452,-0.165862,3.22704,5,6.658,5
1774299881170,-0.0484622,0.967502,0.122154,-0.263347,0.146881,-0.144685,3.28823,5,6.674,5
1774299881183,-0.0507203,0.973183,0.119022,-0.301397,0.139652,-0.12292700000000001,3.23174,5,6.687,5
1774299881197,-0.0558265,0.980356,0.115685,-0.336507,0.135514,-0.103619,3.23111,5,6.701,5
1774299881210,-0.0594923,0.989351,0.113007,-0.369022,0.134661,-0.0854708,3.23206,5,6.714,5
1774299881223,-0.060841,1.00251,0.110691,-0.39306399999999997,0.133385,-0.065523,3.23472,5,6.727,5
1774299881237,-0.0621734,1.01454,0.106181,-0.407035,0.130609,-0.0440779,3.2362,5,6.741,5
1774299881250,-0.0652093,1.02335,0.0992101,-0.418518,0.12759399999999999,-0.0234247,3.25793,5,6.754,5
1774299881263,-0.0661051,1.02997,0.0902804,-0.429983,0.125276,-0.00365591,3.23632,5,6.767,5
1774299881277,-0.0615806,1.03166,0.0808122,-0.444666,0.12063000000000001,0.0196669,3.26873,5,6.781,5
1774299881290,-0.0552467,1.02358,0.0696014,-0.47305,0.108498,0.0463103,3.23826,5,6.794,5
1774299881303,-0.0480474,1.02585,0.0642193,-0.512833,0.0890141,0.0676482,3.22743,5,6.807,5
1774299881317,-0.0428819,1.03756,0.0600976,-0.543444,0.0642217,0.082651,3.23722,5,6.821,5
1774299881330,-0.0406328,1.04549,0.0533908,-0.565165,0.0385935,0.102593,3.22374,5,6.834,5
1774299881344,-0.0393897,1.04969,0.0453544,-0.5860580000000001,0.0126087,0.125595,3.56806,5,6.848,5
1774299881357,-0.0412545,1.05409,0.0366979,-0.604841,-0.012796400000000001,0.143321,3.22467,5,6.861,5
1774299881373,-0.0424185,1.06077,0.0285588,-0.617329,-0.0326786,0.157393,6.07679,5,6.877,5
1774299881386,-0.0397413,1.0624,0.0168251,-0.624857,-0.0515442,0.174834,3.23395,5,6.89,5
1774299881400,-0.0386653,1.06078,0.00626657,-0.635687,-0.0726999,0.189665,3.22932,5,6.904,5
1774299881413,-0.0415868,1.06429,-0.00153469,-0.6463120000000001,-0.0898686,0.19340900000000003,3.236,5,6.917,5
1774299881426,-0.0449678,1.06861,-0.0105856,-0.648181,-0.10001099999999999,0.1938,3.22984,5,6.93,1
1774299881440,-0.0471652,1.06602,-0.021942,-0.6461629999999999,-0.106151,0.199393,3.22917,5,6.944,1
1774299881453,-0.0488501,1.06308,-0.0324921,-0.645188,-0.109736,0.204522,3.25393,5,6.957,1
1774299881466,-0.0506002,1.06438,-0.0431574,-0.638637,-0.109601,0.20333500000000002,3.25391,5,6.97,1
1774299881480,-0.0505761,1.06369,-0.0544667,-0.625564,-0.106151,0.201316,3.256,5,6.984,1
1774299881493,-0.0487913,1.0618,-0.0662422,-0.608698,-0.10259499999999999,0.20292000000000002,3.27071,5,6.997,1
1774299881506,-0.0479067,1.05979,-0.0770224,-0.589353,-0.100043,0.204054,3.23745,5,7.01,1
1774299881520,-0.0494418,1.06035,-0.086146,-0.566113,-0.0970088,0.200658,3.22209,5,7.024,1
1774299881533,-0.0531305,1.0599,-0.0939417,-0.537784,-0.0910535,0.197324,3.23015,5,7.037,1
1774299881546,-0.0529744,1.06113,-0.101172,-0.50749,-0.0849227,0.19473400000000002,3.40338,5,7.05,1
1774299881560,-0.0473158,1.05755,-0.109144,-0.475893,-0.08179489999999999,0.18799800000000003,3.24943,5,7.064,1
1774299881573,-0.0389792,1.06032,-0.113296,-0.44474600000000003,-0.08492699999999999,0.17668199999999998,3.22656,5,7.077,1
1774299881586,-0.0315945,1.06745,-0.11542,-0.403554,-0.09522259999999999,0.16765000000000002,3.22287,5,7.09,1
1774299881600,-0.0253014,1.06968,-0.119053,-0.356485,-0.11067,0.162318,3.229,5,7.104,1
1774299881613,-0.018376,1.06952,-0.123829,-0.309222,-0.131296,0.15613300000000002,3.22341,5,7.117,1
1774299881626,-0.0160776,1.08123,-0.124863,-0.254608,-0.155395,0.150124,3.22719,5,7.13,1
1774299881640,-0.0257631,1.08018,-0.0938952,-0.204928,-0.172429,0.144071,3.23365,5,7.144,1
1774299881653,-0.0318006,1.08873,-0.0583135,-0.15637800000000002,-0.16912,0.138294,3.27028,5,7.157,1
1774299881666,-0.0339012,1.10354,-0.0393743,-0.09304690000000002,-0.16514500000000001,0.130524,3.22543,5,7.17,1
1774299881680,-0.03386,1.09946,-0.031054,-0.036197,-0.157089,0.12065,3.23617,5,7.184,1
1774299881693,-0.0357852,1.09464,-0.0232258,0.00273879,-0.15343299999999999,0.111626,3.23067,5,7.197,1
1774299881706,-0.0389607,1.09438,-0.0146294,0.0357482,-0.155732,0.102826,3.22289,5,7.21,1
1774299881719,-0.0441542,1.08625,-0.00872596,0.0627912,-0.157098,0.09190670000000001,3.23119,5,7.223,1
1774299881733,-0.0481702,1.08092,-0.00203431,0.0835772,-0.15518,0.079498,3.22546,5,7.237,1
1774299881746,-0.0497792,1.07413,0.00511208,0.10305199999999999,-0.15205,0.0685731,3.47133,5,7.25,1
1774299881760,-0.0527805,1.06669,0.00770722,0.118317,-0.147294,0.060106599999999996,3.22704,5,7.264,1
1774299881773,-0.0572201,1.05967,0.0109149,0.128092,-0.140025,0.049121899999999996,3.23483,5,7.277,1
1774299881786,-0.0555825,1.05223,0.0149325,0.13600500000000001,-0.131464,0.0377942,3.22994,5,7.29,1
1774299881800,-0.0538137,1.04731,0.018689,0.141847,-0.124291,0.0339444,3.23263,5,7.304,1
1774299881813,-0.0540014,1.04374,0.0227297,0.145439,-0.116219,0.0334748,3.22983,5,7.317,2
1774299881826,-0.0550777,1.03972,0.0273624,0.147018,-0.104917,0.0319397,3.22978,5,7.33,2
1774299881839,-0.0546763,1.03801,0.0323477,0.148568,-0.09420210000000001,0.031115800000000002,3.23376,5,7.343,2
1774299881853,-0.0550718,1.0351,0.037841,0.150567,-0.0859508,0.0307535,3.25193,5,7.357,2
1774299881866,-0.0587706,1.03341,0.0434571,0.154144,-0.0786333,0.029225400000000002,3.32916,5,7.37,2
1774299881879,-0.0615388,1.02752,0.0490945,0.157462,-0.0716277,0.0250384,3.22728,5,7.383,2
1774299881893,-0.0638017,1.02847,0.0526275,0.161535,-0.06668510000000001,0.0201099,3.23252,5,7.397,2
1774299881906,-0.0644815,1.02167,0.0584404,0.162451,-0.0635526,0.014473100000000001,3.23085,5,7.41,2
1774299881919,-0.0661031,1.02388,0.0612018,0.16328900000000002,-0.058776,0.0105783,3.23924,5,7.423,2
1774299881933,-0.0639383,1.01561,0.0635648,0.16244599999999998,-0.053398100000000004,0.0053562900000000005,3.23467,1,7.437,2
1774299881946,-0.0640142,1.02572,0.0629737,0.16176500000000002,-0.048450400000000005,0.00464478,3.27015,1,7.45,2
1774299881959,-0.0618126,1.01509,0.0682487,0.15841100000000002,-0.0442982,0.00341226,3.27258,1,7.463,2
1774299881973,-0.0608177,1.02082,0.0686806,0.161181,-0.038828999999999995,0.00340498,3.2322,1,7.477,2
1774299881986,-0.0623113,1.02192,0.0652927,0.16002300000000003,-0.034933900000000004,0.0038990799999999996,3.23259,1,7.49,2
1774299881999,-0.0627146,1.02955,0.0626401,0.161644,-0.032315,0.0042584300000000005,3.23359,1,7.503,2
1774299882013,-0.0622461,1.0235,0.0611713,0.16291799999999998,-0.029967100000000003,0.00579653,3.23306,1,7.517,2
1774299882026,-0.0629405,1.02672,0.06187,0.164651,-0.0278366,0.00899537,3.23226,1,7.53,2
1774299882039,-0.063028,1.01914,0.0604028,0.166454,-0.0254103,0.0109828,3.25258,1,7.543,2
1774299882053,-0.0652471,1.02653,0.0589677,0.16628900000000002,-0.0217198,0.0135225,3.28634,1,7.557,2
1774299882066,-0.0646358,1.02101,0.0519366,0.16764099999999998,-0.0188402,0.0157913,3.22739,1,7.57,2
1774299882079,-0.0666991,1.02824,0.0539361,0.162382,-0.0145977,0.017645900000000003,3.22872,1,7.583,2
1774299882093,-0.0638142,1.01078,0.0569371,0.16132300000000002,-0.011351,0.018779900000000002,3.23519,1,7.597,2
1774299882108,-0.0653262,1.01431,0.0572551,0.15787900000000002,-0.00504085,0.0203213,5.30068,1,7.612,2
1774299882121,-0.064893,1.01281,0.0575379,0.153374,-0.00016365500000000002,0.0224314,3.25061,1,7.625,2
1774299882135,-0.066486,1.01328,0.0560359,0.152761,0.00483818,0.024769899999999997,3.24324,1,7.639,2
1774299882148,-0.0686926,1.01297,0.0542259,0.15151,0.00988915,0.025161799999999998,3.24276,1,7.652,2
1774299882161,-0.0693187,1.01345,0.0535308,0.150727,0.014477,0.0249279,3.25369,1,7.665,2
1774299882175,-0.0706754,1.01202,0.0515634,0.149924,0.0195011,0.024343200000000002,3.26963,1,7.679,2
1774299882188,-0.0697199,1.00809,0.051337,0.149564,0.024264800000000003,0.0227208,3.27658,1,7.692,2
1774299882201,-0.0703544,1.01179,0.0478748,0.149675,0.028487300000000004,0.021998700000000003,3.24015,1,7.705,2
1774299882215,-0.0709292,1.00832,0.049582,0.149766,0.0317707,0.0200368,3.25267,1,7.719,2
1774299882228,-0.0706993,1.01046,0.0482358,0.15293400000000001,0.0348785,0.0187459,3.23761,1,7.732,2
1774299882241,-0.0703301,1.01108,0.0470339,0.15496200000000002,0.0366173,0.01787,3.24043,1,7.745,2
1774299882255,-0.0706283,1.01095,0.0469308,0.158383,0.0379418,0.0167605,3.25313,1,7.759,2
1774299882268,-0.0713191,1.00905,0.0474622,0.160902,0.0399926,0.0147028,3.25263,1,7.772,2
1774299882282,-0.0728873,1.01014,0.0441588,0.165026,0.0428662,0.0135441,3.23593,1,7.786,3
1774299882295,-0.0720273,1.0085,0.0419713,0.16778400000000002,0.046833099999999996,0.012124999999999999,3.27982,3,7.799,3
1774299882308,-0.0734257,1.01466,0.0364416,0.17201899999999998,0.0507146,0.0123569,3.24771,3,7.812,3
1774299882322,-0.0726703,1.00993,0.0391721,0.17358,0.0536332,0.0112485,3.23358,3,7.826,3
1774299882335,-0.0714141,1.00626,0.0390178,0.17898,0.0568335,0.0106989,3.24461,3,7.839,3
1774299882348,-0.0720172,1.00557,0.0353789,0.18272,0.058437,0.00985038,3.23843,3,7.852,3
1774299882362,-0.0731278,1.00608,0.030255,0.18583400000000003,0.060220300000000004,0.00818029,3.26702,3,7.866,3
1774299882375,-0.0741258,1.00517,0.0257715,0.18807600000000002,0.0610172,0.0052979,3.23911,3,7.879,3
1774299882388,-0.075048,1.00532,0.0217723,0.189931,0.0622361,0.00235882,3.24735,3,7.892,3
1774299882402,-0.0772432,1.00547,0.0203504,0.191797,0.0635194,-0.00158864,3.2425,3,7.906,3
1774299882415,-0.0797909,1.00716,0.0167805,0.19564,0.0657413,-0.00635944,3.23071,3,7.919,3
1774299882428,-0.0804013,1.00552,0.0172638,0.196737,0.0683566,-0.012314199999999999,3.24085,3,7.932,3
1774299882442,-0.0790206,1.0064,0.0118537,0.201925,0.0716902,-0.0164363,3.23883,3,7.946,3
1774299882455,-0.0778176,1.00867,0.013759,0.202554,0.0757316,-0.0197833,3.3926,3,7.959,3
1774299882468,-0.0774894,1.01981,0.00586496,0.21105100000000002,0.0803471,-0.018956200000000003,3.23491,3,7.972,3
1774299882482,-0.0782539,1.0171,0.0122068,0.20891600000000002,0.0844083,-0.0170537,3.30226,3,7.986,3
1774299882495,-0.0801594,1.01714,0.0122709,0.217078,0.0920225,-0.012264800000000001,3.24308,3,7.999,3
1774299882508,-0.0871172,1.03883,0.00718587,0.223403,0.101381,-0.009153350000000001,3.23622,3,8.012,3
1774299882522,-0.0885177,1.04989,0.00955151,0.231425,0.112427,-0.00469632,3.24272,3,8.026,3
1774299882535,-0.0884262,1.06523,0.00978509,0.244739,0.12349700000000001,0.00628033,3.24046,3,8.039,4
1774299882548,-0.0849968,1.07698,0.00838556,0.264247,0.13239499999999998,0.021424099999999998,3.25189,3,8.052,4
1774299882562,-0.0841625,1.08976,0.00742094,0.278567,0.13853000000000001,0.0363265,3.25406,3,8.066,4
1774299882575,-0.0826599,1.10072,0.00428838,0.297594,0.142149,0.051900100000000005,3.27099,3,8.079,4
1774299882589,-0.0837962,1.11472,0.00554222,0.318492,0.13966900000000002,0.0632775,3.24278,3,8.093,4
1774299882602,-0.0911715,1.12548,0.00280145,0.353285,0.139683,0.0702016,3.24271,3,8.106,4
1774299882615,-0.0960568,1.12443,0.00617028,0.38333500000000004,0.143825,0.0699248,3.24724,3,8.119,4
1774299882628,-0.102907,1.12316,0.00329527,0.418893,0.155389,0.06901270000000001,3.23624,3,8.132,4
1774299882642,-0.105293,1.11947,0.0046566,0.44483100000000003,0.173144,0.0657111,3.24528,3,8.146,4
1774299882655,-0.110532,1.10671,0.0130372,0.469634,0.188977,0.0578247,3.26884,3,8.159,4
1774299882668,-0.117934,1.09107,0.0169086,0.480454,0.206569,0.0419454,3.26395,3,8.172,4
1774299882682,-0.127094,1.06414,0.043865,0.469428,0.221585,0.0168687,3.24313,3,8.186,5
1774299882695,-0.126309,1.04409,0.0675178,0.454525,0.244134,-0.020422,3.27873,3,8.199,5
1774299882709,-0.12182,1.02255,0.0896131,0.42643500000000006,0.26732900000000004,-0.0518785,3.25576,3,8.213,5
1774299882722,-0.110493,1.00886,0.111692,0.396735,0.281758,-0.0745527,3.24471,3,8.226,5
1774299882735,-0.0990194,0.997089,0.131333,0.36619999999999997,0.288558,-0.0899989,3.24919,3,8.239,5
1774299882749,-0.0907706,0.985483,0.148822,0.33375900000000003,0.291028,-0.101663,3.24089,3,8.253,5
1774299882762,-0.0822526,0.974939,0.165365,0.29921600000000004,0.287729,-0.11421400000000001,3.27306,3,8.266,5
1774299882775,-0.078506,0.965369,0.180512,0.26411100000000004,0.282149,-0.12508,3.2516,3,8.279,5
1774299882789,-0.0742934,0.954295,0.192413,0.226161,0.275503,-0.13153499999999999,3.24778,2,8.293,5
1774299882802,-0.0703717,0.945265,0.200718,0.184641,0.26656199999999997,-0.137405,3.2525,2,8.306,5
1774299882815,-0.065415,0.935583,0.206044,0.13972500000000002,0.255763,-0.143177,3.23922,2,8.319,5
1774299882829,-0.0625863,0.925556,0.209643,0.08990830000000001,0.24339500000000003,-0.145564,3.24791,2,8.333,5
1774299882842,-0.0605966,0.919618,0.212497,0.0355424,0.22964400000000001,-0.147123,3.24432,4,8.346,5
1774299882855,-0.0599325,0.916162,0.213379,-0.019649200000000002,0.215838,-0.147186,3.25058,4,8.359,5
1774299882869,-0.0592547,0.915728,0.212728,-0.07604390000000001,0.200935,-0.14422200000000002,3.26317,4,8.373,5
1774299882882,-0.0560334,0.918346,0.209927,-0.133022,0.18513400000000002,-0.13892400000000002,3.25428,4,8.386,5
1774299882895,-0.0488957,0.926124,0.206362,-0.188071,0.164965,-0.13253600000000001,3.23922,4,8.399,5
1774299882909,-0.0461595,0.936145,0.203028,-0.236787,0.142258,-0.12249800000000001,3.23415,4,8.413,5
1774299882922,-0.0473759,0.948077,0.199915,-0.27791899999999997,0.120718,-0.110159,3.30932,4,8.426,5
1774299882935,-0.0503115,0.960181,0.196318,-0.31182,0.102522,-0.0985249,3.25721,4,8.439,5
1774299882949,-0.0507164,0.968745,0.189622,-0.343845,0.08629830000000001,-0.08954290000000001,3.25541,5,8.453,5
1774299882962,-0.0517336,0.973774,0.178703,-0.38181,0.0718448,-0.07978880000000001,3.2636,5,8.466,5
1774299882975,-0.0493537,0.984402,0.166884,-0.42495600000000006,0.059431000000000005,-0.0686078,3.28671,5,8.479,5
1774299882989,-0.0417501,0.999711,0.153821,-0.464178,0.0423226,-0.056174299999999996,3.23817,5,8.493,5
1774299883002,-0.0353866,1.01497,0.14025,-0.497423,0.0192886,-0.04324360000000001,3.23652,5,8.506,5
1774299883015,-0.0333906,1.03025,0.127828,-0.524368,-0.005651850000000001,-0.0316334,3.24504,5,8.519,5
1774299883029,-0.0343006,1.04945,0.116995,-0.539589,-0.0302681,-0.0213295,3.23865,5,8.533,5
1774299883042,-0.0380963,1.06727,0.106615,-0.539467,-0.054985099999999995,-0.0117577,3.24506,5,8.546,5
1774299883055,-0.0443098,1.07811,0.0935281,-0.5281450000000001,-0.0783114,-0.0015967700000000002,3.27949,5,8.559,5
1774299883069,-0.0534973,1.07386,0.0774905,-0.524147,-0.09804700000000001,0.010679000000000001,3.28126,5,8.573,5
1774299883082,-0.0596779,1.07019,0.064706,-0.532534,-0.116693,0.0198169,3.24048,5,8.586,5
1774299883096,-0.066421,1.06949,0.0523951,-0.544274,-0.13148400000000002,0.030882999999999997,3.23733,5,8.6,5
1774299883109,-0.068812,1.06936,0.0407401,-0.5579160000000001,-0.147963,0.043918799999999994,3.24617,5,8.613,5
1774299883122,-0.0743442,1.07107,0.0296802,-0.569457,-0.162126,0.0561292,3.23993,5,8.626,5
1774299883136,-0.0845992,1.07235,0.0201397,-0.578385,-0.16854500000000003,0.06971429999999999,3.24843,5,8.64,5
1774299883149,-0.0960286,1.07381,0.0107708,-0.583794,-0.164696,0.0861556,3.27275,5,8.653,5
1774299883163,-0.10478,1.07252,0.00107493,-0.584485,-0.150923,0.102236,3.58942,5,8.667,5
1774299883176,-0.109583,1.06213,-0.0116562,-0.589966,-0.131757,0.113423,3.23209,5,8.68,1
1774299883189,-0.111997,1.05605,-0.0196773,-0.60549,-0.107419,0.115946,3.23841,5,8.693,1
1774299883203,-0.110185,1.05647,-0.0241872,-0.617758,-0.0783229,0.112932,3.24421,5,8.707,1
1774299883216,-0.104576,1.05632,-0.0289484,-0.622285,-0.050225200000000005,0.110528,3.24993,5,8.72,1
1774299883229,-0.0955827,1.05555,-0.0350281,-0.622795,-0.0275401,0.105968,3.27039,5,8.733,1
1774299883243,-0.0868222,1.05589,-0.0403935,-0.6186780000000001,-0.00959574,0.0957934,3.24171,5,8.747,1
1774299883256,-0.0801105,1.05873,-0.0457591,-0.605577,0.00516258,0.0842928,3.25099,5,8.76,1
1774299883269,-0.0738844,1.05929,-0.052513,-0.583799,0.0166139,0.0757923,3.25517,5,8.773,1
1774299883283,-0.067984,1.05536,-0.0625056,-0.558969,0.024583900000000002,0.06894180000000001,3.24878,5,8.787,1
1774299883296,-0.0623203,1.05301,-0.0740257,-0.534548,0.0311692,0.059058700000000006,3.24335,5,8.8,1
1774299883309,-0.0566695,1.05622,-0.0889284,-0.502594,0.0375907,0.04694670000000001,3.23889,5,8.813,1
1774299883323,-0.0495254,1.06429,-0.106489,-0.460747,0.0400808,0.0362035,3.28632,5,8.827,1
1774299883336,-0.0423413,1.06741,-0.125076,-0.41084699999999996,0.0395839,0.0284222,3.25191,5,8.84,1
1774299883349,-0.0389949,1.07218,-0.143116,-0.35742199999999996,0.0368925,0.0203581,3.25184,5,8.853,1
1774299883363,-0.0380262,1.06817,-0.159792,-0.300965,0.0346604,0.0104983,3.31638,5,8.867,1
1774299883376,-0.0276402,1.06064,-0.116011,-0.261483,0.030853600000000002,-0.00912777,3.29782,5,8.88,1
1774299883389,-0.0327522,1.06486,-0.0592506,-0.224555,0.0296796,-0.00549001,3.24178,2,8.893,1
1774299883403,-0.0249457,1.09978,-0.0319317,-0.15037699999999998,0.0215235,0.017456100000000002,3.2373,2,8.907,1
1774299883416,-0.0280935,1.1021,-0.0223354,-0.0648643,0.018072500000000002,0.0271174,3.24341,2,8.92,1
1774299883430,-0.0343708,1.09084,-0.0215295,-0.011188,0.0192982,0.0202354,3.24063,2,8.934,1
1774299883443,-0.0348429,1.09469,-0.0132422,0.0303827,0.0144819,0.0102027,3.24634,2,8.947,1
1774299883456,-0.0334045,1.08849,-0.00907569,0.0698015,0.00412105,0.00184168,3.24021,2,8.96,1
1774299883470,-0.030214,1.0828,-0.00555046,0.09515269999999999,-0.0113364,-0.0012589300000000001,3.30458,2,8.974,1
1774299883483,-0.030601,1.07676,0.00402388,0.11483900000000001,-0.0257127,0.000199008,3.24865,5,8.987,1
1774299883496,-0.0318465,1.06833,0.0107025,0.13084300000000001,-0.032907000000000006,0.00439692,3.2435,5,9.0,1
1774299883510,-0.0333579,1.06266,0.0114516,0.142862,-0.0348078,0.00921573,3.24809,5,9.014,1
1774299883523,-0.0339811,1.05174,0.0163853,0.146191,-0.0344054,0.0137214,3.24165,5,9.027,1
1774299883536,-0.038805,1.0493,0.0213809,0.14705100000000002,-0.0312295,0.019777,3.2481,5,9.04,1
1774299883550,-0.0422756,1.03787,0.0259444,0.149118,-0.0256925,0.0219305,3.24648,5,9.054,1
1774299883563,-0.0481462,1.03999,0.026753,0.145271,-0.0198582,0.0224645,3.24947,5,9.067,2
1774299883576,-0.048838,1.0278,0.0359183,0.141879,-0.0162608,0.023041299999999997,3.264,5,9.08,2
1774299883590,-0.0505886,1.02625,0.0423231,0.140733,-0.0130365,0.023881199999999998,3.24152,5,9.094,2
1774299883603,-0.0551667,1.02635,0.0456932,0.140367,-0.00908102,0.0220064,3.24591,5,9.107,2
1774299883616,-0.0577295,1.03078,0.0439725,0.141631,-0.0036346499999999997,0.0180531,3.23717,5,9.12,2
1774299883630,-0.0602444,1.02462,0.051285,0.138645,0.000491411,0.0129341,3.24593,5,9.134,2
1774299883643,-0.0605352,1.03176,0.051263,0.141273,0.0043774700000000005,0.00881738,3.23667,5,9.147,2
1774299883656,-0.0623188,1.01922,0.0600717,0.136954,0.00833672,0.00191284,3.25174,1,9.16,2
1774299883670,-0.0617928,1.02644,0.0598789,0.139963,0.013735200000000001,-0.00419335,3.2708,1,9.174,2
1774299883683,-0.0619199,1.01389,0.0663463,0.13381200000000001,0.0187153,-0.0103381,3.25052,1,9.187,2
1774299883696,-0.059671,1.03099,0.0635409,0.139186,0.023154900000000003,-0.014151400000000001,3.24061,1,9.2,2
1774299883710,-0.0612255,1.03278,0.0619793,0.136654,0.0241169,-0.0177251,3.23893,1,9.214,2
1774299883723,-0.0589643,1.02873,0.0653119,0.140002,0.0249008,-0.0236547,3.24595,1,9.227,2
1774299883736,-0.0592257,1.02678,0.0655092,0.142999,0.024493200000000003,-0.0285879,3.23802,1,9.24,2
1774299883750,-0.0591554,1.02577,0.0659115,0.147541,0.023085,-0.0337154,3.24613,1,9.254,2
1774299883763,-0.0586824,1.02143,0.0672464,0.153387,0.022689300000000003,-0.0392447,3.23926,1,9.267,2
1774299883776,-0.057771,1.01867,0.0690247,0.160553,0.021793399999999997,-0.044279700000000005,3.29877,1,9.28,2
1774299883790,-0.0572731,1.01852,0.0650024,0.167484,0.0218598,-0.0495033,3.23339,1,9.294,2
1774299883803,-0.0582064,1.01677,0.0642737,0.169826,0.0235025,-0.0542584,3.23632,1,9.307,2
1774299883816,-0.0562374,1.01474,0.0614415,0.17357,0.0258024,-0.057612,3.24472,1,9.32,2
1774299883830,-0.0550592,1.01565,0.0625128,0.17415299999999997,0.0281488,-0.0594844,3.2383,1,9.334,2
1774299883843,-0.0521816,1.01186,0.0634411,0.178116,0.028723600000000002,-0.0607379,3.24885,1,9.347,2
1774299883856,-0.0493443,1.01056,0.0632719,0.17946,0.0299513,-0.0607393,3.24015,1,9.36,2
1774299883870,-0.0465992,1.00864,0.0630459,0.180603,0.0298427,-0.059725900000000005,3.44087,1,9.374,2
1774299883883,-0.0440701,1.00985,0.0625736,0.181289,0.0289309,-0.0578273,3.23563,1,9.387,2
1774299883896,-0.0429863,1.00977,0.0599439,0.18354600000000001,0.0271069,-0.0559795,3.23834,1,9.4,2
1774299883910,-0.0429855,1.00841,0.0597247,0.182563,0.0261516,-0.054308100000000005,3.24308,1,9.414,3
1774299883923,-0.0404864,1.00426,0.0602091,0.18305700000000003,0.0255967,-0.0525764,3.23824,1,9.427,3
1774299883936,-0.0389187,1.00977,0.0542982,0.183815,0.0265203,-0.048856500000000004,3.27045,1,9.44,3
1774299883950,-0.0379747,1.01181,0.050952,0.18306999999999998,0.0277688,-0.0450884,3.23769,1,9.454,3
1774299883963,-0.0379689,1.01287,0.0488412,0.185249,0.0303218,-0.0409493,3.25324,1,9.467,3
1774299883976,-0.0382303,1.01507,0.0465344,0.188842,0.033134000000000004,-0.0373421,3.25434,1,9.48,3
1774299883990,-0.0379143,1.01447,0.0460688,0.19470900000000002,0.035219,-0.034845,3.25608,1,9.494,3
1774299884003,-0.0371638,1.01373,0.0457838,0.20172,0.0365877,-0.0325008,3.24726,1,9.507,3
1774299884016,-0.0369265,1.01746,0.0424042,0.210465,0.03892,-0.028661,3.2343,1,9.52,3
1774299884030,-0.0359416,1.01909,0.0388415,0.21943100000000001,0.040457799999999995,-0.0264325,3.24163,1,9.534,3
1774299884043,-0.0366332,1.02642,0.0325731,0.230716,0.0427229,-0.024954100000000003,3.23685,1,9.547,3
1774299884056,-0.0354476,1.02325,0.036391,0.239698,0.045451899999999996,-0.024650500000000002,3.24293,1,9.56,3
1774299884070,-0.0374314,1.02476,0.0372659,0.253023,0.05007450000000001,-0.021627800000000003,3.24856,1,9.574,3
1774299884083,-0.0356129,1.02512,0.0419889,0.268298,0.055491200000000004,-0.0210142,3.25502,1,9.587,3
1774299884096,-0.0393726,1.03956,0.0340241,0.289708,0.060201500000000005,-0.0190476,3.23895,1,9.6,3
1774299884110,-0.0465873,1.05156,0.0344046,0.30528900000000003,0.0631832,-0.0180262,3.23698,1,9.614,3
1774299884123,-0.0546929,1.05222,0.0374376,0.325473,0.0687638,-0.022067700000000003,3.24028,1,9.627,3
1774299884136,-0.0603728,1.06016,0.039612,0.348129,0.0771999,-0.0308195,3.2345,1,9.64,3
1774299884150,-0.0613841,1.0739,0.039919,0.37561700000000003,0.08491440000000001,-0.0376073,3.24074,3,9.654,3
1774299884163,-0.0604292,1.09059,0.043138,0.40858,0.0897941,-0.0375446,3.28271,3,9.667,3
1774299884176,-0.0553522,1.09655,0.036575,0.44632800000000006,0.0941304,-0.0348135,3.32164,3,9.68,3
1774299884190,-0.0564015,1.10762,0.0352104,0.468842,0.0986173,-0.031507600000000004,3.29064,3,9.694,4
1774299884203,-0.0535612,1.12292,0.0258764,0.499852,0.104377,-0.022786499999999998,3.28304,3,9.707,4
1774299884217,-0.0483681,1.12648,0.0289087,0.52619,0.10537300000000001,-0.0179759,3.29358,3,9.721,4
1774299884230,-0.040797,1.1368,0.0239182,0.562358,0.109889,-0.0189372,3.28751,3,9.734,4
1774299884243,-0.0290513,1.14561,0.0181424,0.597714,0.106174,-0.022182499999999997,3.32869,3,9.747,4
1774299884257,-0.017595,1.15215,0.0169539,0.63977,0.0976965,-0.0184762,3.32756,3,9.761,4
1774299884270,-0.00818794,1.15591,0.0121232,0.684075,0.0801117,-0.012764,3.2988,3,9.774,4
1774299884284,-0.00942072,1.16269,0.00526166,0.733499,0.0609098,-0.00696548,3.29454,3,9.788,4
1774299884297,-0.0164932,1.16207,-0.00730025,0.776309,0.0438684,-0.0007856860000000001,3.27141,3,9.801,4
1774299884310,-0.0284027,1.15476,-0.0105684,0.81176,0.0331137,0.00039736100000000005,3.28213,3,9.814,4
1774299884324,-0.0469021,1.13519,-0.00456494,0.8331780000000001,0.033422900000000005,-0.00686984,3.27176,3,9.828,4
1774299884337,-0.0719062,1.10283,0.0166361,0.832499,0.049031000000000005,-0.017304800000000002,3.28165,2,9.841,4
1774299884350,-0.0867415,1.07099,0.0383728,0.808102,0.07166789999999999,-0.040231199999999995,3.27015,2,9.854,5
1774299884365,-0.0915536,1.04278,0.0618387,0.762675,0.0982246,-0.073681,4.11142,2,9.869,5
1774299884378,-0.0986751,1.02419,0.0862963,0.711588,0.131629,-0.0983179,3.30082,2,9.882,5
1774299884391,-0.106104,1.0044,0.108478,0.656447,0.169564,-0.111189,3.27426,2,9.895,5
1774299884405,-0.109301,0.980352,0.127746,0.5952700000000001,0.21127300000000002,-0.123484,3.29486,2,9.909,5
1774299884418,-0.109646,0.955704,0.145232,0.523382,0.25555700000000003,-0.140421,3.26989,2,9.922,5
1774299884432,-0.105256,0.933308,0.161153,0.442376,0.298355,-0.151534,3.27671,5,9.936,5
1774299884445,-0.0975998,0.916622,0.174552,0.35869100000000004,0.333636,-0.15682600000000002,3.28184,5,9.949,5
1774299884459,-0.0876193,0.900954,0.184674,0.27081900000000003,0.358468,-0.161817,4.09265,2,9.963,5
1774299884472,-0.0797623,0.889964,0.192922,0.179839,0.373746,-0.160409,3.27223,5,9.976,5
1774299884486,-0.0742348,0.884484,0.19923,0.08728709999999999,0.381081,-0.148697,3.29947,5,9.99,5
1774299884499,-0.0689811,0.883834,0.202561,-0.005361540000000001,0.379778,-0.132434,3.32695,5,10.003,5
1774299884513,-0.0642774,0.885316,0.203632,-0.0972707,0.370747,-0.113248,3.41038,5,10.017,5
1774299884528,-0.0597154,0.888677,0.202809,-0.189334,0.35273000000000004,-0.08812810000000001,5.14628,5,10.032,5
1774299884542,-0.0575523,0.891463,0.198744,-0.28714300000000004,0.328671,-0.0580631,3.30912,5,10.046,5
1774299884555,-0.0541599,0.90505,0.194985,-0.38690399999999997,0.299758,-0.0292992,3.30849,5,10.059,5
1774299884568,-0.0483854,0.924823,0.191241,-0.477202,0.26728,0.00126401,3.26578,5,10.072,5
1774299884582,-0.0407068,0.945877,0.18607,-0.5589500000000001,0.23214200000000002,0.041228499999999994,3.3647,5,10.086,5
1774299884595,-0.0337803,0.969576,0.17962,-0.633287,0.197861,0.08459910000000001,3.25624,5,10.099,5
1774299884609,-0.0300929,0.994812,0.172085,-0.6954680000000001,0.168415,0.121187,3.30108,5,10.113,5
1774299884622,-0.0317984,1.01687,0.162776,-0.748196,0.148422,0.150177,3.29514,5,10.126,5
1774299884635,-0.0318278,1.0408,0.153245,-0.792632,0.141321,0.172411,3.27217,5,10.139,5
1774299884649,-0.0201007,1.06572,0.143308,-0.8244480000000001,0.13958600000000002,0.18807200000000002,3.28132,5,10.153,5
1774299884662,-0.00554452,1.07837,0.127944,-0.851264,0.131709,0.20234000000000002,3.2988,5,10.166,5
1774299884676,0.00414701,1.09418,0.112259,-0.881355,0.115967,0.20797200000000002,3.31327,5,10.18,5
1774299884689,0.00890905,1.11444,0.0954127,-0.900684,0.101001,0.206908,3.31321,5,10.193,5
1774299884703,0.0128863,1.13745,0.0771893,-0.90566,0.0855945,0.214399,3.61921,5,10.207,5
1774299884716,0.0218892,1.15408,0.0555882,-0.893816,0.0626468,0.228047,3.28221,5,10.22,5
1774299884730,0.0275303,1.14288,0.0260379,-0.892437,0.0274299,0.24039000000000002,3.28019,5,10.234,1
1774299884743,0.0228883,1.14342,0.0041326,-0.9084260000000001,-0.00965677,0.239362,3.2868,5,10.247,1
1774299884757,0.0162179,1.15811,-0.0144231,-0.907585,-0.0398203,0.230247,3.33268,5,10.261,1
1774299884770,0.016822,1.16684,-0.0376551,-0.8889230000000001,-0.0686003,0.234451,3.33247,5,10.274,1
1774299884784,0.018243,1.16577,-0.0623376,-0.8670690000000001,-0.100981,0.24719300000000002,3.32032,5,10.288,1
1774299884798,0.0138471,1.16516,-0.0827055,-0.8430150000000001,-0.131507,0.250579,3.89807,5,10.302,1
1774299884811,0.0108926,1.16512,-0.101681,-0.811721,-0.156078,0.24522400000000003,3.27388,5,10.315,1
1774299884824,0.0130641,1.16504,-0.119549,-0.772467,-0.18240800000000001,0.242653,3.27076,5,10.328,1
1774299884838,0.0170198,1.15806,-0.135792,-0.731561,-0.21509799999999998,0.243613,3.29138,5,10.342,1
1774299884851,0.0138091,1.15184,-0.144566,-0.693806,-0.249782,0.24136800000000003,3.28399,5,10.355,1
1774299884865,0.00604101,1.14947,-0.146422,-0.650778,-0.280213,0.23757000000000003,3.29893,5,10.369,1
1774299884878,0.0026912,1.14524,-0.146201,-0.602439,-0.307425,0.240079,3.27621,5,10.382,1
1774299884892,0.000790466,1.14138,-0.143106,-0.552808,-0.336164,0.246608,3.99237,5,10.396,1
1774299884906,-0.000279761,1.13394,-0.138567,-0.5028779999999999,-0.36430500000000005,0.247642,3.31065,5,10.41,1
1774299884919,-0.00310758,1.12991,-0.132742,-0.45144599999999996,-0.388894,0.24375,3.2768,5,10.423,1
1774299884932,-0.00375109,1.12167,-0.126584,-0.399931,-0.411975,0.24055,3.29845,5,10.436,1
1774299884946,-0.0105911,1.10815,-0.1165,-0.358945,-0.42772,0.23638800000000001,3.28145,5,10.45,1
1774299884959,-0.0107792,1.10331,-0.0959772,-0.32366100000000003,-0.430332,0.22321400000000002,3.28808,5,10.463,1
1774299884973,0.00351877,1.10679,-0.0590446,-0.281147,-0.42542800000000003,0.209049,3.27791,5,10.477,1
1774299884987,0.0170527,1.1071,-0.0237804,-0.23656,-0.415754,0.214031,3.94451,5,10.491,1
1774299885000,0.0201079,1.11543,-0.00223016,-0.186535,-0.391342,0.221846,3.27976,5,10.504,1
1774299885014,0.0183957,1.11742,0.00968669,-0.131827,-0.351719,0.22389199999999998,3.26089,5,10.518,1
1774299885027,0.0177621,1.11326,0.0174736,-0.08862360000000001,-0.310251,0.22500900000000001,3.31756,5,10.531,1
1774299885040,0.0151061,1.11082,0.025016,-0.0520994,-0.27237700000000004,0.228972,3.27028,5,10.544,1
1774299885054,0.0102922,1.10657,0.031524,-0.022753600000000002,-0.23944,0.230665,3.2874,5,10.558,1
1774299885067,0.00710881,1.10421,0.0409077,0.0031861899999999998,-0.213451,0.228328,3.26123,5,10.571,1
1774299885081,0.00105376,1.10059,0.0499344,0.0297905,-0.195432,0.22703900000000002,3.28119,5,10.585,1
1774299885094,-0.0077367,1.09244,0.055438,0.0541961,-0.181862,0.22263200000000002,3.28775,5,10.598,1
1774299885107,-0.0189507,1.08327,0.059804,0.07382,-0.169426,0.20996900000000002,3.29812,5,10.611,1
1774299885121,-0.030315,1.07362,0.0671608,0.0899282,-0.154206,0.191948,3.28506,5,10.625,1
1774299885134,-0.0379685,1.06993,0.0714093,0.106297,-0.135575,0.170768,3.26247,5,10.638,1
1774299885147,-0.0388598,1.06025,0.0758243,0.118687,-0.118679,0.14878,3.27969,3,10.651,1
1774299885161,-0.0385377,1.05635,0.0772168,0.128117,-0.1033,0.130762,3.26008,3,10.665,1
1774299885174,-0.0342792,1.04338,0.0833957,0.135557,-0.09024760000000001,0.11473900000000001,3.28645,3,10.678,2
1774299885188,-0.0326627,1.04364,0.082247,0.144593,-0.0783173,0.103717,3.28084,3,10.692,2
1774299885202,-0.0274119,1.04116,0.0838925,0.149794,-0.07081140000000001,0.0958358,4.30152,3,10.706,2
1774299885215,-0.0224869,1.0357,0.0869287,0.155689,-0.0656919,0.0923356,3.27395,3,10.719,2
1774299885229,-0.0183431,1.02993,0.0903447,0.159956,-0.0634629,0.09188349999999999,3.27836,3,10.733,2
1774299885242,-0.0152988,1.02858,0.0914866,0.166416,-0.063821,0.09394450000000001,3.38011,3,10.746,2
1774299885256,-0.0159537,1.0261,0.0965396,0.16855599999999998,-0.0658161,0.0986045,3.30599,3,10.76,2
1774299885269,-0.0179145,1.02602,0.0963536,0.175951,-0.0673268,0.10522500000000001,3.32253,3,10.773,2
1774299885282,-0.0256192,1.0292,0.09719,0.175908,-0.0659781,0.109655,3.26647,3,10.786,2
1774299885296,-0.0286308,1.02771,0.0928542,0.18249600000000002,-0.0630351,0.111948,3.3071,5,10.8,2
1774299885309,-0.0355892,1.02955,0.0951569,0.178357,-0.0597048,0.11465199999999999,3.26471,5,10.813,2
1774299885325,-0.0380473,1.01852,0.102516,0.182037,-0.0570452,0.114498,5.58678,5,10.829,2
1774299885338,-0.0428963,1.00942,0.105218,0.184282,-0.0523553,0.110705,3.28784,5,10.842,2
1774299885352,-0.0470528,1.01144,0.105923,0.185986,-0.048904800000000005,0.105651,3.26439,5,10.856,2
1774299885365,-0.0487426,1.00987,0.103213,0.189517,-0.046277200000000004,0.100611,3.26426,5,10.869,2
1774299885378,-0.0516184,1.01172,0.100215,0.192015,-0.043493000000000004,0.0966763,3.27078,5,10.882,2
1774299885392,-0.0516245,1.01217,0.0986723,0.19473600000000002,-0.0413745,0.0934629,3.29682,5,10.896,2
1774299885405,-0.0539686,1.01231,0.0945493,0.19564399999999998,-0.0384157,0.09180429999999999,3.26111,5,10.909,2
1774299885419,-0.0541602,1.00718,0.0950802,0.195498,-0.0341671,0.0899989,3.28541,5,10.923,2
1774299885432,-0.0548559,1.0124,0.0925664,0.19612300000000002,-0.028371200000000003,0.0904828,3.275,5,10.936,2
1774299885445,-0.0555212,1.00932,0.0937179,0.19587800000000002,-0.023684,0.0911194,3.2701,5,10.949,2
1774299885459,-0.0581006,1.00925,0.0896087,0.198096,-0.017988,0.09169460000000001,3.26587,5,10.963,2
1774299885472,-0.0615174,1.0088,0.0860208,0.197861,-0.012196199999999999,0.0901694,3.29721,5,10.976,2
1774299885485,-0.0646673,1.00692,0.0838818,0.197993,-0.0071959300000000006,0.0877792,3.28134,5,10.989,2
1774299885499,-0.0683201,1.00328,0.083566,0.196907,-0.002352,0.08384029999999999,3.30049,5,11.003,2
1774299885512,-0.0722403,1.00137,0.0796338,0.19685400000000003,0.00388158,0.07855089999999999,3.29647,5,11.016,2
1774299885526,-0.0729781,0.9974,0.0767919,0.19490600000000002,0.010275099999999999,0.0723764,3.28802,1,11.03,2
1774299885539,-0.0751357,1.00154,0.0705722,0.193167,0.0158004,0.0680554,3.27373,1,11.043,2
1774299885552,-0.0759604,0.998012,0.0706035,0.18838200000000002,0.0205619,0.0628464,3.29306,1,11.056,2
1774299885566,-0.0754358,0.994992,0.0702171,0.186704,0.026495,0.05775400000000001,3.2881,1,11.07,2
1774299885579,-0.0744003,0.996663,0.0679791,0.185339,0.0310034,0.0539364,3.29067,1,11.083,2
1774299885593,-0.0754067,0.998624,0.063725,0.18522400000000003,0.034257,0.0511893,3.30041,1,11.097,2
1774299885606,-0.0773833,0.998097,0.0616855,0.184468,0.0373281,0.046382599999999996,3.29277,1,11.11,3
1774299885620,-0.0784835,0.99928,0.0594576,0.185738,0.0401199,0.0404282,3.28002,1,11.124,3
1774299885633,-0.0804644,1.00108,0.0570603,0.187351,0.0421299,0.035578500000000006,3.28426,3,11.137,3
1774299885646,-0.082017,1.00073,0.0535399,0.189457,0.044305500000000005,0.0302644,3.28929,3,11.15,3
1774299885660,-0.0826475,1.0011,0.0529601,0.189341,0.0463077,0.0239167,3.27858,3,11.164,3
1774299885673,-0.0812326,1.00008,0.0485087,0.192714,0.0476538,0.0194065,3.29401,3,11.177,3
1774299885687,-0.0826448,1.00454,0.0461097,0.192382,0.048076600000000004,0.0154877,3.2836,3,11.191,3
1774299885700,-0.0836857,1.00925,0.0357545,0.199493,0.0488781,0.0129961,3.31762,3,11.204,3
1774299885713,-0.0860583,1.01518,0.0316284,0.199102,0.048988199999999996,0.008961519999999999,3.28789,3,11.217,3
1774299885727,-0.0829034,1.00049,0.0375909,0.203413,0.050526400000000006,0.00675466,3.29854,3,11.231,3
1774299885740,-0.0840717,1.00693,0.0313132,0.21023499999999998,0.053931,0.0070994100000000004,3.28919,3,11.244,3
1774299885754,-0.0848687,1.01431,0.0253741,0.21435400000000002,0.0586731,0.007480489999999999,3.27758,3,11.258,3
1774299885767,-0.0878836,1.02102,0.015755,0.220687,0.0651532,0.00895776,3.2991,3,11.271,3
1774299885781,-0.0878839,1.01778,0.0161016,0.224275,0.0726486,0.00802283,3.30608,3,11.285,3
1774299885794,-0.0918026,1.02879,0.00352475,0.23348500000000003,0.08275080000000001,0.00957672,3.31071,3,11.298,3
1774299885807,-0.0909696,1.02839,0.00978741,0.23548200000000002,0.0915499,0.0103755,3.27267,3,11.311,3
1774299885821,-0.0949669,1.03433,-0.000559445,0.251861,0.10266,0.0158395,3.2969,3,11.325,3
1774299885834,-0.0921056,1.03216,0.0111776,0.258111,0.11081300000000001,0.0177513,3.28121,3,11.338,3
1774299885848,-0.0891773,1.03159,0.0133366,0.28056000000000003,0.120149,0.024921099999999998,3.29106,3,11.352,3
1774299885861,-0.0923989,1.04757,0.0105539,0.30234,0.12403700000000001,0.0335856,3.28093,3,11.365,3
1774299885875,-0.0965045,1.05969,0.00904604,0.325917,0.12690200000000001,0.0404753,3.29655,3,11.379,3
1774299885888,-0.0990319,1.06766,0.00851164,0.35117400000000004,0.129543,0.0456939,3.28488,3,11.392,4
1774299885901,-0.101737,1.0826,0.00520326,0.378589,0.13361,0.0548246,3.31836,3,11.405,4
1774299885915,-0.100427,1.09609,0.00370516,0.407763,0.136131,0.0656269,3.30014,3,11.419,4
1774299885928,-0.100904,1.10982,0.00093796,0.4399,0.137042,0.0752837,3.28715,3,11.432,4
1774299885942,-0.0999501,1.11965,0.00228494,0.47382199999999997,0.141883,0.08867219999999999,3.29365,3,11.446,4
1774299885955,-0.0969457,1.13157,-0.000324058,0.508715,0.146946,0.10242699999999999,3.28908,3,11.459,4
1774299885969,-0.0912967,1.13827,-0.00334212,0.545864,0.148385,0.11036699999999999,3.28652,3,11.473,4
1774299885982,-0.087667,1.14032,-0.007755,0.583583,0.14499,0.111755,3.28384,3,11.486,4
1774299885996,-0.0830217,1.13846,-0.0119642,0.620759,0.141743,0.112547,3.58747,3,11.5,4
1774299886009,-0.0791881,1.13291,-0.0182849,0.652582,0.136421,0.114391,3.28249,3,11.513,4
1774299886022,-0.0757357,1.12727,-0.0265499,0.682684,0.12662400000000001,0.116388,3.27734,3,11.526,4
1774299886036,-0.0800575,1.1179,-0.0380943,0.70852,0.116173,0.116702,3.28436,3,11.54,4
1774299886049,-0.0918564,1.10629,-0.0535327,0.728325,0.108393,0.11475099999999999,3.27371,3,11.553,4
1774299886063,-0.104356,1.08437,-0.0657976,0.7325470000000001,0.11625500000000001,0.111919,3.27676,3,11.567,4
1774299886076,-0.115701,1.06187,-0.0763943,0.714433,0.117818,0.10103400000000001,3.30734,3,11.58,4
1774299886089,-0.134163,1.02942,-0.0601878,0.667769,0.123507,0.0833049,3.28988,3,11.593,4
1774299886103,-0.150856,1.02612,-0.043003,0.614298,0.150204,0.0518705,3.3188,3,11.607,5
1774299886116,-0.164459,1.01899,-0.0288333,0.573696,0.187865,0.0101844,3.28516,3,11.62,5
1774299886129,-0.178386,1.00714,-0.0125392,0.524945,0.24213300000000001,-0.0273394,3.2963,3,11.633,5
1774299886143,-0.183236,0.995471,0.00595698,0.474634,0.303711,-0.0630281,3.29395,3,11.647,5
1774299886156,-0.184384,0.980625,0.0232066,0.421605,0.35803199999999996,-0.0993012,3.2934,3,11.66,5
1774299886170,-0.18609,0.966802,0.0401716,0.365632,0.41146,-0.12802,3.2926,3,11.674,5
1774299886183,-0.179158,0.95195,0.0542486,0.310414,0.456603,-0.153133,3.29634,3,11.687,5
1774299886196,-0.16717,0.93825,0.0669733,0.251875,0.486523,-0.172847,3.31317,3,11.7,5
1774299886210,-0.154531,0.926078,0.0798889,0.194183,0.500677,-0.181161,3.30529,3,11.714,5
1774299886223,-0.144367,0.914267,0.0907876,0.132654,0.500408,-0.175765,3.31716,3,11.727,5
1774299886237,-0.133633,0.908022,0.101284,0.0694243,0.48701700000000003,-0.162801,3.30708,4,11.741,5
1774299886250,-0.126337,0.900738,0.108984,0.00671019,0.465967,-0.143423,3.28954,5,11.754,5
1774299886264,-0.12015,0.896121,0.115589,-0.059594100000000004,0.439625,-0.119047,3.29699,5,11.768,5
1774299886277,-0.115793,0.895806,0.12183,-0.124671,0.410088,-0.0943641,3.29878,4,11.781,5
1774299886290,-0.113227,0.896498,0.126463,-0.188808,0.38050400000000006,-0.0699225,3.2931,4,11.794,5
1774299886304,-0.111094,0.899743,0.13035,-0.251532,0.352592,-0.0457771,3.30612,5,11.808,5
1774299886317,-0.110218,0.904992,0.134077,-0.312728,0.32750100000000004,-0.024382,3.30586,5,11.821,5
1774299886331,-0.110822,0.911005,0.13588,-0.373848,0.307396,-0.005407340000000001,3.2878,5,11.835,5
1774299886344,-0.111399,0.92031,0.136728,-0.435672,0.29101400000000005,0.0106318,3.28854,5,11.848,5
1774299886357,-0.110296,0.931215,0.136578,-0.496949,0.277029,0.0215622,3.29556,5,11.861,5
1774299886371,-0.106722,0.941527,0.134363,-0.561451,0.262915,0.0299227,3.28506,5,11.875,5
1774299886384,-0.103154,0.957259,0.133591,-0.626154,0.248356,0.0400365,3.31167,5,11.888,5
1774299886398,-0.100779,0.974588,0.133471,-0.682946,0.232361,0.052263500000000004,3.36168,5,11.902,5
1774299886416,-0.100503,0.99416,0.130506,-0.73004,0.21619800000000003,0.0687116,3.32814,5,11.92,5
1774299886430,-0.0979765,1.01514,0.125044,-0.768805,0.199104,0.0872087,3.28108,5,11.934,5
1774299886443,-0.0958591,1.04052,0.118765,-0.794906,0.179573,0.107653,3.30516,5,11.947,5
1774299886456,-0.0917737,1.05531,0.105339,-0.811441,0.155743,0.13251200000000002,3.29178,5,11.96,5
1774299886471,-0.0908672,1.0559,0.0890835,-0.841192,0.125649,0.156418,3.92992,5,11.975,5
1774299886484,-0.0945487,1.06523,0.0770733,-0.882595,0.1,0.172937,3.32695,5,11.988,5
1774299886497,-0.0980585,1.07718,0.0631859,-0.9192520000000001,0.0799269,0.18498,3.28577,5,12.001,5
1774299886511,-0.100251,1.09097,0.0480695,-0.952307,0.0649231,0.195106,3.31464,5,12.015,5
1774299886524,-0.0999454,1.10778,0.0309129,-0.975634,0.0549913,0.20035599999999998,3.27464,5,12.028,1
1774299886538,-0.102781,1.1247,0.0116238,-0.982824,0.05039520000000001,0.20453600000000002,3.2898,5,12.042,1
1774299886551,-0.107159,1.13282,-0.0114448,-0.978941,0.053623000000000004,0.21025500000000003,3.2821,5,12.055,1
1774299886565,-0.110406,1.13669,-0.0366329,-0.971335,0.06594420000000001,0.21597000000000002,3.28995,5,12.069,1
1774299886578,-0.107627,1.13971,-0.0619366,-0.959344,0.08238709999999999,0.214941,3.27736,5,12.082,1
1774299886592,-0.0991194,1.14246,-0.0889204,-0.9411870000000001,0.09714560000000001,0.20542400000000002,3.66544,5,12.096,1
1774299886605,-0.0893075,1.15049,-0.113678,-0.9143760000000001,0.11154299999999999,0.194021,3.3879,5,12.109,1
1774299886619,-0.0776077,1.15897,-0.13684,-0.872639,0.12250400000000002,0.183648,3.27012,5,12.123,1
1774299886632,-0.067231,1.16485,-0.158103,-0.819272,0.128071,0.171278,3.28806,5,12.136,1
1774299886645,-0.0573188,1.16778,-0.174966,-0.760853,0.125644,0.152705,3.27975,5,12.149,1
1774299886659,-0.0504773,1.17184,-0.184899,-0.696508,0.117415,0.130026,3.28914,5,12.163,1
1774299886672,-0.0430915,1.1747,-0.188729,-0.625762,0.10499700000000001,0.107673,3.27888,5,12.176,1
1774299886686,-0.0285015,1.17356,-0.188387,-0.552215,0.08441610000000001,0.08621029999999999,3.78163,5,12.19,1
1774299886699,-0.0222476,1.15545,-0.175504,-0.4905,0.0570428,0.0720272,3.27795,5,12.203,1
1774299886713,-0.0131389,1.15055,-0.128559,-0.444588,0.0316588,0.0650839,3.29416,5,12.217,1
1774299886726,-0.0208175,1.15536,-0.0778267,-0.379503,0.011385300000000001,0.0754435,3.29208,5,12.23,1
1774299886739,-0.032666,1.16228,-0.0496421,-0.304333,0.00799775,0.08636089999999999,3.27273,1,12.243,1
1774299886753,-0.03743,1.16314,-0.0388869,-0.229281,0.018052600000000002,0.0789305,3.28679,2,12.257,1
1774299886766,-0.0412704,1.15188,-0.032371,-0.171885,0.0244861,0.07146720000000001,3.27952,2,12.27,1
1774299886780,-0.0423056,1.14919,-0.0216771,-0.126528,0.0246455,0.071235,3.32264,2,12.284,1
1774299886793,-0.0470965,1.14477,-0.0127641,-0.0857199,0.0182533,0.0687979,3.27954,2,12.297,1
1774299886807,-0.0536637,1.13077,-0.00190272,-0.0559099,0.0112948,0.0627551,3.40572,2,12.311,1
1774299886820,-0.0601146,1.12399,0.0118362,-0.0300371,0.007454110000000001,0.0574709,3.29788,5,12.324,1
1774299886834,-0.0634754,1.11508,0.0245366,-0.00379146,0.0036362,0.05361780000000001,3.27558,5,12.338,1
1774299886847,-0.0636463,1.1069,0.0305744,0.0210976,-0.00209994,0.0504946,3.28675,5,12.351,1
1774299886860,-0.0659451,1.09307,0.0377254,0.04048,-0.00927844,0.049768900000000005,3.27728,5,12.364,1
1774299886874,-0.0666059,1.09052,0.0411578,0.057366400000000005,-0.0129671,0.0537812,3.28719,5,12.378,1
1774299886887,-0.0728751,1.07699,0.0493727,0.0700471,-0.0154982,0.057367100000000004,3.27751,5,12.391,1
1774299886901,-0.0778666,1.07403,0.0483133,0.080822,-0.012428,0.0562345,3.6795,5,12.405,1
1774299886915,-0.0792125,1.0585,0.0593437,0.08221030000000001,-0.011080000000000001,0.0526905,3.31036,5,12.419,1
1774299886928,-0.0808306,1.05419,0.0676175,0.0886461,-0.0111565,0.0538027,3.27317,5,12.432,2
1774299886942,-0.0888907,1.05356,0.0707249,0.0943655,-0.0119094,0.051842400000000004,3.2944,5,12.446,2
1774299886955,-0.0962354,1.04903,0.0772518,0.0956322,-0.0105692,0.0456417,3.27943,5,12.459,2
1774299886968,-0.0994579,1.04693,0.0810696,0.10089100000000001,-0.00870888,0.0395447,3.28951,5,12.472,2
1774299886982,-0.102657,1.0447,0.0847311,0.10469099999999999,-0.00843875,0.0328306,3.27691,5,12.486,2
1774299886996,-0.105257,1.04025,0.0899622,0.108889,-0.00858627,0.0258466,3.92927,5,12.5,2
1774299887009,-0.108138,1.03674,0.0940676,0.111829,-0.00798904,0.0191943,3.44296,5,12.513,2
1774299887023,-0.107338,1.03388,0.0967549,0.115422,-0.00638053,0.0124142,3.27806,5,12.527,2
1774299887036,-0.109253,1.03285,0.100659,0.116368,-0.006172490000000001,0.0075216300000000005,3.28667,5,12.54,2
1774299887050,-0.110913,1.03035,0.102364,0.12195800000000001,-0.00474723,0.00127211,3.27191,5,12.554,2
1774299887063,-0.112448,1.03121,0.102778,0.12318899999999999,-0.00180907,-0.00661793,3.28602,5,12.567,2
1774299887077,-0.112367,1.02976,0.106067,0.127163,-0.0009325749999999999,-0.0129778,3.28004,5,12.581,2
1774299887090,-0.113528,1.02757,0.107311,0.131882,-0.0009530560000000001,-0.0180561,3.29934,5,12.594,2
1774299887103,-0.115567,1.02601,0.109302,0.135262,-0.000972389,-0.0263435,3.27991,5,12.607,2
1774299887117,-0.116545,1.02669,0.110714,0.14085,-0.00210392,-0.0355533,3.77363,5,12.621,2
1774299887131,-0.116093,1.0237,0.108777,0.14810800000000002,-0.00447367,-0.0432318,3.29088,5,12.635,2
1774299887144,-0.115084,1.01776,0.107297,0.150778,-0.006684799999999999,-0.0513702,3.27906,5,12.648,2
1774299887158,-0.113275,1.01413,0.10473,0.152499,-0.006994930000000001,-0.0570096,3.28317,5,12.662,2
1774299887171,-0.113243,1.01931,0.102135,0.152419,-0.00878204,-0.0628722,3.27938,5,12.675,2
1774299887184,-0.111612,1.01511,0.100071,0.15376,-0.00955687,-0.0694593,3.28895,5,12.688,2
1774299887198,-0.109912,1.00997,0.100852,0.152582,-0.00927771,-0.0732662,3.27917,5,12.702,2
1774299887212,-0.107967,1.00773,0.101107,0.152869,-0.00835052,-0.0759776,4.1128,5,12.716,2
1774299887225,-0.105306,1.00769,0.101351,0.152225,-0.00708998,-0.0780101,3.27712,5,12.729,2
1774299887239,-0.102996,1.00686,0.10261,0.15349100000000002,-0.00639255,-0.07805329999999999,3.27043,5,12.743,2
1774299887252,-0.101898,1.00777,0.101464,0.154923,-0.00538314,-0.0775202,3.29215,5,12.756,2
1774299887266,-0.101691,1.00974,0.0984254,0.156954,-0.00391223,-0.0776165,3.27721,5,12.77,2
1774299887279,-0.101461,1.01346,0.095509,0.158461,-0.00225408,-0.0761873,3.28373,5,12.783,2
1774299887292,-0.0997145,1.00879,0.0935209,0.16115100000000002,-0.00123274,-0.0751594,3.27684,5,12.796,2
1774299887306,-0.0986956,1.01101,0.0945453,0.16206700000000002,-8.455870000000001e-05,-0.073063,3.28499,5,12.81,2
1774299887319,-0.0958421,1.01061,0.0899194,0.168057,0.000669511,-0.0712213,3.29479,5,12.823,2
1774299887333,-0.0975443,1.01915,0.0840545,0.169258,0.00209635,-0.0670551,3.76958,5,12.837,2
1774299887347,-0.0940899,1.00352,0.0903188,0.168756,0.00248402,-0.06571729999999999,3.28219,5,12.851,2
1774299887360,-0.0910321,1.00318,0.0910454,0.17114200000000002,0.00483245,-0.0607037,3.27851,5,12.864,2
1774299887373,-0.0899232,1.00419,0.0872025,0.171155,0.00635549,-0.0563781,3.28447,5,12.877,2
1774299887387,-0.0885424,1.00844,0.0794171,0.172071,0.008722259999999999,-0.052063899999999996,3.27682,1,12.891,2
1774299887400,-0.0875529,1.00168,0.0812184,0.167852,0.0111704,-0.0486168,3.28323,1,12.904,2
1774299887414,-0.0853896,1.00942,0.0729367,0.16917200000000002,0.0137423,-0.0441257,3.30455,1,12.918,2
1774299887428,-0.0866628,1.00084,0.0793668,0.16262000000000001,0.0157247,-0.041248,3.88809,1,12.932,3
1774299887441,-0.0832572,1.00352,0.0693937,0.16721699999999998,0.0190389,-0.0391356,3.27247,1,12.945,3
1774299887454,-0.0837481,0.996738,0.0762991,0.15890800000000002,0.0196109,-0.0383277,3.27288,1,12.958,3
1774299887468,-0.0802457,0.988926,0.0798383,0.162699,0.019864,-0.0376807,3.28519,1,12.972,3
1774299887481,-0.0828115,0.997205,0.0737416,0.163532,0.0196661,-0.0382476,3.27967,1,12.985,3
1774299887495,-0.0843896,1.00132,0.0700255,0.165124,0.0204042,-0.040294100000000006,3.28364,1,12.999,3
1774299887508,-0.0821191,0.998497,0.0690665,0.16747900000000002,0.0215076,-0.042692600000000004,3.27506,1,13.012,3
1774299887522,-0.0797236,1.00381,0.0670924,0.173619,0.0237181,-0.0414069,3.81758,1,13.026,3
1774299887535,-0.0789704,1.01017,0.0662189,0.180597,0.0236809,-0.0392256,3.27015,1,13.039,3
1774299887549,-0.0825956,1.01435,0.065106,0.188433,0.023958200000000002,-0.0368455,3.27178,1,13.053,3
1774299887562,-0.084749,1.01638,0.0671061,0.19588999999999998,0.025179200000000002,-0.0392747,3.28403,1,13.066,3
1774299887575,-0.0874061,1.02365,0.0657836,0.206675,0.028387,-0.043807,3.27945,1,13.079,3
1774299887589,-0.0875875,1.02946,0.0688537,0.21738700000000002,0.0303315,-0.0469077,3.29058,1,13.093,3
1774299887602,-0.0877395,1.03612,0.0707539,0.234395,0.033417300000000004,-0.0465416,3.27975,1,13.106,3
1774299887616,-0.0900096,1.04359,0.0715354,0.254201,0.0393187,-0.048003000000000004,3.47939,1,13.12,3
1774299887629,-0.0944333,1.05749,0.0706384,0.278325,0.049556300000000005,-0.0531719,3.27651,1,13.133,3
1774299887643,-0.0969018,1.07312,0.0707096,0.30882000000000004,0.0610009,-0.0636473,3.74432,1,13.147,3
1774299887657,-0.0955575,1.08988,0.0663147,0.34730300000000003,0.0710457,-0.0703279,3.27941,1,13.161,4
1774299887670,-0.085282,1.09375,0.0661479,0.393026,0.0722459,-0.0750538,3.26577,1,13.174,4
1774299887684,-0.0869335,1.09682,0.061077,0.42440500000000003,0.07669290000000001,-0.07042430000000001,3.28715,1,13.188,4
1774299887697,-0.0857689,1.10987,0.0580216,0.44809800000000005,0.0820895,-0.0625732,3.27641,1,13.201,4
1774299887710,-0.0822102,1.11933,0.0555375,0.479651,0.084764,-0.0609217,3.28449,1,13.214,4
1774299887724,-0.0756895,1.12492,0.0513577,0.514576,0.08558439999999999,-0.0629766,3.29454,1,13.228,4
1774299887738,-0.0685037,1.13182,0.0471792,0.549859,0.0789297,-0.0632636,3.90744,1,13.242,4
1774299887751,-0.0648565,1.13929,0.0467175,0.594334,0.0712952,-0.0598648,3.27684,1,13.255,4
1774299887765,-0.0690242,1.14226,0.0408093,0.6388360000000001,0.0692401,-0.053933400000000006,3.27706,1,13.269,4
1774299887778,-0.0668918,1.14122,0.0336755,0.676612,0.0675528,-0.0563504,3.28317,1,13.282,4
1774299887791,-0.0740454,1.13219,0.0347332,0.7083119999999999,0.057443600000000004,-0.060468799999999996,3.27725,1,13.295,4
1774299887805,-0.0891288,1.11529,0.039898,0.724104,0.0522004,-0.060455300000000003,3.28688,1,13.309,4
1774299887818,-0.0986625,1.09311,0.0564961,0.719224,0.0548602,-0.0717425,3.31419,1,13.322,4
1774299887832,-0.102847,1.07332,0.0745036,0.704628,0.0584241,-0.09353790000000001,3.83617,3,13.336,4
1774299887846,-0.0998542,1.0523,0.0871219,0.678887,0.062447600000000006,-0.109649,3.27756,2,13.35,4
1774299887859,-0.102032,1.03155,0.103502,0.641568,0.06707600000000001,-0.12330600000000001,3.27554,3,13.363,5
1774299887872,-0.105161,1.01067,0.118301,0.598795,0.0750073,-0.13872,3.30236,2,13.376,5
1774299887886,-0.110161,0.990037,0.133306,0.547056,0.0870411,-0.154446,3.28178,2,13.39,5
1774299887899,-0.111504,0.969952,0.146973,0.490362,0.0992819,-0.169997,3.28902,2,13.403,5
1774299887913,-0.112991,0.950681,0.160105,0.428469,0.112425,-0.181939,3.28125,2,13.417,5
1774299887926,-0.112844,0.933416,0.172332,0.36118,0.126183,-0.18853999999999999,3.32114,2,13.43,5
1774299887940,-0.112916,0.920494,0.181815,0.28889600000000004,0.13949999999999999,-0.192274,3.27262,2,13.444,5
1774299887953,-0.113562,0.912355,0.188833,0.213605,0.152579,-0.19556400000000002,3.26069,4,13.457,5
1774299887966,-0.113208,0.908832,0.193376,0.137717,0.165104,-0.19773900000000003,3.26552,4,13.47,5
1774299887980,-0.111204,0.908217,0.195212,0.0632635,0.174487,-0.195233,3.25825,4,13.484,5
1774299887993,-0.109448,0.909092,0.195195,-0.0104263,0.180795,-0.18549800000000002,3.26954,4,13.497,5
1774299888006,-0.106861,0.912971,0.19378,-0.08191380000000001,0.18317799999999998,-0.169239,3.25565,4,13.51,5
1774299888020,-0.102348,0.920429,0.191893,-0.148544,0.17933,-0.148374,3.37033,4,13.524,5
1774299888033,-0.0960032,0.927891,0.188765,-0.209543,0.168766,-0.121237,3.2974,5,13.537,5
1774299888047,-0.089616,0.933351,0.184706,-0.268663,0.152607,-0.08742620000000001,3.28432,5,13.551,5
1774299888060,-0.0842768,0.941625,0.18013,-0.326406,0.132212,-0.054848600000000004,3.26988,5,13.564,5
1774299888073,-0.0812532,0.949485,0.174847,-0.38270400000000004,0.1121,-0.0255584,3.26186,5,13.577,5
1774299888087,-0.0772727,0.958207,0.169432,-0.437125,0.0913349,0.00151073,3.27038,5,13.591,5
1774299888100,-0.0736051,0.967305,0.16388,-0.487877,0.0699535,0.028915600000000003,3.27243,5,13.604,5
1774299888113,-0.0713898,0.977213,0.158827,-0.53507,0.048748,0.0559821,3.28436,5,13.617,5
1774299888127,-0.0695383,0.99005,0.153942,-0.576393,0.0291345,0.08081110000000001,3.30319,5,13.631,5
1774299888140,-0.068088,1.0036,0.147989,-0.609942,0.010783899999999999,0.105296,3.31112,5,13.644,5
1774299888154,-0.067502,1.00853,0.138367,-0.643139,-0.00815165,0.12986,3.28488,5,13.658,5
1774299888167,-0.0695894,1.01905,0.130085,-0.6822790000000001,-0.026316199999999998,0.150335,3.26895,5,13.671,5
1774299888180,-0.0728882,1.03742,0.12178,-0.712963,-0.041286699999999996,0.16886500000000002,3.28177,5,13.684,5
1774299888194,-0.0738112,1.05744,0.110272,-0.730674,-0.0537047,0.194029,3.27471,5,13.698,5
1774299888207,-0.0713093,1.07387,0.0923493,-0.7396280000000001,-0.0689288,0.22477799999999998,3.27854,5,13.711,5
1774299888220,-0.0715967,1.08659,0.0735872,-0.74465,-0.0852557,0.249893,3.2788,5,13.724,5
1774299888234,-0.0703767,1.09973,0.0531045,-0.74319,-0.09703139999999999,0.263862,3.34864,5,13.738,5
1774299888247,-0.0655373,1.09961,0.025937,-0.743367,-0.108639,0.271229,3.27471,5,13.751,5
1774299888261,-0.0616782,1.09622,-0.00144108,-0.756524,-0.125008,0.269032,3.27154,5,13.765,5
1774299888274,-0.0676398,1.10239,-0.024942,-0.7715940000000001,-0.133205,0.26009,3.28075,5,13.778,1
1774299888287,-0.075017,1.11442,-0.0498708,-0.772755,-0.128422,0.25308,3.27001,5,13.791,1
1774299888301,-0.0755693,1.12184,-0.0785567,-0.761798,-0.119643,0.24788000000000002,3.28308,5,13.805,1
1774299888314,-0.0715064,1.12738,-0.108006,-0.74519,-0.111442,0.241221,3.27038,5,13.818,1
1774299888328,-0.0634999,1.13606,-0.135943,-0.718013,-0.10663399999999999,0.232075,3.65464,5,13.832,1
1774299888341,-0.0520746,1.14397,-0.165072,-0.6773269999999999,-0.107906,0.22159600000000002,3.27377,5,13.845,1
1774299888354,-0.0393873,1.1529,-0.193919,-0.6259490000000001,-0.117709,0.211127,3.2768,5,13.858,1
1774299888368,-0.02844,1.1617,-0.22111,-0.5617390000000001,-0.134764,0.201974,3.27912,5,13.872,1
1774299888381,-0.0219005,1.17077,-0.246012,-0.487188,-0.15657000000000001,0.195475,3.27062,5,13.885,1
1774299888395,-0.0324311,1.15174,-0.250756,-0.419945,-0.175427,0.19091999999999998,3.27508,5,13.899,1
1774299888408,-0.0404725,1.14559,-0.196602,-0.38268700000000005,-0.183613,0.172623,3.27956,5,13.912,1
1774299888421,-0.0480341,1.15309,-0.122875,-0.33405700000000005,-0.18121400000000001,0.16389099999999998,3.28971,5,13.925,1
1774299888435,-0.0441291,1.17733,-0.0956032,-0.242138,-0.18307700000000002,0.173178,3.30108,5,13.939,1
1774299888448,-0.0485092,1.16615,-0.0951911,-0.16298300000000002,-0.178618,0.172692,3.28043,5,13.952,1
1774299888461,-0.0576946,1.15285,-0.0937722,-0.115411,-0.168659,0.147813,3.28428,5,13.965,1
1774299888475,-0.0579475,1.14841,-0.0794215,-0.0814182,-0.16108699999999998,0.121893,3.27615,5,13.979,1
1774299888488,-0.0486121,1.14328,-0.0701826,-0.0436839,-0.160696,0.11703,3.28073,5,13.992,1
1774299888502,-0.0495505,1.13502,-0.0638676,-0.0183856,-0.16595400000000002,0.125058,3.27151,5,14.006,1
1774299888515,-0.058039,1.1246,-0.0562913,0.0018370300000000001,-0.157793,0.121739,3.28828,5,14.019,1
1774299888529,-0.0630708,1.11982,-0.0489822,0.0138645,-0.143311,0.11261100000000002,3.6137,5,14.033,1
1774299888542,-0.0605474,1.10723,-0.040829,0.029049600000000002,-0.133855,0.10957000000000001,3.28984,5,14.046,1
1774299888555,-0.0633661,1.09046,-0.034399,0.0370201,-0.127833,0.10909700000000001,3.28714,5,14.059,1
1774299888569,-0.0708447,1.08557,-0.0270437,0.041263600000000004,-0.11929600000000001,0.102027,3.27601,5,14.073,1
1774299888582,-0.0744943,1.07871,-0.0201275,0.0473543,-0.110909,0.0914485,3.27325,5,14.086,1
1774299888595,-0.0765536,1.07089,-0.0149765,0.0485603,-0.10524,0.0855781,3.27236,5,14.099,1
1774299888609,-0.0799001,1.06669,-0.00470169,0.047570600000000005,-0.101217,0.0804524,3.28212,5,14.113,2
1774299888622,-0.0857802,1.06609,0.00278557,0.051582,-0.09335979999999999,0.0731821,3.27273,5,14.126,2
1774299888636,-0.0876662,1.0579,0.010191,0.0533301,-0.0836056,0.0646155,3.34021,5,14.14,2
1774299888649,-0.0890426,1.05641,0.0161728,0.0530577,-0.0735851,0.0605286,3.27995,5,14.153,2
1774299888662,-0.0894087,1.05202,0.0237508,0.0534557,-0.06502150000000001,0.058143900000000005,3.27058,5,14.166,2
1774299888676,-0.0903566,1.04969,0.0295987,0.0551673,-0.0573108,0.0556832,3.28223,5,14.18,2
1774299888689,-0.0924268,1.04968,0.0355966,0.05752360000000001,-0.0484269,0.0527696,3.27501,5,14.193,2
1774299888702,-0.0933815,1.04818,0.040809,0.0610666,-0.040401,0.0498053,3.28086,5,14.206,2
1774299888716,-0.0948711,1.04472,0.04779,0.06346879999999999,-0.0334034,0.0469431,3.27515,5,14.22,2
1774299888729,-0.0967759,1.0439,0.0514869,0.0691747,-0.026901,0.043445000000000004,3.30927,5,14.233,2
1774299888743,-0.0983199,1.04148,0.0540505,0.07379400000000001,-0.021619700000000002,0.0378909,3.29277,1,14.247,2
1774299888756,-0.100138,1.04038,0.0574309,0.0773963,-0.0173455,0.0321217,3.28052,1,14.26,2
1774299888769,-0.0997518,1.03121,0.0626174,0.0824794,-0.0141631,0.025652599999999998,3.31642,1,14.273,2
1774299888783,-0.101721,1.03351,0.0637547,0.0867849,-0.0107396,0.0191483,3.27523,1,14.287,2
1774299888796,-0.103764,1.03488,0.063892,0.09185940000000001,-0.00847154,0.011124700000000001,3.28547,1,14.3,2
1774299888810,-0.103401,1.03346,0.0635749,0.09577999999999999,-0.00573125,0.00263494,3.27228,1,14.314,2
1774299888823,-0.10158,1.02954,0.0642112,0.09968199999999999,-0.00403957,-0.0036316399999999998,3.2954,1,14.327,2
1774299888836,-0.100704,1.0254,0.0641577,0.102813,-0.0019503699999999999,-0.00958954,3.29642,3,14.34,2
1774299888850,-0.0990116,1.02321,0.0657294,0.104205,0.000171505,-0.0145795,3.26004,3,14.354,2
1774299888863,-0.0966247,1.02325,0.0670296,0.10677400000000001,0.00217008,-0.015902700000000002,3.27895,3,14.367,2
1774299888876,-0.0959011,1.02509,0.066319,0.11024300000000001,0.00474165,-0.016565,3.26495,3,14.38,2
1774299888890,-0.0961487,1.02762,0.0645398,0.114156,0.007254610000000001,-0.016898899999999998,3.27875,3,14.394,2
1774299888903,-0.0951363,1.02458,0.0663724,0.119935,0.00803375,-0.016683200000000002,3.26602,1,14.407,2
1774299888916,-0.097211,1.02667,0.0681463,0.125766,0.00905608,-0.015486200000000002,3.27499,1,14.42,2
1774299888930,-0.0971024,1.0242,0.0661056,0.13586499999999999,0.00998253,-0.0169255,3.26597,1,14.434,2
1774299888943,-0.0998812,1.03002,0.0616131,0.14166700000000002,0.0108013,-0.0167297,3.31936,1,14.447,2
1774299888957,-0.0963246,1.0151,0.0685065,0.146374,0.0102126,-0.018309,3.31125,1,14.461,2
1774299888970,-0.0939912,1.01517,0.0698453,0.152537,0.0119562,-0.0177787,3.27486,1,14.474,2
1774299888983,-0.0935643,1.01778,0.0681361,0.156921,0.012595799999999999,-0.0172182,3.28932,1,14.487,2
1774299888997,-0.092857,1.02232,0.0614194,0.16146100000000002,0.0133537,-0.0157043,3.2733,1,14.501,2
1774299889010,-0.0919352,1.01664,0.0643067,0.161949,0.0136623,-0.0158254,3.28662,1,14.514,2
1774299889023,-0.0930502,1.02359,0.0568713,0.166717,0.0149084,-0.013837299999999999,3.27304,1,14.527,3
1774299889037,-0.0926537,1.01263,0.0624987,0.16404900000000003,0.015382400000000001,-0.014898,3.31038,1,14.541,3
1774299889050,-0.0926056,1.01702,0.0540853,0.171191,0.017426999999999998,-0.013377300000000002,3.26571,1,14.554,3
1774299889064,-0.0927731,1.0054,0.0628133,0.16659400000000002,0.0176569,-0.014421,3.27245,1,14.568,3
1774299889077,-0.0931681,1.00638,0.060803,0.17481300000000002,0.021273800000000002,-0.0130683,3.27923,1,14.581,3
1774299889090,-0.0944535,1.01475,0.0522076,0.175318,0.0250218,-0.0137868,3.25764,1,14.594,3
1774299889104,-0.0919563,1.01302,0.0505757,0.17691700000000002,0.0293045,-0.0130135,3.27997,1,14.608,3
1774299889117,-0.089451,1.0124,0.0465702,0.18052800000000002,0.032555,-0.0108619,3.26265,1,14.621,3
1774299889130,-0.0889023,1.01682,0.0407967,0.184442,0.0356188,-0.009255,3.28364,1,14.634,3
1774299889144,-0.0890182,1.01539,0.0414362,0.18694600000000003,0.0377528,-0.00830768,3.30749,1,14.648,3
1774299889157,-0.0901754,1.01467,0.0403608,0.192303,0.0401482,-0.00654428,3.29958,1,14.661,3
1774299889171,-0.0912499,1.01211,0.0418521,0.19670400000000002,0.0430602,-0.00627996,3.28321,1,14.675,3
1774299889184,-0.0925657,1.01531,0.0378865,0.20442900000000003,0.0470034,-0.00770895,3.30408,1,14.688,3
1774299889197,-0.0923079,1.01639,0.0394967,0.21130600000000002,0.050018900000000005,-0.0114856,3.29184,1,14.701,3
1774299889211,-0.0966417,1.0205,0.0393283,0.22089200000000003,0.051084,-0.0126569,3.27349,1,14.715,3
1774299889224,-0.102964,1.02588,0.038644,0.23258800000000002,0.051331499999999995,-0.015158300000000001,3.30173,1,14.728,3
1774299889238,-0.108658,1.03301,0.038011,0.245237,0.0538987,-0.022936,3.72146,1,14.742,3
1774299889251,-0.110867,1.03981,0.0420074,0.258118,0.056968500000000005,-0.0319131,3.27027,1,14.755,3
1774299889265,-0.111902,1.05022,0.0387503,0.280708,0.062473799999999996,-0.0350215,3.28593,1,14.769,3
1774299889278,-0.109431,1.05646,0.03807,0.303482,0.06881770000000001,-0.0353093,3.27506,3,14.782,3
1774299889291,-0.109109,1.07044,0.0346647,0.33028799999999997,0.0756451,-0.0316074,3.29349,3,14.795,3
1774299889305,-0.104134,1.08099,0.0364159,0.361521,0.0809035,-0.0212793,3.27004,3,14.809,3
1774299889318,-0.099089,1.07882,0.0331684,0.392757,0.0838544,-0.00974927,3.29456,3,14.822,3
1774299889332,-0.0970725,1.08433,0.0290807,0.410013,0.0896542,0.00206318,3.27262,3,14.836,4
1774299889345,-0.0952723,1.09701,0.0261433,0.43619100000000005,0.09573240000000001,0.0129476,3.29501,3,14.849,4
1774299889358,-0.0946505,1.10367,0.0211243,0.465997,0.101213,0.0218469,3.27464,3,14.862,4
1774299889372,-0.093757,1.11012,0.0183641,0.495205,0.10531499999999999,0.025631300000000003,3.26745,3,14.876,4
1774299889385,-0.0918669,1.11707,0.0154683,0.52922,0.104191,0.0241464,3.28415,3,14.889,4
1774299889398,-0.0933693,1.12105,0.0112257,0.567261,0.101819,0.025262600000000003,3.27267,3,14.902,4
1774299889412,-0.0929482,1.12695,0.0052362,0.607968,0.10085200000000001,0.026324800000000002,3.28371,3,14.916,4
1774299889425,-0.0911788,1.12958,-0.000683574,0.64709,0.0968007,0.0227158,3.27299,3,14.929,4
1774299889439,-0.0897965,1.13269,-0.00824495,0.687344,0.0891615,0.0201014,3.29088,3,14.943,4
1774299889452,-0.0912293,1.12832,-0.0141517,0.722681,0.07955720000000001,0.020973500000000003,3.28338,3,14.956,4
1774299889465,-0.104429,1.1236,-0.0208251,0.752487,0.07885410000000001,0.0255947,3.26645,3,14.969,4
1774299889479,-0.11844,1.1036,-0.0193699,0.769042,0.0872124,0.026201500000000003,3.29506,3,14.983,4
1774299889492,-0.133707,1.07529,-0.00845448,0.7622150000000001,0.099131,0.0204756,3.28397,3,14.996,4
1774299889505,-0.139636,1.04814,0.00832564,0.7297669999999999,0.114153,0.0064515,3.32234,3,15.009,4
1774299889519,-0.137982,1.03529,0.0236886,0.690087,0.129399,-0.017524900000000003,3.30277,3,15.023,4
1774299889532,-0.137329,1.01656,0.0406539,0.646793,0.146188,-0.0355062,3.29786,3,15.036,5
1774299889546,-0.134633,0.996749,0.0564928,0.596708,0.16262200000000002,-0.0500683,3.28969,3,15.05,5
1774299889559,-0.128489,0.976989,0.0713295,0.539486,0.175718,-0.0696069,3.27006,3,15.063,5
1774299889572,-0.124578,0.957806,0.0853785,0.475145,0.185931,-0.0906315,3.27567,3,15.076,5
1774299889586,-0.123475,0.940827,0.0974785,0.404416,0.19534400000000002,-0.106773,3.31775,3,15.09,5
1774299889599,-0.122314,0.929621,0.108345,0.330601,0.20238299999999998,-0.123041,3.29714,3,15.103,5
1774299889613,-0.121801,0.918851,0.115981,0.254119,0.206677,-0.139488,3.27564,3,15.117,5
1774299889626,-0.12334,0.914157,0.123177,0.174699,0.209796,-0.152559,3.27512,3,15.13,5
1774299889639,-0.122825,0.912199,0.128445,0.0988351,0.21021,-0.15926700000000002,3.28262,3,15.143,5
1774299889653,-0.12133,0.909323,0.131572,0.0215272,0.205125,-0.159269,3.30077,4,15.157,5
1774299889666,-0.120625,0.912392,0.134296,-0.05466,0.19681300000000002,-0.15369300000000002,3.28014,4,15.17,5
1774299889679,-0.117955,0.917397,0.134605,-0.125542,0.18394,-0.142819,3.26725,5,15.183,5
1774299889693,-0.114623,0.922932,0.134356,-0.19329100000000002,0.167303,-0.12590600000000002,3.2931,5,15.197,5
1774299889706,-0.112791,0.931128,0.134267,-0.256555,0.148978,-0.10485900000000001,3.26326,5,15.21,5
1774299889720,-0.111831,0.94029,0.13368,-0.313372,0.131017,-0.0819786,3.28204,5,15.224,5
1774299889733,-0.113101,0.947215,0.130845,-0.365541,0.11567000000000001,-0.0569771,3.26708,5,15.237,5
1774299889746,-0.112596,0.952406,0.126382,-0.41862499999999997,0.10211600000000001,-0.033378000000000005,3.29829,5,15.25,5
1774299889760,-0.115381,0.959238,0.123322,-0.471194,0.091477,-0.013766,3.29121,5,15.264,5
1774299889773,-0.117606,0.968239,0.119893,-0.522077,0.0850142,0.00486151,3.32384,5,15.277,5
1774299889786,-0.1192,0.977518,0.116155,-0.569296,0.08159430000000001,0.024769199999999998,3.29486,5,15.29,5
1774299889800,-0.120756,0.989157,0.111577,-0.612124,0.08022460000000001,0.043500300000000006,3.32779,5,15.304,5
1774299889813,-0.124753,1.00209,0.107862,-0.6478740000000001,0.0826441,0.0611294,3.28775,5,15.317,5
1774299889827,-0.127743,1.01608,0.102942,-0.675106,0.0899034,0.0797778,3.27953,5,15.331,5
1774299889840,-0.125562,1.02498,0.0951299,-0.697899,0.0992091,0.09997070000000001,3.29747,5,15.344,5
1774299889853,-0.122751,1.0286,0.0865067,-0.7268720000000001,0.104593,0.11972899999999999,3.30169,5,15.357,5
1774299889867,-0.120714,1.03494,0.0778015,-0.761684,0.10967,0.13679,3.28288,5,15.371,5
1774299889880,-0.116236,1.04452,0.0659536,-0.7989700000000001,0.11402200000000001,0.152081,3.2911,5,15.384,5
1774299889894,-0.107127,1.0615,0.0494883,-0.832593,0.11278600000000001,0.16728,3.26441,5,15.398,5
1774299889907,-0.100595,1.07719,0.0282124,-0.857445,0.108459,0.17854399999999998,3.26753,5,15.411,1
1774299889920,-0.0963986,1.09691,0.00519775,-0.8704470000000001,0.10484600000000001,0.182411,3.27234,5,15.424,1
1774299889934,-0.0932505,1.11091,-0.019832,-0.870957,0.105602,0.184413,3.26764,5,15.438,1
1774299889947,-0.0865246,1.11837,-0.0465538,-0.865371,0.10492000000000001,0.18596800000000002,3.69455,5,15.451,1
1774299889961,-0.0786834,1.12186,-0.0735269,-0.857016,0.10079,0.182914,3.26567,5,15.465,1
1774299889974,-0.0711532,1.12832,-0.0988721,-0.8437680000000001,0.0933465,0.17682900000000001,3.29001,5,15.478,1
1774299889988,-0.0648491,1.13718,-0.122041,-0.8196859999999999,0.0818119,0.17319099999999998,3.42183,3,15.492,1
1774299890001,-0.0597175,1.14263,-0.145105,-0.7843819999999999,0.0679783,0.173449,3.27982,3,15.505,1
1774299890015,-0.0556752,1.14627,-0.165739,-0.741694,0.0517821,0.17373100000000002,3.27214,3,15.519,1
1774299890028,-0.0520339,1.15225,-0.18418,-0.690217,0.034087900000000004,0.17194199999999998,3.29079,3,15.532,1
1774299890041,-0.044185,1.15778,-0.201269,-0.628593,0.014294800000000002,0.167431,3.3071,3,15.545,1
1774299890055,-0.0340742,1.15908,-0.218412,-0.561395,-0.0120526,0.161092,3.28382,5,15.559,1
1774299890068,-0.0261459,1.16937,-0.233236,-0.489018,-0.042244500000000004,0.155096,3.33934,5,15.572,1
1774299890081,-0.0238066,1.1522,-0.216362,-0.42258,-0.07078140000000001,0.146504,3.28921,5,15.585,1
1774299890095,-0.0326309,1.15142,-0.157349,-0.37366900000000003,-0.08482490000000001,0.136363,3.29919,5,15.599,1
1774299890108,-0.0378343,1.16442,-0.1147,-0.302367,-0.0763588,0.138015,3.27345,5,15.612,1
1774299890122,-0.0388809,1.17201,-0.108424,-0.215732,-0.0703971,0.13029,3.25547,5,15.626,1
1774299890135,-0.0465122,1.14796,-0.101323,-0.167938,-0.0634511,0.10753299999999999,3.26871,5,15.639,1
1774299890148,-0.0431755,1.1523,-0.0896315,-0.130082,-0.0698387,0.0895977,3.33821,5,15.652,1
1774299890162,-0.0453872,1.14952,-0.075323,-0.08746409999999999,-0.0901952,0.08504289999999999,3.29397,5,15.666,1
1774299890175,-0.0562787,1.13559,-0.0653773,-0.0591833,-0.10379200000000001,0.0786498,3.26519,5,15.679,1
1774299890188,-0.0630209,1.12713,-0.0541795,-0.033752,-0.10613099999999999,0.06292550000000001,3.28114,5,15.692,1
1774299890202,-0.0649307,1.1196,-0.0453186,-0.00896367,-0.108065,0.0519625,3.27227,5,15.706,1
1774299890215,-0.0717644,1.10765,-0.0350834,0.00948013,-0.10848200000000001,0.0475791,3.2646,5,15.719,1
1774299890229,-0.0788971,1.10004,-0.0277409,0.0259474,-0.104041,0.035456,3.27449,5,15.733,1
1774299890242,-0.0824828,1.092,-0.0204099,0.039213,-0.09765309999999999,0.021426599999999997,3.34199,5,15.746,1
1774299890255,-0.0852284,1.08819,-0.0131539,0.04962780000000001,-0.0924752,0.014534100000000001,3.33427,5,15.759,1
1774299890269,-0.086594,1.08141,-0.00606572,0.0604775,-0.0872324,0.00887605,3.29329,5,15.773,1
1774299890282,-0.0882522,1.07813,-0.00100652,0.06944260000000001,-0.0804339,0.00319712,3.31482,5,15.786,2
1774299890296,-0.0887382,1.07484,0.00627642,0.079198,-0.0745905,-0.000103696,3.26484,5,15.8,2
1774299890309,-0.0893418,1.0726,0.0122372,0.0895409,-0.0700383,-0.0012839600000000002,3.26656,5,15.813,2
1774299890322,-0.0908905,1.06813,0.0176491,0.09932930000000001,-0.0660112,-0.00330577,3.27641,5,15.826,2
1774299890336,-0.0919551,1.06447,0.0207316,0.10778900000000001,-0.0621115,-0.00436208,3.26428,5,15.84,2
1774299890349,-0.093443,1.06137,0.0212664,0.114833,-0.057891000000000005,-0.006009980000000001,3.27995,5,15.853,2
1774299890363,-0.0958801,1.05685,0.0267852,0.11799200000000001,-0.0519847,-0.007501219999999999,3.28916,5,15.867,2
1774299890376,-0.0959043,1.05513,0.0290838,0.124497,-0.0440376,-0.00805245,3.3003,5,15.88,2
1774299890389,-0.0989385,1.05683,0.0291785,0.1274,-0.0355172,-0.00762217,3.26802,5,15.893,2
1774299890403,-0.0987222,1.05575,0.0308386,0.130377,-0.0276117,-0.00776412,3.26475,5,15.907,2
1774299890416,-0.0986863,1.05335,0.0346896,0.133918,-0.0205864,-0.00684048,3.26871,1,15.92,2
1774299890429,-0.0986199,1.05211,0.0363222,0.139235,-0.014957100000000001,-0.00596864,3.26041,1,15.933,2
1774299890443,-0.0988981,1.04837,0.0374243,0.144356,-0.0103543,-0.005762300000000001,3.31044,1,15.947,2
1774299890456,-0.0991641,1.04571,0.0380085,0.14844900000000003,-0.0067462500000000005,-0.0058587100000000005,3.29347,1,15.96,2
