timestamp,ax,ay,az,gx,gy,gz,roll_k,pitch_k,delay_ms,classe_prevista,tempo_s,Fase,Classe_Prevista
1774391049918,-0.00879199,0.65484,0.0845008,3.6532200000000005e-10,-2.3839899999999997e-09,2.1596300000000003e-09,0,0,3.44038,-1,0.0,0,
1774391049931,-0.0110414,0.783199,0.0992651,2.00421e-10,-1.4060300000000004e-09,1.1813100000000001e-09,0,0,3.68218,-1,0.013,0,
1774391049945,-0.0109555,0.839352,0.109389,1.4601100000000003e-10,-1.00815e-09,8.373290000000001e-10,0,0,3.27403,-1,0.027,2,2.0
1774391049959,-0.0104696,0.87062,0.113492,1.13025e-10,-7.924060000000001e-10,6.55384e-10,0,0,3.74223,-1,0.041,2,2.0
1774391049972,-0.0108803,0.8908,0.115661,9.474970000000002e-11,-6.580560000000001e-10,5.40846e-10,0,0,3.26131,-1,0.054,2,2.0
1774391049986,-0.0104748,0.905588,0.117475,8.19578e-11,-5.704920000000002e-10,4.609910000000001e-10,0,0,3.27042,-1,0.068,2,2.0
1774391049999,-0.0112492,0.915906,0.118542,7.07513e-11,-5.04659e-10,4.0418400000000003e-10,0,0,3.27331,-1,0.081,2,2.0
1774391050012,-0.0115753,0.923712,0.119929,6.316270000000003e-11,-4.5326600000000005e-10,3.5969000000000003e-10,0,0,3.25714,-1,0.094,2,2.0
1774391050026,-0.012158,0.929933,0.121029,5.592049999999999e-11,-4.120000000000001e-10,3.26449e-10,0,0,3.27707,-1,0.108,2,2.0
1774391050039,-0.0124347,0.9347,0.122197,4.94674e-11,-3.80594e-10,2.961890000000001e-10,0,0,3.45979,0,0.121,2,2.0
1774391050053,-0.0127559,0.938387,0.12271,4.49437e-11,-3.518050000000001e-10,2.7220900000000003e-10,0,0,3.30296,0,0.135,2,2.0
1774391050066,-0.0134105,0.942162,0.123633,4.3037500000000005e-11,-3.29048e-10,2.5230800000000007e-10,0,0,3.33323,0,0.148,2,2.0
1774391050080,-0.0133319,0.945479,0.124185,4.35483e-11,-3.09475e-10,2.34982e-10,0,0,3.26821,0,0.162,2,2.0
1774391050093,-0.0137739,0.947809,0.124626,4.1951299999999996e-11,-2.911520000000001e-10,2.20585e-10,0,0,3.29642,0,0.175,2,2.0
1774391050106,-0.0136048,0.95023,0.125103,4.11e-11,-2.7557200000000003e-10,2.0698400000000003e-10,0,0,3.30438,5,0.188,2,2.0
1774391050120,-0.0140897,0.95244,0.12525,4.064e-11,-2.61141e-10,1.9624e-10,0,0,3.36081,5,0.202,2,2.0
1774391050133,-0.014078,0.954443,0.124986,4.1249799999999994e-11,-2.4918e-10,1.85357e-10,0,0,3.31292,5,0.215,2,2.0
1774391050147,-0.0141942,0.956322,0.125605,4.25665e-11,-2.3855200000000004e-10,1.7421300000000004e-10,0,0,3.29653,5,0.229,2,2.0
1774391050160,-0.0140238,0.958004,0.12624,4.51989e-11,-2.2879500000000004e-10,1.6586100000000002e-10,0,0,3.29309,5,0.242,2,2.0
1774391050173,-0.0141507,0.959087,0.126358,4.64402e-11,-2.2072100000000002e-10,1.5728900000000002e-10,0,0,3.29488,5,0.255,2,2.0
1774391050187,-0.0141945,0.960148,0.12671,4.583580000000001e-11,-2.1249299999999998e-10,1.4993300000000004e-10,0,0,3.3481,5,0.269,2,2.0
1774391050200,-0.0139537,0.961457,0.126921,4.61842e-11,-2.0451000000000003e-10,1.4375100000000003e-10,0,0,3.30334,5,0.282,2,2.0
1774391050214,-0.0139516,0.962443,0.126703,4.6258000000000006e-11,-1.9614400000000002e-10,1.3763000000000002e-10,0,0,3.35436,5,0.296,2,2.0
1774391050227,-0.0139765,0.963354,0.127603,4.39013e-11,-1.8964800000000002e-10,1.30778e-10,0,0,3.30083,5,0.309,2,2.0
1774391050242,-0.0134862,0.964738,0.127305,4.55034e-11,-1.85082e-10,1.2660100000000002e-10,0,0,4.2139,5,0.324,2,2.0
1774391050258,-0.0132374,0.965364,0.127092,4.443480000000001e-11,-1.8165700000000002e-10,1.23583e-10,0,0,3.30473,5,0.34,2,2.0
1774391050271,-0.012764,0.966329,0.127314,4.31625e-11,-1.76656e-10,1.1970700000000002e-10,0,0,3.2616,5,0.353,2,2.0
1774391050284,-0.0128357,0.966829,0.127746,4.42951e-11,-1.7205100000000002e-10,1.17631e-10,0,0,3.31012,5,0.366,2,2.0
1774391050298,-0.0128904,0.967421,0.127583,4.3008200000000003e-11,-1.6735000000000002e-10,1.1579000000000001e-10,0,0,3.26364,5,0.38,2,2.0
1774391050313,-0.0128684,0.968415,0.127575,4.1580000000000007e-11,-1.64833e-10,1.1225000000000001e-10,0,0,4.99689,5,0.395,2,2.0
1774391050326,-0.0132098,0.968684,0.127665,4.1241899999999996e-11,-1.6022000000000004e-10,1.0917000000000001e-10,0,0,3.25318,5,0.408,2,2.0
1774391050340,-0.0133756,0.969106,0.127857,3.9576200000000004e-11,-1.5671600000000002e-10,1.0633500000000003e-10,0,0,3.29307,5,0.422,2,2.0
1774391050353,-0.0132954,0.969774,0.127766,3.953840000000001e-11,-1.53391e-10,1.0421900000000002e-10,0,0,3.26888,5,0.435,2,2.0
1774391050367,-0.0130907,0.97037,0.127669,4.14178e-11,-1.5183500000000002e-10,1.00633e-10,0,0,3.85801,5,0.449,2,2.0
1774391050380,-0.0130254,0.971014,0.127658,4.193849999999999e-11,-1.4886800000000003e-10,9.762520000000001e-11,0,0,3.27336,5,0.462,2,2.0
1774391050394,-0.0129751,0.971738,0.127728,4.23829e-11,-1.4533400000000004e-10,9.639330000000001e-11,0,0,3.24236,5,0.476,2,2.0
1774391050407,-0.012767,0.972309,0.128082,4.35046e-11,-1.4263100000000004e-10,9.554470000000004e-11,0,0,3.27714,5,0.489,2,2.0
1774391050420,-0.0126839,0.972633,0.128063,4.49534e-11,-1.40268e-10,9.435249999999999e-11,0,0,3.26195,5,0.502,2,2.0
1774391050434,-0.0126844,0.972974,0.128239,4.60963e-11,-1.37433e-10,9.24877e-11,0,0,3.29864,5,0.516,2,2.0
1774391050447,-0.0124707,0.973263,0.128348,4.62978e-11,-1.35205e-10,9.016640000000001e-11,0,0,3.50866,5,0.529,2,2.0
1774391050461,-0.0126606,0.973741,0.128486,4.5441600000000006e-11,-1.33021e-10,8.867969999999999e-11,0,0,3.30486,5,0.543,2,2.0
1774391050474,-0.0128633,0.973915,0.128438,4.572300000000001e-11,-1.2996500000000003e-10,8.771550000000001e-11,0,0,3.27358,5,0.556,2,2.0
1774391050488,-0.0127555,0.974302,0.12807,4.51631e-11,-1.27827e-10,8.502770000000002e-11,0,0,3.61246,5,0.57,2,2.0
1774391050501,-0.0129524,0.974327,0.128186,4.5762900000000006e-11,-1.272e-10,8.332020000000001e-11,0,0,3.28323,5,0.583,2,2.0
1774391050515,-0.0124985,0.974805,0.128218,4.645780000000001e-11,-1.2661000000000002e-10,8.17119e-11,0,0,3.24797,5,0.597,2,2.0
1774391050528,-0.0126176,0.974884,0.128227,4.7069199999999996e-11,-1.2389200000000004e-10,8.041280000000001e-11,0,0,3.29927,5,0.61,2,2.0
1774391050541,-0.0125552,0.974894,0.127917,4.5874400000000006e-11,-1.2284200000000003e-10,7.962060000000002e-11,0,0,3.25001,5,0.623,2,2.0
1774391050555,-0.0125615,0.975001,0.127907,4.505040000000001e-11,-1.2073100000000001e-10,7.835600000000002e-11,0,0,3.28305,5,0.637,2,2.0
1774391050568,-0.0125456,0.975411,0.127995,4.405800000000001e-11,-1.1818e-10,7.802630000000002e-11,0,0,3.26105,5,0.65,2,2.0
1774391050582,-0.0127488,0.97556,0.128047,4.35963e-11,-1.17327e-10,7.711230000000002e-11,0,0,3.71807,5,0.664,2,2.0
1774391050595,-0.0127246,0.975681,0.128096,4.255820000000001e-11,-1.17254e-10,7.64227e-11,0,0,3.2732,5,0.677,2,2.0
1774391050609,-0.0128212,0.975775,0.12835,4.1235000000000007e-11,-1.17185e-10,7.53851e-11,0,0,3.24521,5,0.691,2,2.0
1774391050622,-0.0129134,0.975984,0.128244,3.934190000000001e-11,-1.1608700000000002e-10,7.47506e-11,0,0,3.28764,5,0.704,2,2.0
1774391050635,-0.0127519,0.976237,0.128198,3.8674e-11,-1.1625600000000001e-10,7.324940000000001e-11,0,0,3.2521,5,0.717,2,2.0
1774391050649,-0.0126519,0.976436,0.127991,3.8301800000000005e-11,-1.1620099999999999e-10,7.25637e-11,0,0,3.59538,5,0.731,2,2.0
1774391050663,-0.0131189,0.976744,0.12761,3.7564100000000006e-11,-1.1412900000000003e-10,7.15733e-11,0,0,3.27488,5,0.745,2,2.0
1774391050677,-0.0131758,0.976963,0.127462,3.807030000000001e-11,-1.1260500000000001e-10,7.102540000000002e-11,0,0,4.50405,5,0.759,2,2.0
1774391050691,-0.0131114,0.976848,0.127148,3.83334e-11,-1.1168100000000002e-10,7.012220000000002e-11,0,0,3.28883,5,0.773,2,2.0
1774391050704,-0.0132979,0.977332,0.126848,3.8967800000000005e-11,-1.1042400000000003e-10,6.89695e-11,0,0,3.22916,5,0.786,2,2.0
1774391050717,-0.0131528,0.977104,0.127348,3.99954e-11,-1.09409e-10,6.809650000000001e-11,0,0,3.28555,5,0.799,2,2.0
1774391050731,-0.0131003,0.97736,0.12718,3.9935600000000006e-11,-1.08151e-10,6.864520000000001e-11,0,0,3.24035,5,0.813,2,2.0
1774391050746,-0.0129103,0.9774,0.127084,4.077970000000001e-11,-1.0773600000000002e-10,6.847690000000001e-11,0,0,3.33586,5,0.828,2,2.0
1774391050759,-0.0128041,0.977492,0.12682,4.063300000000001e-11,-1.06873e-10,6.767490000000001e-11,0,0,3.26664,5,0.841,2,2.0
1774391050772,-0.0128853,0.977451,0.126697,4.0751800000000007e-11,-1.0725800000000002e-10,6.77754e-11,0,0,3.2787,5,0.854,2,2.0
1774391050786,-0.0128984,0.977756,0.126633,4.030670000000001e-11,-1.0629400000000001e-10,6.765600000000002e-11,0,0,3.27034,5,0.868,2,2.0
1774391050799,-0.0132115,0.977864,0.126883,3.9586500000000005e-11,-1.06583e-10,6.672900000000002e-11,0,0,3.25744,5,0.881,2,2.0
1774391050813,-0.0132317,0.978151,0.12679,3.847840000000001e-11,-1.0707100000000001e-10,6.649690000000001e-11,0,0,3.30846,5,0.895,2,2.0
1774391050826,-0.0132403,0.978295,0.126937,3.820380000000001e-11,-1.0693100000000002e-10,6.640650000000002e-11,0,0,3.26484,5,0.908,2,2.0
1774391050842,-0.0129913,0.978284,0.127162,3.70878e-11,-1.0709900000000001e-10,6.63211e-11,0,0,3.30444,5,0.924,2,2.0
1774391050855,-0.0131069,0.978562,0.127185,3.582020000000001e-11,-1.0764300000000003e-10,6.56835e-11,0,0,3.27794,5,0.937,2,2.0
1774391050872,-0.0129067,0.97872,0.127293,3.3852700000000006e-11,-1.0734300000000001e-10,6.503900000000001e-11,0,0,6.61623,5,0.954,2,2.0
1774391050885,-0.0129188,0.978808,0.127096,3.280970000000001e-11,-1.0675900000000002e-10,6.53731e-11,0,0,3.26418,5,0.967,2,2.0
1774391050899,-0.012727,0.978474,0.127111,3.08828e-11,-1.0578000000000001e-10,6.42748e-11,0,0,3.65864,5,0.981,2,2.0
1774391050912,-0.0127149,0.97855,0.126762,2.92355e-11,-1.05584e-10,6.362370000000001e-11,0,0,3.25088,5,0.994,2,2.0
1774391050926,-0.0126284,0.978859,0.126663,2.84089e-11,-1.0582800000000002e-10,6.343750000000001e-11,0,0,3.29375,5,1.008,2,2.0
1774391050939,-0.012503,0.978855,0.126323,2.6343700000000003e-11,-1.0588600000000001e-10,6.37329e-11,0,0,3.26621,5,1.021,2,2.0
1774391050953,-0.0125435,0.979001,0.126489,2.4737200000000006e-11,-1.0594100000000001e-10,6.23841e-11,0,0,3.26892,5,1.035,2,2.0
1774391050966,-0.0122613,0.979204,0.126702,2.2963800000000004e-11,-1.0505100000000002e-10,6.17536e-11,0,0,3.26942,5,1.048,2,2.0
1774391050979,-0.0121627,0.979259,0.126938,2.21465e-11,-1.0523900000000001e-10,6.12012e-11,0,0,3.23823,5,1.061,2,2.0
1774391050993,-0.0122074,0.979163,0.126778,2.1418e-11,-1.0473099999999999e-10,6.059420000000001e-11,0,0,3.28696,5,1.075,2,2.0
1774391051006,-0.0123464,0.979284,0.126529,2.05161e-11,-1.0450800000000002e-10,5.899339999999999e-11,0,0,3.23523,5,1.088,2,2.0
1774391051019,-0.0122868,0.979507,0.126868,1.90654e-11,-1.0498300000000001e-10,5.928120000000001e-11,0,0,3.30181,5,1.101,2,2.0
1774391051033,-0.0122513,0.979485,0.126936,1.7439100000000004e-11,-1.03805e-10,5.89104e-11,0,0,3.25962,5,1.115,2,2.0
1774391051046,-0.0124097,0.979485,0.126905,1.74457e-11,-1.04191e-10,5.7789600000000003e-11,0,0,3.24259,5,1.128,2,2.0
1774391051059,-0.0124222,0.979624,0.127313,1.78802e-11,-1.03699e-10,5.763090000000001e-11,0,0,3.27568,5,1.141,2,2.0
1774391051073,-0.0121242,0.979779,0.127148,1.76052e-11,-1.0242099999999999e-10,5.7224300000000004e-11,0,0,3.2494,5,1.155,2,2.0
1774391051086,-0.0122026,0.979606,0.127107,1.73884e-11,-1.0095700000000003e-10,5.61124e-11,0,0,3.28914,5,1.168,2,2.0
1774391051100,-0.0121174,0.979494,0.126865,1.6412900000000002e-11,-1.00133e-10,5.514860000000001e-11,0,0,3.2421,5,1.182,2,2.0
1774391051113,-0.0121854,0.979633,0.126997,1.51925e-11,-1.0004e-10,5.428170000000001e-11,0,0,3.26477,5,1.195,2,2.0
1774391051126,-0.0123893,0.979595,0.127113,1.64813e-11,-9.965210000000001e-11,5.5219099999999995e-11,0,0,3.25373,5,1.208,2,2.0
1774391051140,-0.012157,0.979676,0.126636,1.6327599999999998e-11,-9.911500000000001e-11,5.57185e-11,0,0,3.25721,5,1.222,2,2.0
1774391051153,-0.0122981,0.979881,0.126436,1.7038900000000005e-11,-9.800840000000001e-11,5.6661e-11,0,0,3.35855,5,1.235,2,2.0
1774391051166,-0.0125398,0.979832,0.126576,1.85666e-11,-9.696399999999998e-11,5.7379200000000003e-11,0,0,3.24738,5,1.248,2,2.0
1774391051180,-0.0125038,0.979882,0.127031,1.9452100000000002e-11,-9.627790000000003e-11,5.8100000000000005e-11,0,0,3.26775,5,1.262,2,2.0
1774391051193,-0.012587,0.979811,0.126995,1.98168e-11,-9.67436e-11,5.852349999999999e-11,0,0,3.23805,5,1.275,2,2.0
1774391051206,-0.0126024,0.979658,0.126833,1.97329e-11,-9.74401e-11,5.84522e-11,0,0,3.27749,5,1.288,2,2.0
1774391051220,-0.012756,0.979715,0.126999,2.0296e-11,-9.831170000000002e-11,5.847050000000001e-11,0,0,3.25725,5,1.302,2,2.0
1774391051233,-0.0131485,0.979727,0.12705,2.031360000000001e-11,-9.656510000000001e-11,5.90016e-11,0,0,3.26845,5,1.315,2,2.0
1774391051247,-0.0132782,0.979674,0.12711,1.97736e-11,-9.628679999999999e-11,5.826120000000001e-11,0,0,3.26884,5,1.329,2,2.0
1774391051260,-0.0130284,0.979698,0.127423,2.1062300000000006e-11,-9.585280000000001e-11,5.93178e-11,0,0,3.27149,5,1.342,2,2.0
1774391051273,-0.0128644,0.979668,0.127584,2.1293900000000004e-11,-9.642800000000002e-11,5.92876e-11,0,0,3.28907,5,1.355,2,2.0
1774391051287,-0.012921,0.979831,0.127503,2.1127100000000002e-11,-9.607170000000001e-11,5.94731e-11,0,0,3.23668,5,1.369,2,2.0
1774391051300,-0.0128791,0.979997,0.127469,2.1911700000000004e-11,-9.65489e-11,5.96911e-11,0,0,3.32396,5,1.382,2,2.0
1774391051313,-0.0130313,0.979804,0.12719,2.25239e-11,-9.721350000000001e-11,5.98968e-11,0,0,3.24436,5,1.395,2,2.0
1774391051328,-0.0132301,0.979972,0.127147,2.2116800000000004e-11,-9.74555e-11,6.021950000000002e-11,0,0,4.01483,5,1.41,2,2.0
1774391051341,-0.0132922,0.979813,0.126979,2.1518499999999997e-11,-9.892560000000001e-11,6.125200000000001e-11,0,0,3.26738,5,1.423,2,2.0
1774391051354,-0.0128923,0.979713,0.12686,2.0525600000000002e-11,-9.98851e-11,6.325420000000002e-11,0,0,3.37705,5,1.436,2,2.0
1774391051368,-0.013172,0.980066,0.126031,1.92886e-11,-1.0083400000000002e-10,6.206110000000002e-11,0,0,3.2717,5,1.45,2,2.0
1774391051381,-0.0133434,0.979849,0.125869,1.8592e-11,-1.0305600000000002e-10,6.534530000000001e-11,0,0,3.23133,5,1.463,2,2.0
1774391051395,-0.0128345,0.979898,0.126322,1.6649900000000002e-11,-1.0421200000000001e-10,6.63044e-11,0,0,3.28547,5,1.477,2,2.0
1774391051408,-0.0124547,0.980115,0.126072,1.61442e-11,-1.0389e-10,7.136300000000001e-11,0,0,3.24505,5,1.49,2,2.0
1774391051422,-0.0121129,0.980024,0.125288,1.47248e-11,-1.0384299999999999e-10,7.125660000000001e-11,0,0,3.82629,5,1.504,2,2.0
1774391051436,-0.0120956,0.979755,0.126408,1.0302e-11,-1.0482700000000003e-10,7.9463e-11,0,0,3.28744,5,1.518,2,2.0
1774391051449,-0.0115026,0.980042,0.12641,1.1993600000000001e-11,-1.0507000000000002e-10,7.808870000000001e-11,0,0,3.3041,5,1.531,2,2.0
1774391051463,-0.012174,0.979858,0.126573,1.20916e-11,-1.0285800000000002e-10,8.05595e-11,0,0,3.31407,5,1.545,2,2.0
1774391051476,-0.0120046,0.979789,0.126365,9.35802e-12,-1.0325500000000002e-10,8.147870000000001e-11,0,0,3.27705,5,1.558,2,2.0
1774391051490,-0.0119921,0.979647,0.126508,4.5084100000000006e-12,-1.01616e-10,8.290290000000001e-11,0,0,3.28325,5,1.572,2,2.0
1774391051503,-0.0118414,0.979683,0.126613,5.731080000000001e-13,-1.0418000000000001e-10,8.060770000000001e-11,0,0,3.30623,5,1.585,2,2.0
1774391051516,-0.0111526,0.980284,0.126756,-9.576950000000002e-13,-1.0189100000000002e-10,8.216650000000001e-11,0,0,3.3047,5,1.598,2,2.0
1774391051530,-0.0115084,0.980399,0.126925,-1.1608900000000001e-12,-9.99863e-11,7.858520000000002e-11,0,0,3.26597,5,1.612,2,2.0
1774391051543,-0.0116244,0.980338,0.127332,-9.24496e-13,-9.921630000000003e-11,7.78596e-11,0,0,3.30484,5,1.625,2,2.0
1774391051557,-0.0115538,0.980482,0.127454,1.5501100000000003e-13,-9.8618e-11,7.648960000000001e-11,0,0,3.39429,5,1.639,2,2.0
1774391051570,-0.0113795,0.980674,0.127133,8.742330000000001e-13,-9.890960000000001e-11,7.618120000000001e-11,0,0,3.24723,5,1.652,2,2.0
1774391051584,-0.0112662,0.98059,0.127019,1.5959300000000002e-12,-9.815720000000003e-11,7.559040000000002e-11,0,0,3.26818,5,1.666,2,2.0
1774391051597,-0.0114675,0.98051,0.127475,2.5340600000000002e-12,-9.753260000000001e-11,7.42192e-11,0,0,3.25607,5,1.679,2,2.0
1774391051610,-0.0114998,0.980583,0.127591,2.5631899999999993e-12,-9.685750000000002e-11,7.32247e-11,0,0,3.28755,5,1.692,2,2.0
1774391051624,-0.0114987,0.980557,0.127958,3.0617000000000006e-12,-9.643429999999998e-11,7.20718e-11,0,0,3.25909,5,1.706,2,2.0
1774391051637,-0.0116365,0.980563,0.127636,3.4466000000000007e-12,-9.74479e-11,6.999880000000001e-11,0,0,3.29123,5,1.719,2,2.0
1774391051651,-0.0113731,0.980442,0.127948,4.32374e-12,-9.806200000000001e-11,6.765670000000002e-11,0,0,3.27803,5,1.733,2,2.0
1774391051664,-0.0112815,0.980315,0.127691,5.1945e-12,-9.97122e-11,6.50177e-11,0,0,3.27414,5,1.746,2,2.0
1774391051678,-0.0112899,0.980418,0.127605,4.98876e-12,-9.99424e-11,6.274090000000001e-11,0,0,3.26881,5,1.76,2,2.0
1774391051691,-0.0111592,0.980324,0.127662,4.8802e-12,-1.0016e-10,6.217610000000001e-11,0,0,3.27436,5,1.773,2,2.0
1774391051704,-0.011141,0.980458,0.127172,5.93384e-12,-1.0126400000000002e-10,6.24566e-11,0,0,3.28901,5,1.786,2,2.0
1774391051718,-0.0110915,0.980651,0.127568,9.19776e-12,-1.0067900000000003e-10,6.37917e-11,0,0,3.24857,5,1.8,2,2.0
1774391051731,-0.0115353,0.980718,0.127798,1.1422200000000001e-11,-9.875720000000002e-11,6.51376e-11,0,0,3.2677,5,1.813,2,2.0
1774391051745,-0.0119598,0.980664,0.127515,1.2579900000000004e-11,-9.934079999999999e-11,6.49522e-11,0,0,3.27655,5,1.827,2,2.0
1774391051758,-0.0115221,0.980549,0.127736,1.2687799999999999e-11,-1.0036299999999999e-10,6.7175e-11,0,0,3.38483,5,1.84,2,2.0
1774391051771,-0.0106766,0.980268,0.127915,1.2704100000000002e-11,-1.0034200000000002e-10,6.82027e-11,0,0,3.27868,5,1.853,2,2.0
1774391051785,-0.0109143,0.979967,0.128322,1.28906e-11,-9.826770000000002e-11,6.874460000000002e-11,0,0,3.2857,5,1.867,2,2.0
1774391051798,-0.0110136,0.979626,0.12791,8.271079999999999e-12,-1.0020600000000001e-10,6.955580000000001e-11,0,0,3.26075,5,1.88,2,2.0
1774391051812,-0.0106921,0.979641,0.128135,2.7545400000000005e-12,-1.0306300000000002e-10,7.22055e-11,0,0,3.2772,5,1.894,2,2.0
1774391051825,-0.00942371,0.979186,0.128403,-4.721960000000001e-12,-1.0862900000000001e-10,7.70616e-11,0,0,3.2919,5,1.907,2,2.0
1774391051838,-0.00887279,0.979979,0.128831,-9.766600000000001e-12,-1.08659e-10,7.903330000000003e-11,0,0,3.24436,5,1.92,2,2.0
1774391051852,-0.00948839,0.979808,0.129144,-9.004680000000002e-12,-1.11899e-10,7.71693e-11,0,0,3.2907,5,1.934,2,2.0
1774391051865,-0.00881719,0.97941,0.129433,-1.3766300000000001e-11,-1.11916e-10,7.742230000000001e-11,0,0,3.29034,5,1.947,2,2.0
1774391051879,-0.00927507,0.979958,0.129068,-1.6762100000000003e-11,-1.1026300000000002e-10,8.023020000000002e-11,0,0,3.24281,5,1.961,2,2.0
1774391051892,-0.00975563,0.979874,0.128356,-1.9461500000000003e-11,-1.1191400000000001e-10,7.77852e-11,0,0,3.27986,5,1.974,2,2.0
1774391051905,-0.0100764,0.980209,0.128017,-2.3379600000000006e-11,-1.148e-10,8.17716e-11,0,0,3.25623,5,1.987,2,2.0
1774391051919,-0.00958232,0.980231,0.128077,-2.7891500000000007e-11,-1.17095e-10,8.279410000000001e-11,0,0,3.27525,5,2.001,2,2.0
1774391051932,-0.00998538,0.980135,0.127921,-2.93243e-11,-1.1879100000000002e-10,8.465840000000001e-11,0,0,3.2502,5,2.014,2,2.0
1774391051945,-0.0102213,0.980107,0.127537,-3.10193e-11,-1.1803700000000001e-10,8.406310000000001e-11,0,0,3.27997,5,2.027,2,2.0
1774391051959,-0.0105004,0.980315,0.127843,-3.02642e-11,-1.16169e-10,8.37153e-11,0,0,3.26701,5,2.041,2,2.0
1774391051972,-0.0101159,0.980738,0.127857,-2.6811000000000008e-11,-1.1453400000000003e-10,8.42006e-11,0,0,3.26755,5,2.054,2,2.0
1774391051986,-0.0103248,0.980705,0.127946,-2.1667600000000005e-11,-1.1196300000000002e-10,8.512960000000002e-11,0,0,3.2656,5,2.068,2,2.0
1774391051999,-0.0105459,0.980748,0.128319,-1.5613700000000002e-11,-1.0855200000000002e-10,8.459360000000001e-11,0,0,3.27292,5,2.081,2,2.0
1774391052012,-0.0108214,0.98064,0.12875,-8.100980000000002e-12,-1.05588e-10,8.17753e-11,0,0,3.28073,5,2.094,2,2.0
1774391052026,-0.0108927,0.980344,0.128981,-9.668670000000002e-13,-1.0223500000000002e-10,8.087080000000001e-11,0,0,3.27236,5,2.108,2,2.0
1774391052039,-0.0109181,0.980371,0.129256,6.109620000000001e-12,-1.0039700000000001e-10,7.85611e-11,0,0,3.26751,5,2.121,2,2.0
1774391052053,-0.0108464,0.980279,0.129667,1.29605e-11,-9.587850000000002e-11,7.62525e-11,0,0,3.26612,5,2.135,2,2.0
1774391052066,-0.0109059,0.980255,0.129645,2.02834e-11,-9.16565e-11,7.300300000000002e-11,0,0,3.27647,5,2.148,2,2.0
1774391052079,-0.0114219,0.980361,0.129581,2.7666500000000002e-11,-8.64297e-11,7.104900000000001e-11,0,0,3.27757,5,2.161,2,2.0
1774391052093,-0.0111466,0.98028,0.129594,3.4721200000000005e-11,-8.20954e-11,6.817700000000002e-11,0,0,3.2506,5,2.175,2,2.0
1774391052106,-0.0113958,0.980288,0.129254,4.2621899999999996e-11,-7.813280000000001e-11,6.5723e-11,0,0,3.26557,5,2.188,2,2.0
1774391052119,-0.0113566,0.980328,0.129378,5.3205200000000004e-11,-7.29366e-11,6.3321e-11,0,0,3.24933,5,2.201,3,3.0
1774391052133,-0.0113511,0.980516,0.129047,6.473630000000001e-11,-7.128610000000002e-11,6.041140000000001e-11,0,0,3.32801,5,2.215,3,3.0
1774391052146,-0.0110789,0.980685,0.129095,7.733330000000001e-11,-6.938560000000002e-11,5.7194100000000006e-11,0,0,3.29266,5,2.228,3,3.0
1774391052160,-0.0109574,0.980739,0.129054,8.87956e-11,-6.72491e-11,5.509920000000001e-11,0,0,3.27412,5,2.242,3,3.0
1774391052173,-0.0113964,0.98155,0.12908,1.0149900000000002e-10,-6.322000000000002e-11,5.2693700000000004e-11,0,0,3.27038,5,2.255,3,3.0
1774391052186,-0.0116347,0.983467,0.129371,1.2779100000000001e-10,-5.6548100000000016e-11,4.823930000000001e-11,0,0,3.24921,5,2.268,3,3.0
1774391052200,-0.0126634,0.984478,0.1295,1.7264800000000003e-10,-4.58401e-11,4.18938e-11,0,0,3.2651,5,2.282,3,3.0
1774391052213,-0.0126968,0.986673,0.129453,2.4252e-10,-3.2435700000000006e-11,4.01862e-11,0,0,3.25029,5,2.295,3,3.0
1774391052226,-0.0132626,0.989872,0.129504,3.4358500000000006e-10,-1.50303e-11,4.015860000000001e-11,0,0,3.32088,5,2.308,3,3.0
1774391052240,-0.0141026,0.995568,0.129702,4.92162e-10,9.23454e-12,4.6555400000000006e-11,0,0,3.2599,5,2.322,3,3.0
1774391052253,-0.0145536,1.00145,0.129358,7.06309e-10,4.5711900000000014e-11,5.332130000000001e-11,0,0,3.27984,5,2.335,3,3.0
1774391052267,-0.0132445,1.00729,0.130886,9.695900000000002e-10,8.378270000000001e-11,2.8364400000000003e-11,0,0,3.36096,5,2.349,3,3.0
1774391052280,-0.0114481,1.01572,0.134173,1.2723999999999999e-09,1.31964e-10,-4.4177099999999996e-11,0,0,3.25397,5,2.362,3,3.0
1774391052293,0.000295345,1.03094,0.146414,1.6013800000000003e-09,1.69521e-10,-1.5786600000000004e-10,0,0,3.2802,5,2.375,3,3.0
1774391052307,0.0119629,1.05831,0.154574,2.02041e-09,1.5093499999999998e-10,-3.54241e-10,0,0,3.32188,5,2.389,3,3.0
1774391052320,0.00556749,1.09144,0.1692,2.47494e-09,9.185710000000001e-11,-4.1349900000000006e-10,0,0,3.31858,5,2.402,3,3.0
1774391052334,0.0169191,1.11103,0.181083,3.02999e-09,3.3823599999999997e-11,-5.247980000000001e-10,0,0,3.27547,5,2.416,3,3.0
1774391052347,0.0322266,1.12879,0.19535,3.6636500000000003e-09,-1.0556399999999999e-10,-5.852800000000002e-10,0,0,3.31783,5,2.429,3,3.0
1774391052361,0.0331127,1.12909,0.224325,4.33525e-09,-2.65265e-10,-6.531170000000001e-10,0,0,3.27412,5,2.443,3,3.0
1774391052374,0.0273832,1.10566,0.258354,4.8924400000000005e-09,-3.4141800000000003e-10,-7.583829999999999e-10,0,0,3.27321,5,2.456,3,3.0
1774391052388,0.00824849,1.07613,0.289614,5.278270000000001e-09,-3.0111500000000005e-10,-7.883360000000001e-10,0,0,4.11922,5,2.47,4,4.0
1774391052402,-0.00764711,1.04674,0.331785,5.514780000000001e-09,-1.30035e-10,-6.538540000000001e-10,0,0,4.05838,5,2.484,4,4.0
1774391052416,-0.011167,1.00625,0.373147,5.6046e-09,-3.86879e-11,-4.992980000000001e-10,0,0,3.28066,2,2.498,4,4.0
1774391052429,-0.015857,0.957293,0.417634,5.35381e-09,4.23113e-11,-3.803450000000001e-10,0,0,3.27879,2,2.511,4,4.0
1774391052442,-0.0179075,0.905456,0.45411,4.6755400000000006e-09,1.2818700000000002e-10,-2.99792e-10,0,0,3.30934,2,2.524,4,4.0
1774391052456,-0.0186298,0.858021,0.479264,3.723e-09,1.50756e-10,-1.8809e-10,0,0,3.29247,2,2.538,4,4.0
1774391052470,-0.0221392,0.817679,0.502454,2.6580500000000003e-09,1.2204600000000003e-10,-1.4957200000000002e-11,0,0,3.8816,2,2.552,4,4.0
1774391052483,-0.029232,0.785571,0.518319,1.49895e-09,9.302040000000003e-11,1.0645900000000002e-10,0,0,3.25334,2,2.565,4,4.0
1774391052497,-0.0497238,0.78062,0.523956,2.3915400000000003e-10,6.228270000000001e-11,-1.14034e-10,0,0,3.27934,2,2.579,5,5.0
1774391052510,-0.074391,0.787171,0.527425,-1.17734e-09,1.4429800000000002e-10,-1.0225e-09,0,0,3.27283,2,2.592,5,5.0
1774391052524,-0.0838752,0.821014,0.540372,-2.51438e-09,3.8934799999999994e-10,-1.494e-09,0,0,3.2832,2,2.606,5,5.0
1774391052537,-0.0608819,0.915859,0.536685,-3.776430000000001e-09,5.776620000000001e-10,-1.2303200000000002e-09,0,0,3.65353,2,2.619,5,5.0
1774391052551,-0.0420119,0.982874,0.520816,-4.232230000000001e-09,4.0631300000000004e-10,-9.580010000000001e-10,0,0,3.28662,2,2.633,5,5.0
1774391052564,-0.0317826,1.01178,0.521369,-4.3730000000000005e-09,2.37511e-10,-9.816810000000002e-10,0,0,3.27916,2,2.646,5,5.0
1774391052578,-0.0445609,1.00439,0.493582,-4.651550000000001e-09,1.9001900000000005e-10,-1.07991e-09,0,0,3.27553,5,2.66,5,5.0
1774391052591,-0.0517622,0.998237,0.459216,-5.227190000000001e-09,1.1744400000000002e-10,-9.534770000000002e-10,0,0,3.28007,5,2.673,5,5.0
1774391052605,-0.052819,1.01372,0.44492,-5.887380000000002e-09,8.29817e-11,-8.16241e-10,0,0,3.31796,5,2.687,5,5.0
1774391052618,-0.0471246,1.04139,0.432029,-6.29118e-09,5.576170000000001e-11,-8.387520000000002e-10,0,0,3.2686,5,2.7,5,5.0
1774391052631,-0.0504769,1.05464,0.413722,-6.451560000000002e-09,3.9511300000000004e-13,-8.268580000000001e-10,0,0,3.27692,5,2.713,5,5.0
1774391052645,-0.0540242,1.04846,0.395213,-6.60337e-09,-3.7350300000000004e-11,-7.550860000000001e-10,0,0,3.26783,5,2.727,5,5.0
1774391052658,-0.0553772,1.04365,0.379467,-6.858e-09,-5.61079e-11,-7.21638e-10,0,0,3.35157,5,2.74,5,5.0
1774391052672,-0.0551441,1.04693,0.362306,-7.1087000000000005e-09,-6.828970000000001e-11,-7.48256e-10,0,0,3.31399,5,2.754,5,5.0
1774391052686,-0.0571314,1.05175,0.343087,-7.233710000000002e-09,-6.051990000000001e-11,-7.200300000000001e-10,0,0,3.91249,3,2.768,5,5.0
1774391052700,-0.0598646,1.05507,0.322072,-7.2916000000000016e-09,-2.0001400000000002e-11,-6.82724e-10,0,0,3.29594,3,2.782,1,1.0
1774391052713,-0.0636634,1.05794,0.298271,-7.293480000000001e-09,6.66293e-11,-6.387340000000001e-10,0,0,3.27977,3,2.795,1,1.0
1774391052727,-0.0677765,1.06131,0.271582,-7.243750000000001e-09,2.0479300000000005e-10,-5.523800000000001e-10,0,0,3.26371,3,2.809,1,1.0
1774391052740,-0.0708983,1.06721,0.243166,-7.132840000000001e-09,3.9228399999999995e-10,-4.5973700000000003e-10,0,0,3.2914,3,2.822,1,1.0
1774391052754,-0.0739903,1.07383,0.212278,-6.946870000000001e-09,6.29589e-10,-3.585450000000001e-10,0,0,3.60703,3,2.836,1,1.0
1774391052767,-0.0745875,1.08086,0.181598,-6.688230000000001e-09,8.966590000000002e-10,-2.30359e-10,0,0,3.29771,3,2.849,1,1.0
1774391052781,-0.0729912,1.08924,0.150904,-6.348660000000001e-09,1.1757700000000002e-09,-9.45057e-11,0,0,3.33286,3,2.863,1,1.0
1774391052794,-0.0698205,1.09661,0.121104,-5.92947e-09,1.4574200000000001e-09,3.809520000000001e-11,0,0,3.26875,3,2.876,1,1.0
1774391052807,-0.0634359,1.10182,0.0934821,-5.4544600000000014e-09,1.7314500000000003e-09,1.4895700000000002e-10,0,0,3.29521,3,2.889,1,1.0
1774391052821,-0.071819,1.13495,0.145426,-5.7175199999999995e-09,1.8851600000000006e-09,5.609950000000001e-10,0,0,3.31938,5,2.903,1,1.0
1774391052835,-0.0899465,1.12584,0.146433,-5.374759999999999e-09,2.0202700000000005e-09,7.113350000000001e-10,0,0,3.64142,5,2.917,1,1.0
1774391052848,-0.0863119,1.08912,0.175605,-4.543950000000001e-09,2.3019900000000002e-09,1.1565300000000001e-09,0,0,3.28433,5,2.93,1,1.0
1774391052862,-0.0929045,1.05149,0.230599,-4.024150000000001e-09,2.4811200000000002e-09,1.61237e-09,0,0,3.28958,5,2.944,1,1.0
1774391052875,-0.128378,1.04053,0.239796,-4.2169e-09,2.6305000000000004e-09,1.4052100000000002e-09,0,0,3.42742,5,2.957,1,1.0
1774391052889,-0.132042,1.03715,0.227548,-4.37322e-09,3.026110000000001e-09,1.4421700000000002e-09,0,0,3.33199,5,2.971,1,1.0
1774391052903,-0.116584,1.08684,0.240595,-4.333570000000001e-09,3.161280000000001e-09,1.9863800000000007e-09,0,0,3.82957,5,2.985,1,1.0
1774391052916,-0.106531,1.15341,0.249483,-3.40805e-09,2.96241e-09,2.4699700000000007e-09,0,0,3.24958,5,2.998,1,1.0
1774391052929,-0.0910564,1.16645,0.260994,-2.01745e-09,2.6576400000000003e-09,2.42943e-09,0,0,3.31364,5,3.011,1,1.0
1774391052943,-0.0902667,1.155,0.271308,-7.558900000000001e-10,2.2966200000000003e-09,2.6229500000000003e-09,0,0,3.28897,5,3.025,1,1.0
1774391052956,-0.0995157,1.1234,0.281565,2.40295e-10,2.08751e-09,2.8248400000000008e-09,0,0,3.26581,5,3.038,1,1.0
1774391052970,-0.0993063,1.0879,0.288129,9.10245e-10,1.99675e-09,2.9815700000000005e-09,0,0,3.33497,5,3.052,1,1.0
1774391052983,-0.0949954,1.05426,0.290251,1.2605700000000003e-09,1.94837e-09,3.0326599999999997e-09,0,0,3.28216,5,3.065,1,1.0
1774391052996,-0.0917379,1.0375,0.293797,1.3928599999999999e-09,1.9116599999999996e-09,3.10204e-09,0,0,3.29118,5,3.078,1,1.0
1774391053010,-0.0886228,1.04661,0.294573,1.5884700000000004e-09,1.8639500000000004e-09,3.1547600000000004e-09,0,0,3.27838,5,3.092,1,1.0
1774391053023,-0.0832416,1.05316,0.295912,1.9473800000000004e-09,1.76745e-09,3.1618400000000003e-09,0,0,3.31101,5,3.105,1,1.0
1774391053037,-0.0788859,1.04914,0.296531,2.3124100000000003e-09,1.6333200000000003e-09,3.2121100000000004e-09,0,0,3.42705,5,3.119,1,1.0
1774391053050,-0.0766852,1.0422,0.295798,2.6368400000000006e-09,1.4988500000000003e-09,3.2472700000000005e-09,0,0,3.28973,5,3.132,1,1.0
1774391053063,-0.0746128,1.03503,0.295055,2.9149700000000007e-09,1.3930200000000002e-09,3.26667e-09,0,0,3.28468,5,3.145,1,1.0
1774391053077,-0.0727912,1.03391,0.293288,3.16736e-09,1.33556e-09,3.2626700000000007e-09,0,0,3.27358,5,3.159,2,2.0
1774391053090,-0.0689672,1.03459,0.292836,3.4464500000000002e-09,1.3436700000000004e-09,3.167610000000001e-09,0,0,3.28423,5,3.172,2,2.0
1774391053104,-0.0660365,1.03318,0.295596,3.728840000000001e-09,1.4370500000000001e-09,2.9530600000000006e-09,0,0,3.54694,5,3.186,2,2.0
1774391053117,-0.0570735,1.02669,0.296549,3.973430000000001e-09,1.50918e-09,2.69467e-09,0,0,3.32814,5,3.199,2,2.0
1774391053131,-0.0447014,1.01792,0.281712,4.17638e-09,1.5615400000000002e-09,2.44101e-09,0,0,3.26947,5,3.213,2,2.0
1774391053144,-0.0328276,1.01007,0.274987,4.269550000000001e-09,1.4749000000000004e-09,2.1900700000000005e-09,0,0,3.28186,5,3.226,2,2.0
1774391053158,-0.0360898,1.00928,0.261861,4.34255e-09,1.3947300000000002e-09,1.94467e-09,0,0,3.29425,5,3.24,2,2.0
1774391053171,-0.0380776,1.00628,0.256143,4.423190000000001e-09,1.3466e-09,1.7374099999999997e-09,0,0,3.53899,5,3.253,2,2.0
1774391053185,-0.0385371,1.00298,0.245517,4.465870000000002e-09,1.32031e-09,1.5559000000000002e-09,0,0,3.29781,5,3.267,2,2.0
1774391053198,-0.0393501,0.999219,0.237129,4.46354e-09,1.3042299999999997e-09,1.4244400000000003e-09,0,0,3.2679,5,3.28,2,2.0
1774391053211,-0.0382272,0.998869,0.23088,4.4345e-09,1.25933e-09,1.34047e-09,0,0,3.32242,5,3.293,2,2.0
1774391053225,-0.0387015,1.00026,0.222972,4.42006e-09,1.2184900000000002e-09,1.27055e-09,0,0,3.25879,5,3.307,2,2.0
1774391053238,-0.0380553,0.999569,0.217759,4.390250000000001e-09,1.1749399999999999e-09,1.2376899999999997e-09,0,0,3.34157,5,3.32,2,2.0
1774391053252,-0.0376295,1.00041,0.212965,4.346050000000001e-09,1.1324099999999998e-09,1.1934799999999999e-09,0,0,3.64225,5,3.334,2,2.0
1774391053265,-0.0372224,1.00435,0.20757,4.316490000000001e-09,1.09651e-09,1.1494900000000001e-09,0,0,3.2881,5,3.347,2,2.0
1774391053279,-0.035349,1.01006,0.204077,4.29176e-09,1.0488300000000002e-09,1.0963600000000001e-09,0,0,3.27596,5,3.361,2,2.0
1774391053292,-0.0407538,1.01751,0.198985,4.3063500000000005e-09,1.0134200000000002e-09,1.05447e-09,0,0,3.3094,5,3.374,2,2.0
1774391053306,-0.0387366,1.02101,0.193678,4.317170000000001e-09,9.68867e-10,1.04889e-09,0,0,3.30768,5,3.388,2,2.0
1774391053320,-0.0391459,1.0259,0.189596,4.313470000000001e-09,9.001340000000001e-10,1.11825e-09,0,0,3.82333,5,3.402,2,2.0
1774391053333,-0.0377116,1.03104,0.183846,4.3428600000000004e-09,8.34014e-10,1.1699800000000001e-09,0,0,3.27938,5,3.415,2,2.0
1774391053346,-0.038817,1.03249,0.178582,4.3751399999999994e-09,7.704480000000002e-10,1.23324e-09,0,0,3.28503,5,3.428,2,2.0
1774391053360,-0.0361371,1.03369,0.172801,4.40894e-09,7.085200000000002e-10,1.3025800000000003e-09,0,0,3.2774,5,3.442,2,2.0
1774391053373,-0.0327203,1.03535,0.167123,4.447620000000001e-09,6.51521e-10,1.3528300000000004e-09,0,0,3.24899,5,3.455,2,2.0
1774391053386,-0.028428,1.03604,0.16149,4.494490000000001e-09,5.953220000000001e-10,1.3889599999999997e-09,0,0,3.26771,5,3.468,2,2.0
1774391053400,-0.0244408,1.0356,0.155303,4.5365899999999995e-09,5.384210000000001e-10,1.4182700000000001e-09,0,0,3.31034,5,3.482,2,2.0
1774391053413,-0.0203824,1.03608,0.147978,4.57667e-09,4.766200000000001e-10,1.43532e-09,0,0,3.26308,5,3.495,2,2.0
1774391053427,-0.0174411,1.03575,0.14062,4.61258e-09,4.131470000000001e-10,1.4445500000000001e-09,0,0,3.28383,5,3.509,2,2.0
1774391053440,-0.0157067,1.03505,0.13273,4.646260000000001e-09,3.5212100000000003e-10,1.4657300000000003e-09,0,0,3.29371,5,3.522,2,2.0
1774391053453,-0.0111868,1.03489,0.124822,4.672990000000001e-09,2.8591099999999995e-10,1.4672700000000005e-09,0,0,3.25825,5,3.535,2,2.0
1774391053467,-0.00700341,1.03407,0.117239,4.686030000000001e-09,2.1660700000000004e-10,1.4340400000000004e-09,0,0,3.26695,5,3.549,2,2.0
1774391053480,-0.00220216,1.03462,0.110029,4.713190000000001e-09,1.34449e-10,1.4013800000000004e-09,0,0,3.28703,5,3.562,2,2.0
1774391053494,0.00236776,1.03319,0.103232,4.734030000000001e-09,6.54626e-11,1.3439299999999997e-09,0,0,3.31596,5,3.576,2,2.0
1774391053507,-0.000437041,1.03292,0.0963468,4.794930000000001e-09,8.909600000000002e-12,1.3478000000000002e-09,0,0,3.25351,5,3.589,2,2.0
1774391053520,0.00261431,1.03076,0.0870832,4.84844e-09,-3.5179500000000004e-11,1.36953e-09,0,0,3.29618,5,3.602,2,2.0
1774391053534,0.00775301,1.0293,0.0774986,4.8894e-09,-1.0026000000000002e-10,1.3572400000000004e-09,0,0,3.27823,5,3.616,2,2.0
1774391053547,0.0101793,1.02579,0.0675751,4.88593e-09,-1.60534e-10,1.3115500000000005e-09,0,0,3.28212,5,3.629,2,2.0
1774391053561,0.00452378,1.02641,0.0537722,4.873360000000001e-09,-2.0501000000000002e-10,1.3707600000000003e-09,0,0,3.26633,5,3.643,2,2.0
1774391053574,0.00772119,1.03033,0.0439575,4.902720000000001e-09,-2.62534e-10,1.4246800000000003e-09,0,0,3.27651,5,3.656,2,2.0
1774391053587,0.00893167,1.03431,0.0365792,4.97682e-09,-3.2942e-10,1.46368e-09,0,0,3.33927,5,3.669,2,2.0
1774391053601,0.00977959,1.03843,0.0293741,5.0888900000000014e-09,-3.9255500000000005e-10,1.5345700000000002e-09,0,0,3.24736,5,3.683,2,2.0
1774391053614,0.0134091,1.04228,0.0221959,5.22936e-09,-4.6255300000000015e-10,1.59339e-09,0,0,3.30586,5,3.696,2,2.0
1774391053628,0.0158763,1.04597,0.0156519,5.387510000000001e-09,-5.39029e-10,1.6502400000000003e-09,0,0,3.26773,5,3.71,2,2.0
1774391053641,0.0159507,1.04903,0.00976772,5.546040000000001e-09,-6.198650000000001e-10,1.7216200000000003e-09,0,0,3.29196,5,3.723,2,2.0
1774391053654,0.0168867,1.05252,0.00377789,5.70133e-09,-7.064860000000002e-10,1.8289100000000005e-09,0,0,3.27081,5,3.736,2,2.0
1774391053668,0.0163404,1.05938,0.00027081,5.8627700000000004e-09,-8.007090000000001e-10,1.96088e-09,0,0,3.26181,5,3.75,2,2.0
1774391053681,0.0191705,1.07182,0.000910257,6.050390000000001e-09,-8.937569999999999e-10,2.1272000000000003e-09,0,0,3.27147,5,3.763,2,2.0
1774391053695,0.0275249,1.09053,0.0057925,6.30627e-09,-1.0075800000000002e-09,2.31035e-09,0,0,3.28934,5,3.777,2,2.0
1774391053708,0.0359518,1.11369,0.0140059,6.653180000000001e-09,-1.1688300000000002e-09,2.4796800000000003e-09,0,0,3.33592,5,3.79,2,2.0
1774391053721,0.0417999,1.14536,0.0241024,7.136320000000002e-09,-1.3490500000000002e-09,2.6384799999999998e-09,0,0,3.25399,5,3.803,2,2.0
1774391053735,0.0528376,1.18167,0.035978,7.7859e-09,-1.5319200000000002e-09,2.7905100000000005e-09,0,0,3.28753,5,3.817,2,2.0
1774391053748,0.0675031,1.22789,0.0411097,8.6404e-09,-1.7762500000000004e-09,2.9567900000000005e-09,0,0,3.27088,5,3.83,2,2.0
1774391053761,0.079125,1.27596,0.042942,9.55878e-09,-2.05552e-09,3.11477e-09,0,0,3.24925,5,3.843,2,2.0
1774391053775,0.0874306,1.3109,0.0398362,1.04256e-08,-2.35076e-09,3.3372400000000008e-09,0,0,3.28596,5,3.857,2,2.0
1774391053788,0.10084,1.32313,0.0390443,1.12439e-08,-2.6666600000000004e-09,3.5104600000000007e-09,0,0,3.29662,4,3.87,2,2.0
1774391053802,0.114025,1.33514,0.0444583,1.2016200000000002e-08,-3.0097100000000008e-09,3.77316e-09,0,0,3.29675,4,3.884,2,2.0
1774391053815,0.133574,1.34636,0.0512477,1.2745200000000002e-08,-3.45619e-09,4.123890000000001e-09,0,0,3.25547,4,3.897,2,2.0
1774391053828,0.150346,1.34213,0.0653528,1.3433400000000002e-08,-4.01533e-09,4.47452e-09,0,0,3.30299,4,3.91,2,2.0
1774391053842,0.16583,1.31111,0.0885677,1.40829e-08,-4.731430000000001e-09,4.74498e-09,0,0,3.28571,4,3.924,4,4.0
1774391053855,0.15909,1.22085,0.110447,1.4696000000000003e-08,-5.431760000000001e-09,4.7614700000000005e-09,0,0,3.27803,4,3.937,4,4.0
1774391053869,0.138979,1.08728,0.0756683,1.5168000000000004e-08,-5.8965300000000005e-09,4.5423900000000005e-09,0,0,3.3012,4,3.951,4,4.0
1774391053882,0.0997382,0.97304,0.0836233,1.4500500000000003e-08,-6.078110000000001e-09,4.47206e-09,0,0,3.25327,4,3.964,4,4.0
1774391053895,0.0763822,0.888046,0.0900025,1.29624e-08,-6.0039700000000016e-09,4.352109999999999e-09,0,0,3.29927,4,3.977,4,4.0
1774391053909,0.0701377,0.8172,0.0837495,1.08322e-08,-5.852990000000001e-09,4.0298e-09,0,0,3.29331,4,3.991,4,4.0
1774391053922,0.0452575,0.768596,0.0899524,8.821550000000002e-09,-5.5367100000000004e-09,3.6819000000000003e-09,0,0,3.27764,1,4.004,4,4.0
1774391053936,0.027989,0.756145,0.108771,6.923650000000002e-09,-5.0126100000000005e-09,3.62129e-09,0,0,3.27962,1,4.018,4,4.0
1774391053949,0.0318899,0.767738,0.134006,5.132210000000001e-09,-4.526420000000001e-09,3.906690000000001e-09,0,0,3.28453,1,4.031,4,4.0
1774391053962,0.0292567,0.793164,0.143242,3.4412500000000003e-09,-3.9987e-09,4.0053100000000005e-09,0,0,3.29507,1,4.044,4,4.0
1774391053976,0.0335613,0.815769,0.144249,2.1274000000000003e-09,-3.4992100000000008e-09,3.6925600000000007e-09,0,0,3.24712,1,4.058,4,4.0
1774391053989,0.0292855,0.818872,0.146365,1.2365600000000001e-09,-3.00564e-09,3.2305800000000002e-09,0,0,3.27694,1,4.071,5,5.0
1774391054003,0.0275777,0.80845,0.14764,3.597690000000001e-10,-2.5305900000000005e-09,2.8643100000000004e-09,0,0,3.27031,1,4.085,5,5.0
1774391054016,0.0300659,0.794256,0.149287,-7.27495e-10,-2.110750000000001e-09,2.57146e-09,0,0,3.31588,2,4.098,5,5.0
1774391054029,0.0331819,0.782775,0.151354,-2.0251600000000005e-09,-1.7596800000000003e-09,2.38286e-09,0,0,3.27573,2,4.111,5,5.0
1774391054043,0.0312931,0.779452,0.153735,-3.31464e-09,-1.4299700000000006e-09,2.3258000000000004e-09,0,0,3.28657,2,4.125,5,5.0
1774391054056,0.0270525,0.78787,0.155532,-4.5318000000000004e-09,-1.09584e-09,2.3055200000000005e-09,0,0,3.27227,2,4.138,5,5.0
1774391054069,0.0228692,0.807855,0.156183,-5.680680000000001e-09,-7.475310000000001e-10,2.29394e-09,0,0,3.23903,5,4.151,5,5.0
1774391054083,0.0186446,0.832146,0.154734,-6.7651200000000016e-09,-3.92468e-10,2.23939e-09,0,0,3.27051,5,4.165,5,5.0
1774391054096,0.0133556,0.853185,0.154437,-7.788720000000003e-09,-2.95312e-11,2.15818e-09,0,0,3.30857,5,4.178,5,5.0
1774391054110,0.0106682,0.872941,0.155274,-8.75492e-09,3.5111300000000007e-10,2.0551500000000003e-09,0,0,3.30968,5,4.192,5,5.0
1774391054123,0.0142589,0.89746,0.15836,-9.666910000000003e-09,7.25649e-10,1.88815e-09,0,0,3.24162,5,4.205,5,5.0
1774391054136,0.0232552,0.931006,0.163702,-1.05278e-08,1.0727100000000001e-09,1.6468900000000005e-09,0,0,3.2799,5,4.218,5,5.0
1774391054150,0.0372926,0.971222,0.169088,-1.13403e-08,1.35124e-09,1.36397e-09,0,0,3.36238,5,4.232,5,5.0
1774391054163,0.0542715,1.01439,0.173588,-1.2107300000000002e-08,1.5220800000000002e-09,1.1006e-09,0,0,3.27262,5,4.245,5,5.0
1774391054176,0.0716183,1.05664,0.172968,-1.28312e-08,1.5804000000000003e-09,8.985880000000003e-10,0,0,3.27477,5,4.258,5,5.0
1774391054190,0.0859643,1.09475,0.165714,-1.3445400000000002e-08,1.5622700000000002e-09,7.461470000000001e-10,0,0,3.24198,5,4.272,5,5.0
1774391054203,0.0955723,1.12765,0.152317,-1.39125e-08,1.5135200000000002e-09,5.970330000000001e-10,0,0,3.31025,5,4.285,5,5.0
1774391054217,0.100436,1.15681,0.135865,-1.4269700000000002e-08,1.4719600000000002e-09,4.4806200000000007e-10,0,0,3.24447,5,4.299,5,5.0
1774391054230,0.106635,1.17924,0.116054,-1.4593400000000002e-08,1.4550700000000006e-09,3.26716e-10,0,0,3.27414,5,4.312,5,5.0
1774391054243,0.116834,1.19932,0.0935644,-1.4946400000000002e-08,1.4218800000000003e-09,2.8295600000000004e-10,0,0,3.26316,5,4.325,1,1.0
1774391054257,0.125017,1.22813,0.0655991,-1.5219700000000004e-08,1.33665e-09,3.774270000000001e-10,0,0,3.24397,5,4.339,1,1.0
1774391054270,0.127526,1.25928,0.0326428,-1.52684e-08,1.23324e-09,5.45986e-10,0,0,3.27258,5,4.352,1,1.0
1774391054283,0.128173,1.28723,-0.00558798,-1.5050200000000003e-08,1.1474900000000001e-09,6.783280000000003e-10,0,0,3.23783,5,4.365,1,1.0
1774391054297,0.126369,1.31023,-0.0465244,-1.4610900000000005e-08,1.0960200000000001e-09,6.97099e-10,0,0,3.33218,5,4.379,1,1.0
1774391054310,0.119049,1.33039,-0.090742,-1.4024200000000001e-08,1.0955500000000002e-09,6.225860000000001e-10,0,0,3.24201,5,4.392,1,1.0
1774391054323,0.113682,1.34879,-0.135845,-1.3260000000000003e-08,1.1583600000000001e-09,4.86912e-10,0,0,3.27364,5,4.405,1,1.0
1774391054337,0.111978,1.36463,-0.177608,-1.23635e-08,1.2499700000000002e-09,2.8686900000000006e-10,0,0,3.25649,5,4.419,1,1.0
1774391054350,0.108629,1.37803,-0.212976,-1.1365800000000003e-08,1.3631700000000002e-09,1.4352100000000005e-10,0,0,3.27542,5,4.432,1,1.0
1774391054363,0.102448,1.3903,-0.241362,-1.02718e-08,1.5230600000000005e-09,1.7591000000000003e-11,0,0,3.28812,5,4.445,1,1.0
1774391054377,0.0805425,1.39884,-0.132558,-9.98494e-09,1.5240800000000002e-09,1.642e-10,0,0,3.25536,5,4.459,1,1.0
1774391054390,0.0660977,1.38425,-0.100591,-8.958100000000002e-09,1.2945900000000002e-09,4.55491e-10,0,0,3.26818,5,4.472,1,1.0
1774391054404,0.0646485,1.34069,-0.0419217,-7.86493e-09,1.40905e-09,5.092410000000001e-10,0,0,3.26875,5,4.486,1,1.0
1774391054417,0.0584901,1.29445,0.00702878,-6.909130000000001e-09,1.74304e-09,2.0231300000000002e-10,0,0,3.27596,5,4.499,1,1.0
1774391054430,0.0698441,1.24236,0.0344493,-6.11939e-09,1.8475e-09,-1.1857100000000002e-10,0,0,3.26375,5,4.512,1,1.0
1774391054444,0.071338,1.20244,0.0550652,-6.197040000000001e-09,1.83734e-09,-1.29776e-10,0,0,3.27529,5,4.526,1,1.0
1774391054457,0.0453697,1.19517,0.0724414,-6.651600000000002e-09,1.8131600000000002e-09,-2.43245e-10,0,0,3.2657,5,4.539,1,1.0
1774391054470,0.0343956,1.28274,0.0602941,-6.707620000000001e-09,1.86166e-09,2.74375e-10,0,0,3.2626,5,4.552,1,1.0
1774391054484,0.0658723,1.35665,0.0759468,-5.4214e-09,1.5121800000000003e-09,6.914950000000001e-10,0,0,3.26207,5,4.566,1,1.0
1774391054497,0.0685435,1.37088,0.102702,-3.7142600000000008e-09,1.21293e-09,4.07999e-10,0,0,3.31047,5,4.579,1,1.0
1774391054511,0.0526162,1.36234,0.120814,-2.10288e-09,9.936969999999999e-10,7.47231e-10,0,0,3.29877,5,4.593,1,1.0
1774391054524,0.0580132,1.31692,0.141956,-5.818850000000001e-10,8.788680000000001e-10,9.299860000000002e-10,0,0,3.25147,5,4.606,1,1.0
1774391054537,0.0667723,1.2609,0.155468,4.2278000000000006e-10,7.069380000000001e-10,1.03317e-09,0,0,3.26279,5,4.619,1,1.0
1774391054551,0.0630514,1.20499,0.166072,8.987590000000001e-10,5.979610000000001e-10,1.1604900000000002e-09,0,0,3.28916,5,4.633,1,1.0
1774391054564,0.0593438,1.15872,0.166667,9.430170000000002e-10,5.975180000000001e-10,1.2881200000000003e-09,0,0,3.24353,5,4.646,1,1.0
1774391054577,0.0581365,1.13087,0.169244,7.121240000000002e-10,6.645400000000001e-10,1.3831200000000003e-09,0,0,3.25597,5,4.659,1,1.0
1774391054591,0.0595125,1.12923,0.171057,4.61769e-10,7.332410000000001e-10,1.43712e-09,0,0,3.27412,5,4.673,1,1.0
1774391054604,0.0637537,1.1491,0.171306,4.744040000000001e-10,8.027120000000001e-10,1.4345200000000001e-09,0,0,3.29566,5,4.686,1,1.0
1774391054617,0.0689626,1.16759,0.175399,8.558980000000002e-10,8.503880000000003e-10,1.2936e-09,0,0,3.24642,5,4.699,1,1.0
1774391054631,0.0753531,1.16717,0.182217,1.3911199999999998e-09,8.511590000000002e-10,1.11694e-09,0,0,3.27968,5,4.713,1,1.0
1774391054644,0.0772146,1.15011,0.187573,1.8827100000000004e-09,8.36e-10,9.690820000000001e-10,0,0,3.26171,5,4.726,1,1.0
1774391054657,0.0777776,1.13023,0.19247,2.21895e-09,8.20664e-10,8.542639999999999e-10,0,0,3.25497,5,4.739,2,2.0
1774391054671,0.072433,1.11268,0.190416,2.4432400000000008e-09,8.504200000000002e-10,7.80227e-10,0,0,3.25342,5,4.753,2,2.0
1774391054684,0.073141,1.09801,0.188976,2.55681e-09,9.154590000000002e-10,7.359480000000001e-10,0,0,3.2509,5,4.766,2,2.0
1774391054697,0.075078,1.09037,0.187758,2.6489400000000006e-09,9.787769999999999e-10,7.30164e-10,0,0,3.26764,5,4.779,2,2.0
1774391054711,0.0795033,1.08739,0.184939,2.738040000000001e-09,1.00986e-09,6.716080000000002e-10,0,0,3.29527,5,4.793,2,2.0
1774391054724,0.0855289,1.0872,0.186652,2.87746e-09,9.829689999999999e-10,5.49841e-10,0,0,3.2707,5,4.806,2,2.0
1774391054738,0.0922091,1.086,0.18559,3.0899100000000006e-09,9.023120000000002e-10,3.88916e-10,0,0,3.25133,5,4.82,2,2.0
1774391054751,0.0945614,1.08209,0.178936,3.3328700000000003e-09,7.9565e-10,1.82937e-10,0,0,3.25472,5,4.833,2,2.0
1774391054764,0.0900629,1.07594,0.175691,3.5349700000000007e-09,7.029340000000002e-10,-1.21292e-11,0,0,3.2741,5,4.846,2,2.0
1774391054778,0.0851206,1.06751,0.170869,3.66892e-09,6.352020000000001e-10,-1.48169e-10,0,0,3.24401,5,4.86,2,2.0
1774391054791,0.0803411,1.05775,0.16472,3.7032e-09,5.902800000000002e-10,-2.37613e-10,0,0,3.24272,5,4.873,2,2.0
1774391054804,0.076945,1.05076,0.160667,3.6531399999999992e-09,5.783220000000001e-10,-2.7485300000000006e-10,0,0,3.28312,5,4.886,2,2.0
1774391054818,0.073612,1.04755,0.156277,3.5664500000000002e-09,5.764980000000001e-10,-2.72624e-10,0,0,3.26886,5,4.9,2,2.0
1774391054831,0.0715673,1.04753,0.153255,3.4911299999999993e-09,5.9169e-10,-2.6919300000000005e-10,0,0,3.25297,5,4.913,2,2.0
1774391054844,0.0710319,1.05081,0.150748,3.4590000000000006e-09,6.019189999999999e-10,-2.6805200000000004e-10,0,0,3.26286,5,4.926,2,2.0
1774391054858,0.0741822,1.0534,0.149729,3.4758600000000004e-09,5.9997e-10,-2.9741900000000004e-10,0,0,3.25864,5,4.94,2,2.0
1774391054871,0.0749418,1.05767,0.147836,3.54285e-09,5.711970000000001e-10,-3.42866e-10,0,0,3.2409,5,4.953,2,2.0
1774391054884,0.0721235,1.06115,0.146752,3.606130000000001e-09,5.520460000000001e-10,-3.8567799999999994e-10,0,0,3.25168,5,4.966,2,2.0
1774391054898,0.0677843,1.06582,0.142352,3.6977600000000003e-09,5.539650000000001e-10,-4.1572699999999994e-10,0,0,3.27245,5,4.98,2,2.0
1774391054911,0.0653858,1.06751,0.139447,3.7768000000000004e-09,5.61557e-10,-4.2918900000000004e-10,0,0,3.31733,5,4.993,2,2.0
1774391054926,0.0623875,1.07093,0.138057,3.8249900000000005e-09,5.626e-10,-3.8220600000000003e-10,0,0,3.29801,5,5.008,2,2.0
1774391054939,0.0636523,1.07702,0.135191,3.8867e-09,5.005130000000001e-10,-2.20579e-10,0,0,3.38933,5,5.021,2,2.0
1774391054953,0.0621071,1.08007,0.131596,3.948420000000001e-09,4.49145e-10,-1.0479900000000002e-10,0,0,3.26625,5,5.035,2,2.0
1774391054966,0.0579069,1.08455,0.127058,4.0431600000000016e-09,3.93635e-10,7.059790000000002e-11,0,0,3.42005,5,5.048,2,2.0
1774391054980,0.0570721,1.08654,0.124587,4.133310000000001e-09,3.46464e-10,2.0905300000000007e-10,0,0,3.26909,5,5.062,2,2.0
1774391054993,0.0580676,1.08851,0.12326,4.231640000000001e-09,2.880650000000001e-10,3.3023500000000005e-10,0,0,3.30986,5,5.075,2,2.0
1774391055007,0.0591796,1.09224,0.122866,4.34719e-09,2.39664e-10,4.4676200000000003e-10,0,0,3.27362,5,5.089,2,2.0
1774391055020,0.0632966,1.09382,0.120568,4.484600000000001e-09,1.8528600000000003e-10,5.4609e-10,0,0,3.28497,5,5.102,2,2.0
1774391055034,0.0622475,1.09373,0.114814,4.6489e-09,1.2248300000000003e-10,6.807380000000001e-10,0,0,3.29097,5,5.116,2,2.0
1774391055047,0.0627497,1.091,0.107903,4.814350000000001e-09,4.967190000000001e-11,8.081770000000002e-10,0,0,3.52796,5,5.129,3,3.0
1774391055061,0.0610518,1.08839,0.0996185,4.965250000000001e-09,-2.98025e-11,9.521020000000003e-10,0,0,3.58529,5,5.143,3,3.0
1774391055074,0.0594816,1.0867,0.0917172,5.10876e-09,-1.0417700000000002e-10,1.0964800000000003e-09,0,0,3.27566,5,5.156,3,3.0
1774391055088,0.0611404,1.08665,0.0837237,5.2714100000000005e-09,-1.81487e-10,1.23695e-09,0,0,3.24607,5,5.17,3,3.0
1774391055101,0.0639758,1.08552,0.076037,5.45431e-09,-2.7201599999999997e-10,1.3546400000000004e-09,0,0,3.27397,5,5.183,3,3.0
1774391055115,0.0665058,1.08287,0.0680139,5.63431e-09,-3.66203e-10,1.46526e-09,0,0,3.27403,5,5.197,3,3.0
1774391055129,0.0703558,1.07925,0.0601388,5.79034e-09,-4.723620000000002e-10,1.5773800000000002e-09,0,0,4.63583,5,5.211,3,3.0
1774391055143,0.072895,1.0766,0.0522344,5.908290000000001e-09,-5.904650000000001e-10,1.6913900000000003e-09,0,0,3.25831,5,5.225,3,3.0
1774391055156,0.0760171,1.07498,0.0449319,5.98991e-09,-7.091789999999999e-10,1.8056000000000005e-09,0,0,3.25288,5,5.238,3,3.0
1774391055169,0.0808285,1.0754,0.0365394,6.070210000000001e-09,-8.4761e-10,1.9144700000000003e-09,0,0,3.24557,5,5.251,3,3.0
1774391055183,0.0822477,1.07743,0.0293895,6.180210000000001e-09,-9.808030000000003e-10,2.01634e-09,0,0,3.2592,5,5.265,3,3.0
1774391055196,0.085057,1.08266,0.0222319,6.36381e-09,-1.1259200000000002e-09,2.1406700000000002e-09,0,0,3.24809,5,5.278,3,3.0
1774391055209,0.0879355,1.08903,0.0191243,6.583960000000002e-09,-1.2599900000000001e-09,2.25382e-09,0,0,3.27462,5,5.291,3,3.0
1774391055223,0.0972545,1.09819,0.0184161,6.83471e-09,-1.41236e-09,2.36346e-09,0,0,3.30857,5,5.305,3,3.0
1774391055236,0.108269,1.1152,0.0218387,7.125080000000002e-09,-1.6023800000000004e-09,2.48283e-09,0,0,3.25025,5,5.318,3,3.0
1774391055250,0.119753,1.13856,0.0274499,7.4902e-09,-1.8267800000000002e-09,2.5821500000000006e-09,0,0,3.28231,5,5.332,3,3.0
1774391055263,0.126943,1.17472,0.0367876,7.95572e-09,-2.07808e-09,2.6967100000000003e-09,0,0,3.29158,5,5.345,3,3.0
1774391055276,0.135314,1.22704,0.0433573,8.57513e-09,-2.3589600000000003e-09,2.8570800000000002e-09,0,0,3.29818,5,5.358,3,3.0
1774391055290,0.144772,1.2884,0.0502482,9.459240000000001e-09,-2.65029e-09,3.02408e-09,0,0,3.2867,5,5.372,3,3.0
1774391055303,0.158545,1.33764,0.0562506,1.03317e-08,-2.9652200000000006e-09,3.1509700000000003e-09,0,0,3.27534,4,5.385,3,3.0
1774391055317,0.174812,1.35795,0.0678094,1.11552e-08,-3.3161900000000007e-09,3.2609399999999997e-09,0,0,3.32036,4,5.399,3,3.0
1774391055330,0.191265,1.35975,0.0825462,1.1932500000000004e-08,-3.716490000000001e-09,3.4527300000000008e-09,0,0,3.27757,4,5.412,3,3.0
1774391055344,0.217921,1.36044,0.0949409,1.2666200000000002e-08,-4.26673e-09,3.819980000000001e-09,0,0,3.36427,4,5.426,3,3.0
1774391055357,0.235851,1.35599,0.11399,1.3358800000000001e-08,-4.97737e-09,4.32558e-09,0,0,3.2954,4,5.439,3,3.0
1774391055370,0.24483,1.34436,0.130551,1.4012500000000002e-08,-5.834110000000001e-09,4.842510000000001e-09,0,0,3.31399,4,5.452,3,3.0
1774391055384,0.237486,1.24676,0.131632,1.4629500000000002e-08,-6.596130000000001e-09,4.911970000000001e-09,0,0,3.28953,4,5.466,4,4.0
1774391055397,0.210412,1.14627,0.145371,1.5212000000000004e-08,-7.178120000000002e-09,4.824210000000001e-09,0,0,3.27716,4,5.479,4,4.0
1774391055411,0.21429,1.03585,0.126554,1.5382800000000005e-08,-8.025620000000001e-09,4.85158e-09,0,0,3.2979,4,5.493,4,4.0
1774391055424,0.207118,0.929093,0.124874,1.4303000000000004e-08,-8.787510000000002e-09,4.7137600000000005e-09,0,0,3.26562,4,5.506,4,4.0
1774391055438,0.18544,0.841612,0.124591,1.2536400000000002e-08,-9.49694e-09,4.54917e-09,0,0,3.3014,4,5.52,4,4.0
1774391055451,0.151706,0.776939,0.128399,1.04301e-08,-9.979940000000001e-09,4.05537e-09,0,0,3.28021,4,5.533,4,4.0
1774391055464,0.12991,0.719846,0.116271,8.44195e-09,-9.802770000000001e-09,3.581640000000001e-09,0,0,3.30727,4,5.546,4,4.0
1774391055478,0.0907353,0.701797,0.155303,6.565340000000002e-09,-8.948120000000002e-09,3.0022600000000003e-09,0,0,3.28092,4,5.56,4,4.0
1774391055491,0.0615484,0.707952,0.215808,4.793990000000001e-09,-8.008589999999999e-09,2.21436e-09,0,0,3.28125,1,5.573,4,4.0
1774391055504,0.0387949,0.704783,0.245106,3.1220100000000005e-09,-7.101000000000001e-09,1.6453100000000002e-09,0,0,3.2756,1,5.586,4,4.0
1774391055518,0.015296,0.725829,0.264517,1.5438000000000002e-09,-5.900990000000002e-09,1.62979e-09,0,0,3.29151,2,5.6,4,4.0
1774391055531,0.04969,0.785855,0.266658,5.4128e-11,-4.63899e-09,2.28419e-09,0,0,3.3016,2,5.613,4,4.0
1774391055545,0.039253,0.834628,0.277129,-1.13049e-09,-3.6536800000000006e-09,2.70688e-09,0,0,3.2946,2,5.627,5,5.0
1774391055558,0.0719694,0.85084,0.29388,-1.84783e-09,-2.814000000000001e-09,3.42868e-09,0,0,3.28744,2,5.64,5,5.0
1774391055571,0.0743099,0.850743,0.28311,-3.0998599999999997e-09,-2.32756e-09,4.157600000000001e-09,0,0,3.28649,2,5.653,5,5.0
1774391055585,0.0832104,0.843807,0.275683,-4.329070000000001e-09,-1.82551e-09,4.64562e-09,0,0,3.28779,2,5.667,5,5.0
1774391055598,0.0836073,0.849292,0.275873,-5.48932e-09,-1.2989500000000002e-09,4.68241e-09,0,0,3.30222,2,5.68,5,5.0
1774391055612,0.0833675,0.874749,0.278543,-6.58449e-09,-7.565410000000001e-10,4.7269500000000005e-09,0,0,3.44168,2,5.694,5,5.0
1774391055625,0.0882418,0.912183,0.280273,-7.618230000000001e-09,-2.3980200000000006e-10,4.82195e-09,0,0,3.30299,5,5.707,5,5.0
1774391055639,0.0998643,0.947168,0.279686,-8.593990000000001e-09,2.0007899999999999e-10,4.8909400000000005e-09,0,0,3.28236,5,5.721,5,5.0
1774391055652,0.116744,0.987669,0.276338,-9.51501e-09,5.7538e-10,4.959740000000002e-09,0,0,3.34873,5,5.734,5,5.0
1774391055666,0.139089,1.03679,0.265972,-1.0384400000000002e-08,8.74137e-10,4.9682500000000005e-09,0,0,3.30412,5,5.748,5,5.0
1774391055679,0.160862,1.08851,0.251116,-1.1205000000000002e-08,1.09533e-09,4.85875e-09,0,0,3.35357,5,5.761,5,5.0
1774391055693,0.18069,1.13619,0.234379,-1.1979500000000001e-08,1.2570200000000003e-09,4.734960000000002e-09,0,0,3.28862,5,5.775,5,5.0
1774391055706,0.197879,1.17813,0.212566,-1.27107e-08,1.3815900000000002e-09,4.64086e-09,0,0,3.28016,5,5.788,5,5.0
1774391055719,0.216707,1.21627,0.186155,-1.3400800000000003e-08,1.4970400000000002e-09,4.6133400000000005e-09,0,0,3.30483,5,5.801,5,5.0
1774391055733,0.238898,1.25785,0.150916,-1.4015000000000003e-08,1.5592900000000003e-09,4.669710000000001e-09,0,0,3.29125,5,5.815,5,5.0
1774391055746,0.253253,1.29528,0.105014,-1.4372700000000003e-08,1.50557e-09,4.9162100000000016e-09,0,0,3.33175,5,5.828,1,1.0
1774391055760,0.252128,1.31813,0.0512013,-1.45535e-08,1.31934e-09,5.386180000000001e-09,0,0,3.30807,5,5.842,1,1.0
1774391055773,0.234194,1.3367,-0.00377104,-1.4611400000000004e-08,1.2226800000000002e-09,5.77703e-09,0,0,3.28677,5,5.855,1,1.0
1774391055787,0.222981,1.36769,-0.0632899,-1.4393200000000003e-08,1.30212e-09,5.751680000000001e-09,0,0,3.2862,5,5.869,1,1.0
1774391055800,0.206097,1.39726,-0.124936,-1.3841800000000002e-08,1.5033400000000001e-09,5.548990000000001e-09,0,0,3.2791,5,5.882,1,1.0
1774391055814,0.191169,1.42452,-0.181975,-1.2988900000000001e-08,1.7961999999999999e-09,5.36217e-09,0,0,3.73436,5,5.896,1,1.0
1774391055827,0.183065,1.45068,-0.232184,-1.1905700000000003e-08,2.1000800000000005e-09,5.168569999999999e-09,0,0,3.28379,5,5.909,1,1.0
1774391055841,0.173137,1.47141,-0.274464,-1.06209e-08,2.4240900000000005e-09,4.857320000000001e-09,0,0,3.30214,5,5.923,1,1.0
1774391055854,0.15728,1.48248,-0.301272,-9.259690000000002e-09,2.8251000000000005e-09,4.50308e-09,0,0,3.2691,5,5.936,1,1.0
1774391055867,0.155687,1.48753,-0.191609,-8.70993e-09,3.2938400000000007e-09,4.04997e-09,0,0,3.31846,5,5.949,1,1.0
1774391055881,0.161776,1.45829,-0.0899991,-7.549850000000002e-09,3.4399900000000002e-09,3.4954099999999996e-09,0,0,3.28579,5,5.963,1,1.0
1774391055894,0.2192,1.4038,0.0521705,-6.658610000000002e-09,3.754260000000001e-09,3.04183e-09,0,0,3.34421,5,5.976,1,1.0
1774391055908,0.234502,1.34486,0.061089,-5.759850000000002e-09,3.9772100000000006e-09,2.5376500000000006e-09,0,0,3.31564,5,5.99,1,1.0
1774391055921,0.238415,1.28021,0.058001,-5.1479600000000005e-09,4.16368e-09,2.2160300000000003e-09,0,0,3.29646,5,6.003,1,1.0
1774391055935,0.233444,1.2289,0.0461649,-5.349040000000001e-09,4.0322500000000004e-09,1.71847e-09,0,0,3.29299,5,6.017,1,1.0
1774391055948,0.210754,1.22677,0.064998,-5.495640000000001e-09,3.9465999999999996e-09,1.3233400000000003e-09,0,0,3.27457,5,6.03,1,1.0
1774391055961,0.170884,1.30796,0.0644189,-5.711390000000002e-09,4.1619800000000006e-09,1.1029200000000002e-09,0,0,3.3451,5,6.043,1,1.0
1774391055975,0.171172,1.38389,0.078941,-4.87382e-09,4.3004000000000006e-09,1.2537800000000002e-09,0,0,3.28749,5,6.057,1,1.0
1774391055988,0.193187,1.39073,0.0808912,-3.1974000000000006e-09,4.04839e-09,1.0281499999999998e-09,0,0,3.33696,5,6.07,1,1.0
1774391056002,0.201074,1.36824,0.120777,-1.7002600000000003e-09,3.781530000000001e-09,8.497730000000001e-10,0,0,3.29158,5,6.084,1,1.0
1774391056016,0.200598,1.32418,0.133752,-4.3457100000000014e-10,3.44182e-09,1.0660000000000002e-09,0,0,3.87442,5,6.098,1,1.0
1774391056029,0.19253,1.26767,0.144719,1.93377e-10,3.14124e-09,1.07998e-09,0,0,3.29934,5,6.111,1,1.0
1774391056042,0.18569,1.21878,0.150487,4.71556e-10,2.9575000000000006e-09,1.09605e-09,0,0,3.27112,5,6.124,1,1.0
1774391056056,0.172551,1.18734,0.159248,4.3872500000000005e-10,2.8460300000000004e-09,1.19595e-09,0,0,3.32281,5,6.138,1,1.0
1774391056069,0.166308,1.17472,0.165459,3.0758300000000006e-10,2.80016e-09,1.33324e-09,0,0,3.28525,5,6.151,1,1.0
1774391056083,0.169402,1.18251,0.16968,3.21331e-10,2.7313000000000003e-09,1.44476e-09,0,0,3.3401,5,6.165,1,1.0
1774391056096,0.171517,1.19586,0.17805,6.308690000000001e-10,2.60721e-09,1.47924e-09,0,0,3.3061,5,6.178,1,1.0
1774391056110,0.1748,1.19723,0.1863,1.1204000000000002e-09,2.4253400000000006e-09,1.4772000000000002e-09,0,0,3.62872,5,6.192,1,1.0
1774391056124,0.176252,1.18246,0.192481,1.5921e-09,2.2229300000000003e-09,1.4632300000000001e-09,0,0,3.30883,5,6.206,1,1.0
1774391056138,0.170851,1.16348,0.192829,1.96558e-09,2.0737e-09,1.4593000000000003e-09,0,0,3.27336,5,6.22,1,1.0
1774391056151,0.169604,1.14604,0.196654,2.1991100000000003e-09,1.984530000000001e-09,1.4093e-09,0,0,3.30477,4,6.233,1,1.0
1774391056165,0.164706,1.13332,0.202382,2.3641e-09,1.9672899999999997e-09,1.39247e-09,0,0,3.27953,4,6.247,2,2.0
1774391056180,0.163674,1.12252,0.199574,2.4800100000000004e-09,1.9710500000000006e-09,1.3054100000000001e-09,0,0,4.85241,5,6.262,2,2.0
1774391056193,0.164428,1.1165,0.203691,2.5941300000000004e-09,1.9766600000000005e-09,1.2537200000000003e-09,0,0,3.27827,5,6.275,2,2.0
1774391056206,0.166313,1.11038,0.209901,2.7148200000000004e-09,1.9775400000000006e-09,1.1840000000000003e-09,0,0,3.3377,5,6.288,2,2.0
1774391056220,0.164132,1.10579,0.215467,2.8675400000000002e-09,2.0043200000000004e-09,1.0658200000000002e-09,0,0,3.35471,5,6.302,2,2.0
1774391056234,0.165421,1.10528,0.21529,3.1090600000000004e-09,2.0647900000000003e-09,8.86613e-10,0,0,3.39659,5,6.316,2,2.0
1774391056248,0.177693,1.1063,0.213156,3.4677100000000006e-09,2.0180800000000005e-09,6.453100000000001e-10,0,0,3.33196,5,6.33,2,2.0
1774391056261,0.185767,1.10296,0.21355,3.892270000000001e-09,1.8714800000000002e-09,3.0407300000000004e-10,0,0,3.29114,5,6.343,2,2.0
1774391056278,0.179671,1.09268,0.206507,4.264370000000001e-09,1.7021099999999998e-09,-7.621360000000001e-11,0,0,3.30207,5,6.36,2,2.0
1774391056291,0.169102,1.08435,0.190312,4.556170000000001e-09,1.56771e-09,-3.5693900000000005e-10,0,0,3.26975,5,6.373,2,2.0
1774391056305,0.156539,1.0762,0.183366,4.7615e-09,1.5034100000000003e-09,-4.982160000000001e-10,0,0,3.30092,5,6.387,2,2.0
1774391056318,0.148241,1.06583,0.176895,4.792130000000001e-09,1.4688800000000004e-09,-5.49141e-10,0,0,3.27264,5,6.4,2,2.0
1774391056333,0.140509,1.06156,0.169618,4.706130000000001e-09,1.41894e-09,-5.316980000000001e-10,0,0,5.02017,5,6.415,2,2.0
1774391056347,0.13398,1.06477,0.164122,4.64631e-09,1.3860700000000002e-09,-5.040580000000001e-10,0,0,3.26953,5,6.429,2,2.0
1774391056361,0.128729,1.07052,0.160116,4.660669999999999e-09,1.3427400000000003e-09,-4.5827099999999997e-10,0,0,4.16433,5,6.443,2,2.0
1774391056374,0.127573,1.07239,0.156765,4.723630000000001e-09,1.3055800000000002e-09,-4.1646600000000003e-10,0,0,3.29783,5,6.456,2,2.0
1774391056389,0.126382,1.07188,0.151852,4.7489e-09,1.2515700000000005e-09,-3.676280000000001e-10,0,0,4.35514,5,6.471,2,2.0
1774391056402,0.123941,1.07036,0.146503,4.762340000000001e-09,1.19567e-09,-2.7378700000000007e-10,0,0,3.28933,5,6.484,2,2.0
1774391056416,0.121532,1.06905,0.140395,4.75726e-09,1.1377599999999998e-09,-2.01567e-10,0,0,3.27464,5,6.498,2,2.0
1774391056429,0.118149,1.06923,0.13448,4.752550000000001e-09,1.0822500000000003e-09,-1.1164499999999999e-10,0,0,3.30036,5,6.511,2,2.0
1774391056442,0.117637,1.07049,0.128631,4.75281e-09,1.0292500000000001e-09,-2.4027300000000002e-11,0,0,3.26371,5,6.524,2,2.0
1774391056456,0.118205,1.07185,0.122055,4.766980000000001e-09,9.498950000000003e-10,6.21869e-11,0,0,3.32333,5,6.538,2,2.0
1774391056469,0.116388,1.07153,0.116066,4.7599700000000005e-09,8.763600000000001e-10,1.30463e-10,0,0,3.30368,5,6.551,2,2.0
1774391056483,0.115088,1.07252,0.109762,4.760280000000001e-09,8.006550000000003e-10,2.2308300000000005e-10,0,0,3.94268,5,6.565,2,2.0
1774391056497,0.113846,1.07462,0.103948,4.752190000000001e-09,7.23416e-10,2.96893e-10,0,0,3.33688,5,6.579,2,2.0
1774391056512,0.114889,1.07807,0.0982702,4.76656e-09,6.474270000000001e-10,3.5572800000000006e-10,0,0,3.31316,5,6.594,3,3.0
1774391056526,0.117979,1.07845,0.0919119,4.7833e-09,5.774560000000002e-10,3.7277e-10,0,0,3.49238,5,6.608,3,3.0
1774391056540,0.115296,1.07874,0.0860026,4.82414e-09,5.008759999999999e-10,4.23025e-10,0,0,3.25855,5,6.622,3,3.0
1774391056553,0.112421,1.08083,0.0796577,4.8928400000000015e-09,4.2101300000000005e-10,5.1966e-10,0,0,3.3014,5,6.635,3,3.0
1774391056566,0.113206,1.08262,0.0738038,4.98106e-09,3.30472e-10,6.180250000000001e-10,0,0,3.25166,5,6.648,3,3.0
1774391056585,0.114171,1.08453,0.0677361,5.087760000000001e-09,2.19447e-10,7.01366e-10,0,0,7.95036,5,6.667,3,3.0
1774391056598,0.113075,1.08534,0.0624142,5.196690000000001e-09,9.87634e-11,7.80204e-10,0,0,3.25755,5,6.68,3,3.0
1774391056611,0.112507,1.08703,0.0571222,5.30259e-09,-1.6906e-11,8.756010000000002e-10,0,0,3.33175,5,6.693,3,3.0
1774391056625,0.11395,1.08956,0.051026,5.445420000000001e-09,-1.4445600000000003e-10,9.6963e-10,0,0,3.54073,5,6.707,3,3.0
1774391056640,0.113643,1.09145,0.0463282,5.60229e-09,-2.8510499999999997e-10,1.0666900000000002e-09,0,0,4.98533,5,6.722,3,3.0
1774391056654,0.111396,1.0939,0.0424977,5.758100000000001e-09,-4.1825100000000004e-10,1.2006500000000002e-09,0,0,3.27883,5,6.736,3,3.0
1774391056668,0.116369,1.10002,0.0405538,5.9460299999999996e-09,-5.896569999999999e-10,1.34907e-09,0,0,4.13596,5,6.75,3,3.0
1774391056681,0.117056,1.11139,0.0421008,6.159640000000002e-09,-7.893440000000001e-10,1.5027300000000005e-09,0,0,3.29316,5,6.763,3,3.0
1774391056695,0.122678,1.12702,0.0480644,6.4191999999999995e-09,-9.936730000000003e-10,1.68704e-09,0,0,3.26162,5,6.777,3,3.0
1774391056708,0.13652,1.14905,0.0578244,6.7520200000000004e-09,-1.2733300000000002e-09,1.87442e-09,0,0,3.29727,5,6.79,3,3.0
1774391056721,0.140853,1.17961,0.0728164,7.184140000000001e-09,-1.60154e-09,2.0199800000000003e-09,0,0,3.27116,5,6.803,3,3.0
1774391056736,0.142808,1.22856,0.0840351,7.797640000000002e-09,-1.9302100000000005e-09,2.2301700000000004e-09,0,0,3.31877,5,6.818,3,3.0
1774391056749,0.147976,1.28917,0.0916348,8.68853e-09,-2.30648e-09,2.4537000000000003e-09,0,0,3.25912,4,6.831,3,3.0
1774391056763,0.14711,1.34291,0.0951012,9.6042e-09,-2.64699e-09,2.7140200000000005e-09,0,0,3.28647,4,6.845,3,3.0
1774391056776,0.156905,1.36966,0.102847,1.04685e-08,-2.9963299999999997e-09,2.86987e-09,0,0,3.30238,4,6.858,3,3.0
1774391056790,0.166294,1.3708,0.117194,1.1284399999999999e-08,-3.32769e-09,2.9993300000000006e-09,0,0,4.10424,4,6.872,3,3.0
1774391056804,0.181421,1.37023,0.12424,1.2054400000000002e-08,-3.6885500000000005e-09,3.1957300000000005e-09,0,0,3.29427,4,6.886,3,3.0
1774391056817,0.201247,1.36953,0.135709,1.2781300000000002e-08,-4.2055900000000006e-09,3.5085100000000003e-09,0,0,3.27316,4,6.899,3,3.0
1774391056832,0.212209,1.35721,0.139052,1.3467400000000003e-08,-4.8500799999999994e-09,3.8220599999999995e-09,0,0,5.01215,4,6.914,3,3.0
1774391056846,0.208182,1.26561,0.147064,1.4115000000000003e-08,-5.419120000000001e-09,3.82896e-09,0,0,3.26192,4,6.928,3,3.0
1774391056859,0.190429,1.16889,0.166546,1.4726300000000004e-08,-5.9290000000000005e-09,3.9623800000000005e-09,0,0,3.28592,4,6.941,3,3.0
1774391056873,0.202611,1.04811,0.138869,1.4980099999999998e-08,-6.546660000000001e-09,4.033390000000001e-09,0,0,3.30771,4,6.955,3,3.0
1774391056886,0.202879,0.951106,0.135508,1.3988999999999999e-08,-7.071950000000001e-09,3.965619999999999e-09,0,0,3.29968,4,6.968,3,3.0
1774391056901,0.192993,0.866377,0.1327,1.2432900000000002e-08,-7.564050000000002e-09,3.9971800000000005e-09,0,0,3.31864,4,6.983,4,4.0
1774391056915,0.150589,0.794237,0.146328,1.03324e-08,-8.00569e-09,3.800710000000001e-09,0,0,3.99055,4,6.997,4,4.0
1774391056929,0.114119,0.742345,0.154332,8.34978e-09,-8.238350000000001e-09,3.2707100000000006e-09,0,0,3.9599,4,7.011,4,4.0
1774391056942,0.0951524,0.706421,0.165627,6.478340000000001e-09,-8.109750000000001e-09,2.57385e-09,0,0,3.30583,4,7.024,4,4.0
1774391056956,0.0597826,0.676916,0.177997,4.71187e-09,-7.30015e-09,1.9667300000000007e-09,0,0,3.29066,4,7.038,4,4.0
1774391056969,0.0345225,0.684564,0.205297,3.0444900000000005e-09,-6.36734e-09,1.2700100000000002e-09,0,0,3.28718,2,7.051,4,4.0
1774391056983,0.0721329,0.748765,0.213327,1.47064e-09,-5.337070000000001e-09,1.44644e-09,0,0,3.28146,2,7.065,4,4.0
1774391056996,0.0716369,0.786668,0.210756,-1.49354e-11,-4.823780000000001e-09,1.6954800000000004e-09,0,0,3.26105,2,7.078,5,5.0
1774391057009,0.104229,0.834648,0.197226,-9.861660000000003e-10,-4.47869e-09,1.98634e-09,0,0,3.30422,2,7.091,5,5.0
1774391057023,0.09824,0.868604,0.194644,-1.2733100000000002e-09,-4.3221e-09,2.1708e-09,0,0,3.26477,2,7.105,5,5.0
1774391057037,0.0888722,0.854779,0.182042,-1.8010500000000003e-09,-4.100180000000001e-09,2.83129e-09,0,0,4.03333,2,7.119,5,5.0
1774391057050,0.0716822,0.843567,0.177871,-2.7046400000000003e-09,-3.776070000000001e-09,3.7097600000000006e-09,0,0,3.26995,2,7.132,5,5.0
1774391057064,0.0539947,0.832802,0.163537,-3.8112400000000006e-09,-3.1917e-09,4.49014e-09,0,0,3.29164,2,7.146,5,5.0
1774391057077,0.0547617,0.831657,0.15693,-5.000540000000001e-09,-2.4808200000000005e-09,4.966530000000001e-09,0,0,3.28579,2,7.159,5,5.0
1774391057092,0.0675601,0.850935,0.153601,-6.123130000000001e-09,-1.8068999999999998e-09,4.990980000000001e-09,0,0,4.90885,2,7.174,5,5.0
1774391057106,0.0749514,0.885086,0.150834,-7.18275e-09,-1.17712e-09,4.9188200000000014e-09,0,0,3.28527,5,7.188,5,5.0
1774391057121,0.0898029,0.921416,0.148487,-8.182930000000002e-09,-6.418880000000001e-10,5.004940000000001e-09,0,0,5.09187,5,7.203,5,5.0
1774391057134,0.109461,0.954993,0.145602,-9.12701e-09,-2.2235700000000002e-10,5.0713300000000005e-09,0,0,3.30925,5,7.216,5,5.0
1774391057148,0.13174,0.988693,0.14138,-1.0018100000000001e-08,9.459920000000002e-11,5.180200000000001e-09,0,0,3.61679,5,7.23,5,5.0
1774391057161,0.154988,1.0242,0.134568,-1.0859300000000001e-08,3.2513800000000006e-10,5.3198700000000006e-09,0,0,3.33525,5,7.243,5,5.0
1774391057175,0.174688,1.06207,0.122789,-1.1653200000000001e-08,4.94403e-10,5.458860000000001e-09,0,0,3.25981,5,7.257,5,5.0
1774391057188,0.187014,1.09589,0.10561,-1.2373200000000002e-08,6.379880000000001e-10,5.5989600000000015e-09,0,0,3.27558,5,7.27,5,5.0
1774391057202,0.196485,1.12072,0.0870905,-1.3032500000000003e-08,8.24773e-10,5.741050000000001e-09,0,0,3.31594,5,7.284,5,5.0
1774391057215,0.212214,1.14757,0.0654941,-1.3688999999999998e-08,1.0206099999999998e-09,5.829860000000002e-09,0,0,3.27068,5,7.297,5,5.0
1774391057228,0.23065,1.18351,0.0390553,-1.4147200000000002e-08,1.1670000000000002e-09,5.9302200000000015e-09,0,0,3.30066,5,7.31,1,1.0
1774391057242,0.242953,1.21464,0.00569038,-1.4342700000000002e-08,1.20247e-09,6.154780000000001e-09,0,0,3.29416,5,7.324,1,1.0
1774391057255,0.246133,1.23069,-0.031618,-1.43931e-08,1.1417400000000004e-09,6.495970000000001e-09,0,0,3.32244,5,7.337,1,1.0
1774391057269,0.240953,1.2462,-0.0728467,-1.4324600000000004e-08,1.0866500000000002e-09,6.698940000000002e-09,0,0,3.27621,5,7.351,1,1.0
1774391057282,0.228537,1.26819,-0.117002,-1.4035599999999999e-08,1.12195e-09,6.571280000000002e-09,0,0,3.27731,5,7.364,1,1.0
1774391057295,0.211079,1.2902,-0.160967,-1.3502200000000003e-08,1.2774800000000002e-09,6.1992100000000006e-09,0,0,3.27483,5,7.377,1,1.0
1774391057309,0.197652,1.31027,-0.205711,-1.2769899999999999e-08,1.51664e-09,5.68192e-09,0,0,3.2737,5,7.391,1,1.0
1774391057322,0.185335,1.33099,-0.246842,-1.1851400000000003e-08,1.7814800000000001e-09,5.163499999999999e-09,0,0,3.29796,5,7.404,1,1.0
1774391057336,0.1747,1.35322,-0.283538,-1.07381e-08,2.0305700000000004e-09,4.698570000000001e-09,0,0,3.39218,5,7.418,1,1.0
1774391057349,0.211742,1.40187,-0.208219,-9.808820000000001e-09,2.42364e-09,4.3272000000000005e-09,0,0,3.28471,5,7.431,1,1.0
1774391057362,0.185805,1.39744,-0.142141,-8.97092e-09,2.81766e-09,3.5777100000000005e-09,0,0,3.31188,5,7.444,1,1.0
1774391057376,0.185196,1.36282,-0.0856371,-7.65977e-09,3.0213000000000003e-09,2.7621600000000003e-09,0,0,3.31683,5,7.458,1,1.0
1774391057389,0.250308,1.31601,0.0195919,-6.72297e-09,3.2508600000000005e-09,2.3418700000000003e-09,0,0,3.28031,5,7.471,1,1.0
1774391057402,0.261612,1.26761,0.0308747,-5.9044000000000004e-09,3.43092e-09,2.05615e-09,0,0,3.28218,5,7.484,1,1.0
1774391057416,0.243242,1.24021,0.0250829,-5.43161e-09,2.6888100000000004e-09,1.5417000000000002e-09,0,0,3.29001,5,7.498,1,1.0
1774391057429,0.216952,1.23952,0.0472509,-5.594300000000001e-09,2.5901000000000004e-09,1.7275100000000002e-09,0,0,3.26592,5,7.511,1,1.0
1774391057443,0.169198,1.26749,0.0655987,-5.23974e-09,2.6258500000000004e-09,1.5919e-09,0,0,3.32707,5,7.525,1,1.0
1774391057456,0.162215,1.31381,0.0844894,-4.63694e-09,2.9852800000000007e-09,1.77309e-09,0,0,3.28564,5,7.538,1,1.0
1774391057469,0.184237,1.321,0.0833356,-3.45483e-09,3.0883100000000005e-09,1.5546900000000003e-09,0,0,3.30609,3,7.551,1,1.0
1774391057483,0.20489,1.31756,0.0921083,-2.08438e-09,2.9383300000000005e-09,1.1832100000000003e-09,0,0,3.2814,3,7.565,1,1.0
1774391057496,0.209831,1.29664,0.104234,-7.79719e-10,2.69665e-09,9.54983e-10,0,0,3.26581,3,7.578,1,1.0
1774391057510,0.20453,1.25857,0.114058,1.7502700000000002e-10,2.50142e-09,9.098080000000001e-10,0,0,3.2894,3,7.592,1,1.0
1774391057523,0.200166,1.21416,0.122277,7.19582e-10,2.38483e-09,9.17394e-10,0,0,3.27425,3,7.605,1,1.0
1774391057536,0.197925,1.17624,0.124948,8.96566e-10,2.3454300000000002e-09,8.776670000000001e-10,0,0,3.37081,3,7.618,1,1.0
1774391057550,0.194981,1.155,0.129466,8.309039999999999e-10,2.3311900000000005e-09,8.783200000000001e-10,0,0,3.29751,3,7.632,1,1.0
1774391057563,0.192818,1.15408,0.134652,8.02109e-10,2.3179700000000004e-09,9.133200000000001e-10,0,0,3.31201,3,7.645,1,1.0
1774391057577,0.192874,1.16512,0.139109,9.862390000000002e-10,2.3014600000000004e-09,8.501860000000002e-10,0,0,3.31633,3,7.659,1,1.0
1774391057590,0.196034,1.17695,0.146265,1.4444900000000003e-09,2.2478500000000003e-09,7.0243e-10,0,0,3.26529,3,7.672,1,1.0
1774391057603,0.201586,1.17823,0.151773,2.06744e-09,2.1305900000000006e-09,5.441220000000001e-10,0,0,3.29103,3,7.685,1,1.0
1774391057617,0.206618,1.16753,0.160895,2.66736e-09,1.97408e-09,3.8672900000000006e-10,0,0,3.35609,3,7.699,1,1.0
1774391057630,0.206807,1.14741,0.165315,3.1665700000000006e-09,1.83149e-09,2.2960100000000002e-10,0,0,3.33199,3,7.712,1,1.0
1774391057644,0.208152,1.12427,0.170374,3.4824800000000006e-09,1.7082100000000002e-09,3.157460000000001e-11,0,0,3.33603,3,7.726,2,2.0
1774391057657,0.206266,1.10344,0.167365,3.6370900000000007e-09,1.6185599999999998e-09,-1.93753e-10,0,0,3.34616,3,7.739,2,2.0
1774391057671,0.196979,1.09484,0.155615,3.7004e-09,1.5208700000000004e-09,-4.626190000000001e-10,0,0,3.2964,3,7.753,2,2.0
1774391057684,0.186976,1.09558,0.152311,3.812650000000001e-09,1.5026200000000003e-09,-6.737560000000001e-10,0,0,3.29116,3,7.766,2,2.0
1774391057697,0.179931,1.09589,0.14611,3.977000000000001e-09,1.4879600000000003e-09,-8.010719999999999e-10,0,0,3.29512,5,7.779,2,2.0
1774391057711,0.177508,1.09023,0.139453,4.14229e-09,1.4644400000000002e-09,-8.826670000000002e-10,0,0,3.34881,5,7.793,2,2.0
1774391057724,0.171848,1.08307,0.134443,4.2306100000000006e-09,1.4236200000000005e-09,-9.2633e-10,0,0,3.32527,5,7.806,2,2.0
1774391057738,0.166073,1.07569,0.128959,4.22799e-09,1.3786600000000003e-09,-8.929530000000001e-10,0,0,3.27279,5,7.82,2,2.0
1774391057751,0.161842,1.06979,0.125102,4.14785e-09,1.32625e-09,-8.290340000000001e-10,0,0,3.34122,5,7.833,2,2.0
1774391057765,0.157466,1.06967,0.120304,4.06899e-09,1.2789600000000003e-09,-7.65105e-10,0,0,3.28957,5,7.847,2,2.0
1774391057778,0.156185,1.07185,0.117466,4.035620000000001e-09,1.2315e-09,-6.96754e-10,0,0,3.29614,5,7.86,2,2.0
1774391057791,0.155056,1.07641,0.116023,4.065350000000001e-09,1.1822400000000003e-09,-6.32194e-10,0,0,3.2914,5,7.873,2,2.0
1774391057805,0.154446,1.0818,0.113619,4.177640000000001e-09,1.14505e-09,-5.68002e-10,0,0,3.31542,5,7.887,2,2.0
1774391057818,0.15224,1.08608,0.11039,4.335520000000001e-09,1.1105800000000001e-09,-5.141750000000001e-10,0,0,3.29931,5,7.9,2,2.0
1774391057832,0.15059,1.087,0.106769,4.5099e-09,1.0806500000000002e-09,-4.83364e-10,0,0,3.26694,5,7.914,2,2.0
1774391057845,0.149898,1.08433,0.102708,4.643190000000001e-09,1.0479100000000004e-09,-4.649860000000001e-10,0,0,3.3266,5,7.927,2,2.0
1774391057858,0.147453,1.07997,0.0984088,4.697890000000001e-09,1.0116100000000002e-09,-4.479810000000001e-10,0,0,3.33879,5,7.94,2,2.0
1774391057872,0.14219,1.07918,0.0933257,4.706830000000001e-09,9.73065e-10,-3.73055e-10,0,0,3.31783,5,7.954,2,2.0
1774391057885,0.137786,1.08611,0.0883474,4.73531e-09,9.49784e-10,-2.887580000000001e-10,0,0,3.28946,5,7.967,2,2.0
1774391057899,0.134184,1.09408,0.0836937,4.818240000000001e-09,9.306780000000001e-10,-2.0383700000000004e-10,0,0,3.26396,5,7.981,2,2.0
1774391057912,0.131925,1.09989,0.0793609,4.95517e-09,9.041220000000002e-10,-9.640370000000003e-11,0,0,3.30497,5,7.994,2,2.0
1774391057925,0.132028,1.10139,0.0746838,5.104260000000001e-09,8.662100000000002e-10,6.28773e-12,0,0,3.27358,5,8.007,2,2.0
1774391057939,0.134582,1.10024,0.0697521,5.23016e-09,8.185220000000001e-10,7.90693e-11,0,0,3.34047,5,8.021,2,2.0
1774391057952,0.135028,1.10143,0.063947,5.352990000000001e-09,7.633600000000001e-10,1.3822000000000001e-10,0,0,3.29716,5,8.034,2,2.0
1774391057966,0.133489,1.10263,0.0559935,5.5078e-09,6.896690000000002e-10,2.00818e-10,0,0,3.32809,5,8.048,2,2.0
1774391057979,0.133492,1.09932,0.0484092,5.66464e-09,6.168570000000002e-10,2.62987e-10,0,0,3.28875,5,8.061,2,2.0
1774391057992,0.132992,1.09574,0.0397685,5.804200000000001e-09,5.34514e-10,3.3824e-10,0,0,3.28609,5,8.074,2,2.0
1774391058006,0.132878,1.09388,0.031036,5.9459500000000005e-09,4.48011e-10,4.00366e-10,0,0,3.29649,5,8.088,2,2.0
1774391058019,0.132587,1.09074,0.0215109,6.0969600000000004e-09,3.5201600000000006e-10,4.706540000000001e-10,0,0,3.30418,5,8.101,2,2.0
1774391058033,0.134113,1.08714,0.0121461,6.237830000000001e-09,2.6102e-10,5.325460000000001e-10,0,0,3.32542,5,8.115,2,2.0
1774391058046,0.133148,1.08495,0.00273175,6.37217e-09,1.5607500000000003e-10,5.90452e-10,0,0,3.33114,5,8.128,2,2.0
1774391058060,0.132963,1.08357,-0.00664458,6.5123400000000015e-09,5.29478e-11,6.523900000000002e-10,0,0,3.32347,5,8.142,2,2.0
1774391058073,0.13475,1.08297,-0.0152906,6.663700000000001e-09,-5.950950000000002e-11,7.174470000000001e-10,0,0,3.28605,5,8.155,2,2.0
1774391058086,0.13537,1.08222,-0.0233769,6.823430000000001e-09,-1.77776e-10,7.837360000000002e-10,0,0,3.33777,5,8.168,2,2.0
1774391058100,0.137169,1.08094,-0.0331276,6.9883e-09,-3.025980000000001e-10,8.588110000000001e-10,0,0,3.2871,5,8.182,2,2.0
1774391058113,0.136797,1.07886,-0.0421315,7.14229e-09,-4.4101300000000004e-10,9.44446e-10,0,0,3.29747,5,8.195,3,3.0
1774391058127,0.139249,1.07761,-0.0481472,7.209840000000001e-09,-5.888350000000001e-10,1.0588500000000001e-09,0,0,3.3337,5,8.209,3,3.0
1774391058140,0.146474,1.07881,-0.0512305,7.17666e-09,-7.61506e-10,1.1983900000000002e-09,0,0,3.27975,5,8.222,3,3.0
1774391058154,0.156671,1.08402,-0.0528338,7.07362e-09,-9.679960000000001e-10,1.32976e-09,0,0,3.34414,5,8.236,3,3.0
1774391058167,0.163902,1.09966,-0.0480996,6.92665e-09,-1.2237500000000005e-09,1.4336e-09,0,0,3.28964,5,8.249,3,3.0
1774391058180,0.168201,1.1254,-0.0386183,6.764200000000001e-09,-1.49247e-09,1.5215900000000001e-09,0,0,3.29553,5,8.262,3,3.0
1774391058194,0.172953,1.16943,-0.0308543,6.751900000000002e-09,-1.7814900000000004e-09,1.5882e-09,0,0,3.28686,5,8.276,3,3.0
1774391058207,0.168016,1.23246,-0.0296544,7.14943e-09,-2.0760500000000005e-09,1.66384e-09,0,0,3.27546,4,8.289,3,3.0
1774391058221,0.166967,1.29957,-0.0259126,8.13718e-09,-2.34369e-09,1.7672600000000002e-09,0,0,3.29242,4,8.303,3,3.0
1774391058234,0.169798,1.33465,-0.0236262,9.083790000000003e-09,-2.5952400000000006e-09,1.82776e-09,0,0,3.28512,4,8.316,3,3.0
1774391058247,0.182946,1.3344,-0.0128877,9.977290000000002e-09,-2.8693700000000004e-09,1.8537800000000002e-09,0,0,3.35205,4,8.329,3,3.0
1774391058261,0.195541,1.32005,-0.00508516,1.08207e-08,-3.13738e-09,1.9266400000000003e-09,0,0,3.2996,4,8.343,3,3.0
1774391058274,0.224615,1.30694,-0.00136075,1.14971e-08,-3.53311e-09,2.11303e-09,0,0,3.34123,4,8.356,3,3.0
1774391058288,0.237395,1.30204,0.00610852,1.2041200000000004e-08,-4.0202e-09,2.2619900000000004e-09,0,0,3.28697,4,8.37,3,3.0
1774391058301,0.258756,1.26266,-0.00665058,1.27688e-08,-4.566200000000001e-09,2.42363e-09,0,0,3.32908,4,8.383,3,3.0
1774391058315,0.243863,1.17878,0.0262902,1.3455600000000003e-08,-5.10008e-09,2.69167e-09,0,0,3.29096,4,8.397,3,3.0
1774391058328,0.247889,1.08505,0.0256209,1.41039e-08,-5.744020000000001e-09,3.00309e-09,0,0,3.2707,4,8.41,4,4.0
1774391058341,0.243893,0.994037,0.0186068,1.41093e-08,-6.44669e-09,3.3726100000000004e-09,0,0,3.34238,4,8.423,4,4.0
1774391058355,0.222176,0.908701,0.0242312,1.34939e-08,-7.00384e-09,3.7157499999999997e-09,0,0,3.29164,4,8.437,4,4.0
1774391058368,0.154708,0.830429,0.0563874,1.1664400000000003e-08,-7.162390000000002e-09,3.2887400000000004e-09,0,0,3.33194,4,8.45,4,4.0
1774391058382,0.130838,0.764451,0.0689972,9.606990000000001e-09,-7.00873e-09,2.6934600000000007e-09,0,0,3.28573,4,8.464,4,4.0
1774391058395,0.0968545,0.723087,0.0774894,7.665030000000002e-09,-6.5834400000000006e-09,1.8538200000000001e-09,0,0,3.27844,4,8.477,4,4.0
1774391058408,0.0705284,0.697636,0.0976218,5.832000000000001e-09,-5.843650000000001e-09,7.672279999999999e-10,0,0,3.29229,2,8.49,4,4.0
1774391058422,0.0529448,0.686676,0.124945,4.101789999999999e-09,-5.05436e-09,-4.0596300000000004e-10,0,0,3.28673,2,8.504,4,4.0
1774391058435,0.0375929,0.666148,0.156712,2.46863e-09,-4.34391e-09,-1.2146000000000003e-09,0,0,3.27383,2,8.517,4,4.0
1774391058448,0.0442234,0.712224,0.177138,9.270740000000001e-10,-3.5296000000000003e-09,-9.086990000000002e-10,0,0,3.29029,2,8.53,4,4.0
1774391058462,0.0671132,0.784749,0.202329,-5.280090000000001e-10,-3.0434100000000008e-09,-4.730450000000001e-10,0,0,3.30303,2,8.544,4,4.0
1774391058475,0.0902511,0.859676,0.2023,-1.38076e-09,-2.805730000000001e-09,-1.64465e-10,0,0,3.28977,2,8.557,4,4.0
1774391058489,0.0881406,0.902392,0.209052,-1.3981500000000002e-09,-2.6807600000000006e-09,1.3481400000000003e-10,0,0,3.27603,2,8.571,4,4.0
1774391058502,0.062676,0.872195,0.199941,-2.2760800000000003e-09,-2.4775900000000003e-09,1.17781e-09,0,0,3.28429,2,8.584,5,5.0
1774391058515,0.0449233,0.863851,0.192564,-3.08661e-09,-2.11262e-09,2.1707300000000004e-09,0,0,3.27486,2,8.597,5,5.0
1774391058529,0.0360294,0.855402,0.183385,-4.289280000000001e-09,-1.5286400000000002e-09,2.99595e-09,0,0,3.29207,2,8.611,5,5.0
1774391058542,0.0604733,0.865783,0.174511,-5.451760000000001e-09,-9.656810000000002e-10,3.3695999999999996e-09,0,0,3.2789,2,8.624,5,5.0
1774391058556,0.0766947,0.895697,0.180588,-6.549039999999999e-09,-5.19766e-10,3.4120200000000004e-09,0,0,3.3129,2,8.638,5,5.0
1774391058569,0.0897404,0.936613,0.182492,-7.584770000000001e-09,-8.95714e-11,3.5530300000000005e-09,0,0,3.32083,2,8.651,5,5.0
1774391058582,0.111931,0.970968,0.182327,-8.5624e-09,2.3154000000000003e-10,3.595580000000001e-09,0,0,3.28568,5,8.664,5,5.0
1774391058596,0.134583,1.00599,0.181699,-9.485200000000001e-09,4.588080000000001e-10,3.5915000000000003e-09,0,0,3.32216,5,8.678,5,5.0
1774391058609,0.158208,1.04664,0.177436,-1.03562e-08,5.712910000000001e-10,3.64066e-09,0,0,3.29047,5,8.691,5,5.0
1774391058623,0.180437,1.08816,0.169078,-1.1178400000000003e-08,5.96751e-10,3.68856e-09,0,0,3.29373,5,8.705,5,5.0
1774391058636,0.200819,1.1266,0.156719,-1.1954500000000003e-08,5.73811e-10,3.7372900000000004e-09,0,0,3.2896,5,8.718,5,5.0
1774391058649,0.220512,1.16062,0.139178,-1.2687e-08,5.19744e-10,3.8041400000000005e-09,0,0,3.28675,5,8.731,5,5.0
1774391058663,0.237582,1.19259,0.116414,-1.3362900000000001e-08,4.26063e-10,3.961520000000001e-09,0,0,3.31692,5,8.745,5,5.0
1774391058676,0.249431,1.22459,0.0880795,-1.3893000000000002e-08,2.5568200000000006e-10,4.31051e-09,0,0,3.32159,5,8.758,1,1.0
1774391058690,0.253941,1.25524,0.0551224,-1.4242200000000002e-08,8.791780000000001e-12,4.81325e-09,0,0,3.31334,5,8.772,1,1.0
1774391058703,0.24481,1.2827,0.0160793,-1.43874e-08,-2.0536600000000003e-10,5.308310000000002e-09,0,0,3.30744,5,8.785,1,1.0
1774391058717,0.234734,1.3021,-0.0271286,-1.4318000000000003e-08,-3.0513200000000003e-10,5.55833e-09,0,0,3.33297,5,8.799,1,1.0
1774391058730,0.227181,1.31681,-0.0736679,-1.40634e-08,-3.0381699999999997e-10,5.4934e-09,0,0,3.29534,3,8.812,1,1.0
1774391058743,0.219626,1.33101,-0.121941,-1.3616200000000002e-08,-2.3192400000000005e-10,5.2480300000000005e-09,0,0,3.3369,3,8.825,1,1.0
1774391058757,0.212018,1.34455,-0.168092,-1.2972e-08,-1.30366e-10,4.97143e-09,0,0,3.29038,3,8.839,1,1.0
1774391058770,0.204636,1.35775,-0.213495,-1.2156700000000001e-08,-4.94485e-11,4.71145e-09,0,0,3.35666,3,8.852,1,1.0
1774391058784,0.190359,1.37187,-0.251863,-1.1153600000000002e-08,7.762770000000001e-11,4.411290000000001e-09,0,0,3.2771,3,8.866,1,1.0
1774391058797,0.173033,1.38393,-0.282681,-1.00271e-08,3.607150000000001e-10,3.98744e-09,0,0,3.27986,3,8.879,1,1.0
1774391058810,0.157063,1.39219,-0.307228,-8.839990000000002e-09,7.883640000000002e-10,3.5622300000000004e-09,0,0,3.27718,3,8.892,1,1.0
1774391058824,0.12599,1.386,-0.187867,-8.443210000000002e-09,1.3694699999999998e-09,2.8229e-09,0,0,3.27744,3,8.906,1,1.0
1774391058837,0.115633,1.35822,-0.110315,-7.570630000000002e-09,1.83473e-09,1.905e-09,0,0,3.31657,3,8.919,1,1.0
1774391058851,0.141016,1.32121,-0.00386828,-6.593010000000001e-09,2.3529e-09,1.1148400000000003e-09,0,0,3.2801,3,8.933,1,1.0
1774391058864,0.152871,1.27854,0.0141206,-5.86968e-09,2.900710000000001e-09,6.635560000000001e-10,0,0,3.3066,5,8.946,1,1.0
1774391058877,0.144456,1.23201,0.0168343,-5.16179e-09,3.414540000000001e-09,3.665120000000001e-10,0,0,3.27862,5,8.959,1,1.0
1774391058891,0.101923,1.19748,0.00321107,-5.29942e-09,3.52086e-09,-3.93824e-10,0,0,3.2712,5,8.973,1,1.0
1774391058904,0.094081,1.26299,0.0293892,-6.06552e-09,3.79313e-09,-3.3101300000000005e-10,0,0,3.27855,5,8.986,1,1.0
1774391058917,0.101807,1.37729,0.0273031,-4.87637e-09,3.647460000000001e-09,4.0776400000000003e-10,0,0,3.27597,5,8.999,1,1.0
1774391058931,0.114801,1.40381,0.0507834,-3.199800000000001e-09,3.442730000000001e-09,5.1917e-10,0,0,3.30396,5,9.013,1,1.0
1774391058944,0.133419,1.37658,0.0711335,-1.6172799999999998e-09,3.22457e-09,4.1541600000000007e-10,0,0,3.3074,5,9.026,1,1.0
1774391058958,0.139777,1.33271,0.0852124,-1.2352200000000002e-10,2.951000000000001e-09,4.774520000000001e-10,0,0,3.35849,2,9.04,1,1.0
1774391058971,0.136782,1.28698,0.101217,9.44752e-10,2.7423900000000005e-09,5.959110000000002e-10,0,0,3.2739,2,9.053,1,1.0
1774391058984,0.135754,1.23459,0.108279,1.55275e-09,2.6161400000000004e-09,6.519759999999999e-10,0,0,3.26627,2,9.066,1,1.0
1774391058998,0.136854,1.18211,0.110601,1.6806000000000002e-09,2.50613e-09,6.41653e-10,0,0,3.27384,2,9.08,1,1.0
1774391059011,0.133709,1.14434,0.113921,1.4282900000000005e-09,2.4362100000000002e-09,6.000090000000002e-10,0,0,3.30575,2,9.093,1,1.0
1774391059025,0.121978,1.13903,0.109174,1.03735e-09,2.44685e-09,6.376030000000002e-10,0,0,3.30662,2,9.107,1,1.0
1774391059038,0.111839,1.16398,0.113624,9.41528e-10,2.5508e-09,7.317500000000001e-10,0,0,3.27397,5,9.12,1,1.0
1774391059051,0.12385,1.1889,0.116289,1.3458e-09,2.5751800000000006e-09,6.284460000000001e-10,0,0,3.30136,5,9.133,1,1.0
1774391059065,0.133798,1.1958,0.123439,2.04024e-09,2.5114099999999997e-09,4.0517900000000003e-10,0,0,3.30353,5,9.147,2,2.0
1774391059078,0.142787,1.18325,0.132369,2.72672e-09,2.3693400000000004e-09,2.0402599999999998e-10,0,0,3.27959,5,9.16,2,2.0
1774391059092,0.140771,1.15758,0.138539,3.2294500000000003e-09,2.22359e-09,4.9738699999999994e-11,0,0,3.2692,5,9.174,2,2.0
1774391059105,0.135458,1.12671,0.138694,3.4417200000000004e-09,2.0949700000000003e-09,-1.1623300000000001e-10,0,0,3.28175,5,9.187,2,2.0
1774391059118,0.12663,1.10512,0.130643,3.4006700000000004e-09,2.04138e-09,-2.5533900000000006e-10,0,0,3.29577,5,9.2,2,2.0
1774391059132,0.121519,1.09842,0.124887,3.25749e-09,2.01179e-09,-3.1034000000000004e-10,0,0,3.26435,5,9.214,2,2.0
1774391059145,0.11707,1.10318,0.124304,3.2036600000000005e-09,1.98548e-09,-2.99998e-10,0,0,3.30523,5,9.227,2,2.0
1774391059159,0.117,1.10722,0.121302,3.31859e-09,1.93795e-09,-2.951590000000001e-10,0,0,3.40425,5,9.241,2,2.0
1774391059172,0.118652,1.10327,0.118731,3.4696000000000005e-09,1.8671000000000003e-09,-3.0587800000000007e-10,0,0,3.33031,5,9.254,2,2.0
1774391059185,0.116528,1.09222,0.115129,3.51844e-09,1.78557e-09,-3.05848e-10,0,0,3.27207,5,9.267,2,2.0
1774391059199,0.113161,1.08313,0.111493,3.47112e-09,1.7206100000000003e-09,-2.76232e-10,0,0,3.26697,5,9.281,2,2.0
1774391059212,0.113092,1.07903,0.108112,3.3931900000000004e-09,1.6677700000000001e-09,-2.60866e-10,0,0,3.29368,5,9.294,2,2.0
1774391059226,0.113282,1.07945,0.106309,3.35028e-09,1.6017100000000005e-09,-2.4379300000000007e-10,0,0,3.26035,5,9.308,2,2.0
1774391059239,0.114307,1.08307,0.105098,3.3778199999999994e-09,1.5399999999999999e-09,-2.0318500000000006e-10,0,0,3.30125,5,9.321,2,2.0
1774391059252,0.114828,1.08859,0.104153,3.48919e-09,1.46501e-09,-1.24863e-10,0,0,3.3101,5,9.334,2,2.0
1774391059266,0.112539,1.09235,0.101061,3.69049e-09,1.39589e-09,-3.23071e-11,0,0,3.32296,5,9.348,2,2.0
1774391059279,0.113789,1.08881,0.0983927,3.86825e-09,1.3430700000000002e-09,-2.2774e-12,0,0,3.27468,5,9.361,2,2.0
1774391059293,0.114236,1.08352,0.0941965,3.984180000000001e-09,1.2808400000000003e-09,-4.55677e-11,0,0,3.27877,5,9.375,2,2.0
1774391059306,0.111611,1.07979,0.0898315,4.07615e-09,1.2405900000000004e-09,-7.91079e-11,0,0,3.27166,5,9.388,2,2.0
1774391059319,0.108534,1.07815,0.0842373,4.13645e-09,1.20415e-09,-1.1808900000000002e-10,0,0,3.2849,5,9.401,2,2.0
1774391059333,0.106927,1.07798,0.0802865,4.158680000000001e-09,1.1804500000000002e-09,-1.40838e-10,0,0,3.30827,5,9.415,2,2.0
1774391059346,0.104386,1.07822,0.0754941,4.1589800000000005e-09,1.1505500000000001e-09,-1.0604800000000002e-10,0,0,3.28281,5,9.428,2,2.0
1774391059360,0.1006,1.07973,0.0724702,4.154350000000001e-09,1.0992000000000003e-09,-1.60468e-11,0,0,3.3051,5,9.442,2,2.0
1774391059373,0.100151,1.08329,0.0693756,4.170310000000001e-09,1.0623300000000002e-09,6.28689e-11,0,0,3.29675,5,9.455,2,2.0
1774391059386,0.101387,1.08677,0.0655622,4.2161200000000005e-09,1.02629e-09,1.33504e-10,0,0,3.28192,5,9.468,2,2.0
1774391059400,0.101448,1.08865,0.0617021,4.27859e-09,9.937750000000001e-10,2.0574400000000001e-10,0,0,3.30579,5,9.482,2,2.0
1774391059413,0.101304,1.09109,0.0580321,4.347570000000001e-09,9.53233e-10,2.72947e-10,0,0,3.2737,5,9.495,2,2.0
1774391059426,0.102201,1.09558,0.0544158,4.434220000000001e-09,9.065290000000001e-10,3.4956800000000005e-10,0,0,3.25872,5,9.508,2,2.0
1774391059440,0.101042,1.10049,0.0499861,4.55982e-09,8.5842e-10,4.1761000000000007e-10,0,0,3.27905,5,9.522,2,2.0
1774391059453,0.0993242,1.10439,0.0465189,4.714160000000001e-09,7.980229999999999e-10,5.17717e-10,0,0,3.29096,5,9.535,3,3.0
1774391059467,0.0988349,1.10803,0.0422423,4.884390000000001e-09,7.36518e-10,6.27795e-10,0,0,3.30451,5,9.549,3,3.0
1774391059480,0.0999364,1.11349,0.0382276,5.087840000000001e-09,6.662160000000002e-10,7.377350000000002e-10,0,0,3.30781,5,9.562,3,3.0
1774391059493,0.10194,1.11813,0.0340894,5.334210000000001e-09,5.782780000000001e-10,8.494730000000001e-10,0,0,3.28216,5,9.575,3,3.0
1774391059507,0.105329,1.12138,0.0301109,5.6028700000000005e-09,4.744620000000002e-10,9.585410000000002e-10,0,0,3.26405,5,9.589,3,3.0
1774391059520,0.108976,1.12478,0.026349,5.883550000000002e-09,3.4654e-10,1.06641e-09,0,0,3.31094,5,9.602,3,3.0
1774391059534,0.113254,1.12935,0.0236059,6.183690000000001e-09,2.0352700000000005e-10,1.1845900000000001e-09,0,0,3.27499,5,9.616,3,3.0
1774391059547,0.116949,1.13401,0.0217087,6.486730000000001e-09,2.7001900000000008e-11,1.3241900000000002e-09,0,0,3.30449,5,9.629,3,3.0
1774391059560,0.123014,1.14089,0.0230442,6.773290000000003e-09,-1.8762100000000003e-10,1.4789900000000003e-09,0,0,3.26744,5,9.642,3,3.0
1774391059574,0.130756,1.14936,0.0260509,7.007810000000003e-09,-4.350360000000001e-10,1.6653600000000003e-09,0,0,3.3041,5,9.656,3,3.0
1774391059587,0.138725,1.15812,0.0338375,7.163750000000002e-09,-7.16359e-10,1.85866e-09,0,0,3.27797,5,9.669,3,3.0
1774391059601,0.150104,1.17283,0.0475189,7.253810000000001e-09,-1.0335800000000003e-09,2.04304e-09,0,0,3.30925,5,9.683,3,3.0
1774391059614,0.163805,1.19797,0.0635701,7.313819999999999e-09,-1.38671e-09,2.17534e-09,0,0,3.28888,5,9.696,3,3.0
1774391059627,0.17571,1.23947,0.0779051,7.497470000000002e-09,-1.7580100000000002e-09,2.2132000000000006e-09,0,0,3.27044,5,9.709,3,3.0
1774391059641,0.170332,1.30174,0.0832532,8.08084e-09,-2.1173800000000004e-09,2.1996200000000003e-09,0,0,3.35938,5,9.723,3,3.0
1774391059654,0.16331,1.3713,0.0884848,9.03061e-09,-2.4251300000000007e-09,2.2207899999999997e-09,0,0,3.3261,4,9.736,3,3.0
1774391059668,0.167208,1.39958,0.0911174,9.927099999999999e-09,-2.6847900000000006e-09,2.13917e-09,0,0,3.33986,4,9.75,3,3.0
1774391059681,0.179424,1.38193,0.0992081,1.0773300000000003e-08,-2.9474800000000002e-09,2.0063300000000005e-09,0,0,3.28238,4,9.763,3,3.0
1774391059695,0.194991,1.35273,0.101671,1.1572000000000001e-08,-3.1917100000000003e-09,2.01972e-09,0,0,3.34244,4,9.777,3,3.0
1774391059708,0.217299,1.32872,0.111104,1.2326e-08,-3.56097e-09,2.1162400000000005e-09,0,0,3.29171,4,9.79,3,3.0
1774391059721,0.232,1.31543,0.129799,1.3020400000000002e-08,-4.052490000000001e-09,2.3096400000000003e-09,0,0,3.2704,4,9.803,4,4.0
1774391059735,0.243069,1.25877,0.125927,1.3693100000000004e-08,-4.635860000000001e-09,2.5756900000000006e-09,0,0,3.31012,4,9.817,4,4.0
1774391059748,0.239336,1.16596,0.156027,1.4328100000000001e-08,-5.19306e-09,2.96388e-09,0,0,3.28503,4,9.83,4,4.0
1774391059761,0.246337,1.06581,0.136199,1.4848500000000006e-08,-5.9737800000000004e-09,3.444230000000001e-09,0,0,3.28566,4,9.843,4,4.0
1774391059775,0.24844,0.972037,0.118445,1.4651000000000002e-08,-6.7882900000000024e-09,4.015180000000001e-09,0,0,3.29849,4,9.857,4,4.0
1774391059788,0.230475,0.887204,0.115592,1.38178e-08,-7.57351e-09,4.54892e-09,0,0,3.29838,4,9.87,4,4.0
1774391059802,0.173941,0.808943,0.132436,1.18776e-08,-8.147570000000001e-09,4.4539400000000004e-09,0,0,3.27344,4,9.884,4,4.0
1774391059815,0.157056,0.746286,0.130231,9.808240000000003e-09,-8.479650000000001e-09,4.095180000000001e-09,0,0,3.28899,4,9.897,4,4.0
1774391059828,0.13666,0.706325,0.133718,7.85499e-09,-8.578170000000002e-09,3.52369e-09,0,0,3.29062,4,9.91,4,4.0
1774391059842,0.110579,0.681831,0.144569,6.0113000000000005e-09,-8.22729e-09,2.7375400000000005e-09,0,0,3.26094,2,9.924,4,4.0
1774391059855,0.0707867,0.661163,0.162536,4.27103e-09,-7.3106800000000015e-09,2.0916599999999998e-09,0,0,3.27559,2,9.937,4,4.0
1774391059869,0.0508216,0.670931,0.19174,2.62838e-09,-6.298880000000001e-09,1.48752e-09,0,0,3.34049,2,9.951,4,4.0
1774391059882,0.0348472,0.683379,0.224365,1.0778700000000001e-09,-5.2379e-09,1.27246e-09,0,0,3.28833,2,9.964,4,4.0
1774391059895,0.0425587,0.724836,0.243904,-3.85674e-10,-4.03488e-09,1.6206700000000002e-09,0,0,3.28299,2,9.977,5,5.0
1774391059909,0.0534244,0.784542,0.199925,-1.7671199999999998e-09,-2.9267499999999996e-09,2.4004800000000004e-09,0,0,3.37412,2,9.991,5,5.0
1774391059926,0.0620211,0.795053,0.222081,-2.08253e-09,-2.0431400000000005e-09,2.91102e-09,0,0,3.32594,2,10.008,5,5.0
1774391059939,0.0982794,0.804497,0.225982,-2.1040600000000003e-09,-1.2262700000000004e-09,3.8001700000000005e-09,0,0,3.29571,2,10.021,5,5.0
1774391059952,0.0994373,0.790742,0.22132,-2.87782e-09,-7.64408e-10,4.381640000000001e-09,0,0,3.30436,2,10.034,5,5.0
1774391059966,0.124012,0.768397,0.211481,-4.11948e-09,-3.2318900000000004e-10,4.6257900000000004e-09,0,0,3.28734,2,10.048,5,5.0
1774391059979,0.132533,0.800744,0.211575,-5.2914900000000015e-09,4.50251e-11,4.601780000000001e-09,0,0,3.30797,2,10.061,5,5.0
1774391059993,0.134595,0.847607,0.210426,-6.397760000000001e-09,4.22087e-10,4.7676900000000005e-09,0,0,3.29364,2,10.075,5,5.0
1774391060007,0.144703,0.891897,0.208057,-7.441970000000002e-09,7.451560000000001e-10,4.945060000000001e-09,0,0,3.65292,2,10.089,5,5.0
1774391060020,0.15912,0.925687,0.202684,-8.42762e-09,1.02959e-09,5.0694000000000015e-09,0,0,3.29505,2,10.102,5,5.0
1774391060033,0.177978,0.949159,0.194162,-9.35797e-09,1.2719600000000002e-09,5.2135800000000005e-09,0,0,3.28414,5,10.115,5,5.0
1774391060047,0.203261,0.973921,0.186204,-1.0236100000000004e-08,1.4639e-09,5.29601e-09,0,0,3.30468,5,10.129,5,5.0
1774391060060,0.234389,1.01315,0.178691,-1.10651e-08,1.55135e-09,5.301290000000001e-09,0,0,3.28583,5,10.142,5,5.0
1774391060074,0.262586,1.07066,0.16588,-1.1847500000000002e-08,1.4979900000000003e-09,5.3028e-09,0,0,3.30803,5,10.156,5,5.0
1774391060088,0.28656,1.13252,0.143454,-1.2586e-08,1.32631e-09,5.356640000000001e-09,0,0,3.29175,5,10.17,5,5.0
1774391060101,0.303742,1.18438,0.109804,-1.2982200000000001e-08,1.11083e-09,5.35414e-09,0,0,3.2972,5,10.183,5,5.0
1774391060114,0.305428,1.22402,0.0657114,-1.3121700000000002e-08,8.736040000000001e-10,5.323660000000001e-09,0,0,3.29101,5,10.196,1,1.0
1774391060128,0.280134,1.24106,0.0120691,-1.3366700000000003e-08,6.973020000000002e-10,5.557020000000001e-09,0,0,3.42562,5,10.21,1,1.0
1774391060141,0.251366,1.2668,-0.0495412,-1.3430800000000004e-08,6.206370000000002e-10,5.845800000000001e-09,0,0,3.28216,5,10.223,1,1.0
1774391060155,0.218464,1.29491,-0.110368,-1.32009e-08,7.493480000000001e-10,5.803670000000002e-09,0,0,3.31316,5,10.237,1,1.0
1774391060168,0.193087,1.31952,-0.173948,-1.2707500000000001e-08,1.01343e-09,5.4958100000000015e-09,0,0,3.29229,5,10.25,1,1.0
1774391060182,0.174595,1.34108,-0.235239,-1.1958800000000002e-08,1.33715e-09,5.0491100000000006e-09,0,0,3.31686,5,10.264,1,1.0
1774391060195,0.161152,1.3629,-0.288778,-1.0997600000000002e-08,1.65916e-09,4.5659700000000005e-09,0,0,3.31292,5,10.277,1,1.0
1774391060209,0.146972,1.3858,-0.329235,-9.826150000000001e-09,1.9948000000000006e-09,4.07487e-09,0,0,3.26994,5,10.291,1,1.0
1774391060222,0.151008,1.41678,-0.20606,-9.374320000000001e-09,2.4612500000000008e-09,3.57209e-09,0,0,3.6654,5,10.304,1,1.0
1774391060236,0.143891,1.39071,-0.163149,-8.383860000000001e-09,2.8219100000000006e-09,2.8395300000000004e-09,0,0,3.2751,5,10.318,1,1.0
1774391060249,0.180146,1.35488,-0.0682825,-7.263260000000001e-09,3.108850000000001e-09,2.29056e-09,0,0,3.29788,5,10.331,1,1.0
1774391060263,0.216844,1.30995,-0.0216599,-6.36416e-09,3.3457800000000004e-09,1.9943100000000007e-09,0,0,3.29629,5,10.345,1,1.0
1774391060276,0.20892,1.26167,-0.0165487,-5.66596e-09,3.5231800000000002e-09,1.8683600000000004e-09,0,0,3.30677,5,10.358,1,1.0
1774391060290,0.177682,1.2304,-0.00296999,-5.821420000000001e-09,3.2159e-09,1.3347300000000002e-09,0,0,3.29086,5,10.372,1,1.0
1774391060303,0.14197,1.27294,0.0203821,-6.11382e-09,3.4845500000000008e-09,1.7061200000000003e-09,0,0,3.32686,5,10.385,1,1.0
1774391060317,0.133017,1.35036,0.0217649,-5.451070000000001e-09,3.6331400000000005e-09,2.0258900000000003e-09,0,0,3.32442,5,10.399,1,1.0
1774391060330,0.157416,1.38018,0.00584411,-3.91598e-09,3.44138e-09,1.8262700000000001e-09,0,0,3.29409,5,10.412,1,1.0
1774391060344,0.183544,1.3839,0.0419327,-2.29329e-09,3.2144700000000004e-09,1.30476e-09,0,0,3.39692,3,10.426,1,1.0
1774391060357,0.181219,1.35979,0.0561782,-7.616140000000002e-10,2.9604300000000003e-09,1.04185e-09,0,0,3.27701,3,10.439,1,1.0
1774391060371,0.179668,1.31775,0.0709539,6.00134e-10,2.7443200000000003e-09,1.0991e-09,0,0,3.28373,3,10.453,1,1.0
1774391060384,0.181826,1.26554,0.0793606,1.4989300000000001e-09,2.5771500000000003e-09,1.12253e-09,0,0,3.29736,3,10.466,1,1.0
1774391060397,0.188373,1.20893,0.0836414,1.8821800000000002e-09,2.4387600000000004e-09,9.872890000000001e-10,0,0,3.28614,5,10.479,1,1.0
1774391060411,0.191175,1.15917,0.0887279,1.7727500000000001e-09,2.2957099999999997e-09,8.130020000000002e-10,0,0,3.29238,5,10.493,2,2.0
1774391060424,0.18354,1.13283,0.0901113,1.33962e-09,2.2348500000000004e-09,7.124189999999999e-10,0,0,3.28646,5,10.506,2,2.0
1774391060438,0.172738,1.13529,0.0940714,9.133680000000001e-10,2.2409000000000004e-09,6.946810000000001e-10,0,0,3.50872,5,10.52,2,2.0
1774391060451,0.161628,1.16881,0.089477,8.534430000000001e-10,2.2901200000000004e-09,6.73228e-10,0,0,3.31314,5,10.533,2,2.0
1774391060465,0.170308,1.18963,0.0943724,1.3704300000000002e-09,2.28656e-09,5.636150000000001e-10,0,0,3.28618,5,10.547,2,2.0
1774391060479,0.179932,1.1875,0.101894,2.0559499999999997e-09,2.1801e-09,3.2026199999999995e-10,0,0,3.30534,5,10.561,2,2.0
1774391060492,0.185089,1.17098,0.111136,2.67664e-09,2.0348600000000006e-09,2.0594199999999998e-11,0,0,3.28471,5,10.574,2,2.0
1774391060506,0.185515,1.1439,0.114262,3.07697e-09,1.8682300000000003e-09,-1.94911e-10,0,0,3.28912,5,10.588,2,2.0
1774391060519,0.178363,1.11632,0.111144,3.22749e-09,1.7588500000000004e-09,-4.3519500000000007e-10,0,0,3.2827,5,10.601,2,2.0
1774391060533,0.166367,1.10163,0.107789,3.19799e-09,1.7463400000000004e-09,-6.965550000000001e-10,0,0,3.29775,5,10.615,2,2.0
1774391060546,0.15845,1.09884,0.102306,3.09251e-09,1.75967e-09,-7.912490000000001e-10,0,0,3.28344,5,10.628,2,2.0
1774391060559,0.156005,1.09611,0.0996154,3.0431300000000004e-09,1.7584700000000006e-09,-7.655350000000001e-10,0,0,3.40368,5,10.641,2,2.0
1774391060573,0.155685,1.09952,0.0972128,3.08978e-09,1.72183e-09,-7.407920000000001e-10,0,0,3.27562,5,10.655,2,2.0
1774391060586,0.153863,1.09983,0.0944242,3.2123399999999997e-09,1.6589500000000001e-09,-7.526340000000002e-10,0,0,3.30171,5,10.668,2,2.0
1774391060600,0.149162,1.09476,0.0938929,3.3217000000000006e-09,1.6004900000000001e-09,-7.175679999999999e-10,0,0,3.29681,5,10.682,2,2.0
1774391060613,0.146974,1.0841,0.0924987,3.3259200000000004e-09,1.5597000000000001e-09,-6.595480000000002e-10,0,0,3.29216,5,10.695,2,2.0
1774391060627,0.146194,1.08127,0.0896172,3.273940000000001e-09,1.5114800000000002e-09,-6.181850000000001e-10,0,0,3.31109,5,10.709,2,2.0
1774391060641,0.144307,1.08442,0.0885701,3.2854600000000004e-09,1.4661300000000002e-09,-5.60816e-10,0,0,3.2972,5,10.723,2,2.0
1774391060654,0.142886,1.08973,0.0853374,3.3949499999999997e-09,1.4102700000000001e-09,-4.5553900000000005e-10,0,0,3.58705,5,10.736,2,2.0
1774391060668,0.140854,1.0911,0.0835379,3.55375e-09,1.3526199999999998e-09,-3.4434900000000005e-10,0,0,3.3109,5,10.75,2,2.0
1774391060681,0.141122,1.08715,0.0812512,3.6912200000000004e-09,1.3053900000000004e-09,-2.8692500000000007e-10,0,0,3.3034,5,10.763,2,2.0
1774391060695,0.142616,1.08152,0.0776338,3.7845e-09,1.2506200000000002e-09,-2.81193e-10,0,0,3.38653,5,10.777,2,2.0
1774391060708,0.141344,1.07755,0.0736194,3.8426200000000005e-09,1.19649e-09,-2.8396100000000003e-10,0,0,3.28025,5,10.79,2,2.0
1774391060722,0.134917,1.07712,0.0696738,3.87718e-09,1.1527100000000003e-09,-2.895710000000001e-10,0,0,3.29092,5,10.804,2,2.0
1774391060735,0.131697,1.07684,0.0642031,3.905010000000001e-09,1.1365200000000001e-09,-3.1494800000000007e-10,0,0,3.29005,5,10.817,2,2.0
1774391060749,0.129845,1.07646,0.0606907,3.90713e-09,1.1180300000000003e-09,-3.1402300000000004e-10,0,0,3.30101,5,10.831,2,2.0
1774391060762,0.128181,1.07722,0.057065,3.886220000000001e-09,1.09158e-09,-2.5196299999999995e-10,0,0,3.28686,5,10.844,2,2.0
1774391060776,0.125287,1.08019,0.0529892,3.880270000000001e-09,1.0565600000000001e-09,-1.5763100000000004e-10,0,0,3.38659,5,10.858,2,2.0
1774391060789,0.122456,1.08294,0.0492625,3.9012000000000005e-09,1.0147600000000003e-09,-3.8830700000000007e-11,0,0,3.31644,5,10.871,2,2.0
1774391060803,0.120752,1.08667,0.045261,3.9418100000000005e-09,9.73301e-10,9.424400000000001e-11,0,0,3.27109,5,10.885,2,2.0
1774391060816,0.122518,1.09029,0.0424915,4.0051000000000006e-09,9.227740000000001e-10,2.24136e-10,0,0,3.33784,5,10.898,3,3.0
1774391060830,0.122445,1.09353,0.039352,4.097650000000001e-09,8.68573e-10,3.4216100000000005e-10,0,0,3.28414,5,10.912,3,3.0
1774391060843,0.12197,1.09488,0.0349725,4.20504e-09,8.049950000000003e-10,4.653830000000001e-10,0,0,3.29409,5,10.925,3,3.0
1774391060856,0.121387,1.0961,0.0307632,4.3232400000000005e-09,7.371900000000001e-10,5.963370000000001e-10,0,0,3.28838,5,10.938,3,3.0
1774391060870,0.122271,1.09822,0.0261827,4.45767e-09,6.69248e-10,7.228150000000002e-10,0,0,3.51638,5,10.952,3,3.0
1774391060884,0.123906,1.09987,0.0219307,4.6159e-09,5.953560000000002e-10,8.433970000000001e-10,0,0,3.3547,5,10.966,3,3.0
1774391060897,0.126837,1.10117,0.0172988,4.784790000000001e-09,5.082230000000001e-10,9.54089e-10,0,0,3.28423,5,10.979,3,3.0
1774391060911,0.130814,1.10297,0.013083,4.970190000000001e-09,4.13732e-10,1.0471400000000002e-09,0,0,3.30173,5,10.993,3,3.0
1774391060924,0.13387,1.10496,0.0084536,5.1794e-09,3.0857000000000005e-10,1.12962e-09,0,0,3.29949,5,11.006,3,3.0
1774391060938,0.1374,1.10655,0.00346081,5.400480000000001e-09,1.87212e-10,1.21197e-09,0,0,3.29462,5,11.02,3,3.0
1774391060951,0.141022,1.10783,-0.000854531,5.626570000000002e-09,5.1595199999999996e-11,1.2981800000000002e-09,0,0,3.29907,5,11.033,3,3.0
1774391060965,0.143834,1.10936,-0.00560041,5.858700000000001e-09,-1.0142100000000003e-10,1.39573e-09,0,0,3.43173,5,11.047,3,3.0
1774391060978,0.144793,1.11118,-0.00896428,6.0746799999999995e-09,-2.82978e-10,1.5172400000000002e-09,0,0,3.29551,5,11.06,3,3.0
1774391060992,0.153932,1.11392,-0.00888187,6.2434400000000005e-09,-4.670250000000002e-10,1.66468e-09,0,0,3.27301,5,11.074,3,3.0
1774391061005,0.163311,1.11836,-0.00667838,6.36072e-09,-7.01637e-10,1.8026499999999998e-09,0,0,3.28553,5,11.087,3,3.0
1774391061018,0.174331,1.12883,-0.00256399,6.463379999999999e-09,-9.57001e-10,1.9241100000000003e-09,0,0,3.25831,5,11.1,3,3.0
1774391061032,0.182637,1.14265,0.00533159,6.588190000000002e-09,-1.25319e-09,2.00325e-09,0,0,3.30464,5,11.114,3,3.0
1774391061045,0.190494,1.16235,0.017505,6.76167e-09,-1.55495e-09,2.04765e-09,0,0,3.25959,5,11.127,3,3.0
1774391061059,0.195189,1.18954,0.0264768,7.0164900000000004e-09,-1.8558800000000004e-09,2.0281900000000002e-09,0,0,3.37546,5,11.141,3,3.0
1774391061072,0.189781,1.22835,0.0268243,7.46615e-09,-2.11175e-09,1.96067e-09,0,0,3.26327,5,11.154,3,3.0
1774391061086,0.179539,1.27896,0.0261851,8.211420000000001e-09,-2.3307100000000005e-09,1.9060500000000005e-09,0,0,3.51029,3,11.168,3,3.0
1774391061099,0.180848,1.32638,0.0192637,9.15386e-09,-2.50142e-09,1.8777500000000005e-09,0,0,3.26601,4,11.181,3,3.0
1774391061112,0.190513,1.34208,0.020546,1.0043400000000001e-08,-2.6556600000000003e-09,1.7186000000000007e-09,0,0,3.25411,3,11.194,3,3.0
1774391061126,0.206023,1.32431,0.0237153,1.0883100000000001e-08,-2.8319900000000003e-09,1.5671800000000002e-09,0,0,3.27464,3,11.208,3,3.0
1774391061139,0.2181,1.3065,0.0232654,1.1670300000000001e-08,-3.0369200000000003e-09,1.5736400000000002e-09,0,0,3.2557,3,11.221,3,3.0
1774391061153,0.238169,1.28788,0.0182441,1.2234900000000001e-08,-3.31364e-09,1.6408100000000003e-09,0,0,3.29612,4,11.235,3,3.0
1774391061166,0.250068,1.26942,0.0253151,1.27114e-08,-3.66352e-09,1.7265100000000003e-09,0,0,3.25807,4,11.248,4,4.0
1774391061179,0.257442,1.19166,0.0300803,1.3401500000000001e-08,-4.0617700000000005e-09,1.9140200000000004e-09,0,0,3.32462,4,11.261,4,4.0
1774391061193,0.269961,1.0982,0.0323523,1.4052799999999998e-08,-4.77453e-09,2.3293900000000004e-09,0,0,3.27934,3,11.275,4,4.0
1774391061206,0.275655,1.00371,0.0250011,1.4290400000000003e-08,-5.49681e-09,2.8495700000000005e-09,0,0,3.24301,3,11.288,4,4.0
1774391061220,0.271596,0.91468,0.0341255,1.3855199999999998e-08,-5.947700000000002e-09,3.32713e-09,0,0,3.27648,3,11.302,4,4.0
1774391061233,0.261609,0.827807,0.0725327,1.2551600000000002e-08,-5.76459e-09,3.4379700000000007e-09,0,0,3.25855,3,11.315,4,4.0
1774391061248,0.228312,0.758271,0.0922519,1.04445e-08,-5.849510000000001e-09,2.6565e-09,0,0,3.28346,3,11.33,4,4.0
1774391061261,0.169726,0.711946,0.105824,8.455540000000002e-09,-5.887840000000001e-09,1.6605799999999999e-09,0,0,3.2511,3,11.343,4,4.0
1774391061274,0.121401,0.688252,0.124108,6.5781700000000015e-09,-5.659360000000001e-09,3.653400000000001e-10,0,0,3.26435,3,11.356,4,4.0
1774391061290,0.0874881,0.682144,0.142885,4.806100000000001e-09,-5.011650000000001e-09,-1.0582300000000002e-09,0,0,4.9803,2,11.372,4,4.0
1774391061303,0.0525389,0.693514,0.160275,3.1334400000000003e-09,-4.11399e-09,-2.4019600000000007e-09,0,0,3.39125,2,11.385,4,4.0
1774391061317,0.0721609,0.721833,0.216857,1.55459e-09,-3.1362500000000006e-09,-2.05215e-09,0,0,3.23892,2,11.399,4,4.0
1774391061330,0.0914266,0.781991,0.250145,6.431110000000002e-11,-2.58807e-09,-1.5280800000000004e-09,0,0,3.27284,2,11.412,4,4.0
1774391061343,0.115007,0.845112,0.240359,-9.95718e-10,-2.2381000000000004e-09,-8.935560000000003e-10,0,0,3.26733,2,11.425,5,5.0
1774391061357,0.130605,0.882166,0.248884,-1.2941000000000001e-09,-2.08828e-09,-4.00133e-10,0,0,3.27566,2,11.439,5,5.0
1774391061370,0.132346,0.889817,0.240925,-1.5715100000000003e-09,-2.0098500000000005e-09,2.8762800000000005e-10,0,0,3.26534,2,11.452,5,5.0
1774391061384,0.124284,0.875449,0.241611,-2.54488e-09,-1.9535e-09,1.10363e-09,0,0,3.2721,2,11.466,5,5.0
1774391061397,0.116382,0.860685,0.224991,-3.6961500000000007e-09,-1.7215900000000003e-09,1.7659200000000002e-09,0,0,3.30588,2,11.479,5,5.0
1774391061410,0.122823,0.869052,0.222732,-4.891910000000001e-09,-1.4856500000000001e-09,2.0362200000000006e-09,0,0,3.27984,2,11.492,5,5.0
1774391061424,0.135902,0.904418,0.219344,-6.020590000000001e-09,-1.33719e-09,2.00494e-09,0,0,3.28662,2,11.506,5,5.0
1774391061439,0.147212,0.945401,0.216371,-7.085960000000001e-09,-1.2461300000000001e-09,1.97508e-09,0,0,3.28768,2,11.521,5,5.0
1774391061452,0.165662,0.98361,0.211041,-8.09158e-09,-1.2444000000000002e-09,1.97181e-09,0,0,3.25084,2,11.534,5,5.0
1774391061469,0.188014,1.02121,0.203114,-9.04078e-09,-1.3754100000000001e-09,1.9482500000000006e-09,0,0,6.22493,5,11.551,5,5.0
1774391061482,0.205448,1.06212,0.194989,-9.936740000000003e-09,-1.5993600000000004e-09,1.9978300000000007e-09,0,0,3.27446,5,11.564,5,5.0
1774391061499,0.218596,1.10552,0.184241,-1.0782400000000002e-08,-1.8848700000000003e-09,2.1630200000000003e-09,0,0,7.41245,5,11.581,5,5.0
1774391061513,0.219126,1.14629,0.165678,-1.14556e-08,-2.17547e-09,2.4075700000000006e-09,0,0,3.25118,5,11.595,5,5.0
1774391061526,0.210312,1.18052,0.141915,-1.1990900000000001e-08,-2.40653e-09,2.7631800000000004e-09,0,0,3.28834,5,11.608,5,5.0
1774391061540,0.199043,1.20519,0.112946,-1.24681e-08,-2.52558e-09,3.14818e-09,0,0,3.2559,5,11.622,5,5.0
1774391061553,0.195634,1.22416,0.0808335,-1.2959100000000003e-08,-2.54487e-09,3.4309e-09,0,0,3.32236,3,11.635,5,5.0
1774391061566,0.197617,1.25098,0.0443282,-1.3364899999999997e-08,-2.5425700000000002e-09,3.6321300000000008e-09,0,0,3.26051,3,11.648,5,5.0
1774391061580,0.199481,1.28292,0.00429447,-1.3489000000000001e-08,-2.5687000000000004e-09,3.871480000000001e-09,0,0,3.54699,3,11.662,1,1.0
1774391061593,0.194568,1.31019,-0.0411954,-1.3285200000000004e-08,-2.6339099999999996e-09,4.13753e-09,0,0,3.27534,3,11.675,1,1.0
1774391061607,0.178393,1.32926,-0.0886249,-1.2836500000000002e-08,-2.6464e-09,4.35633e-09,0,0,3.25005,3,11.689,1,1.0
1774391061620,0.154438,1.34046,-0.137707,-1.2236800000000001e-08,-2.5284000000000005e-09,4.43859e-09,0,0,3.28053,3,11.702,1,1.0
1774391061633,0.12869,1.34557,-0.18572,-1.1546300000000001e-08,-2.2442e-09,4.3274100000000005e-09,0,0,3.25134,3,11.715,1,1.0
1774391061647,0.106886,1.35139,-0.228377,-1.07785e-08,-1.8188900000000003e-09,4.082750000000001e-09,0,0,3.30634,3,11.729,1,1.0
1774391061660,0.0915989,1.36002,-0.264631,-9.921610000000001e-09,-1.31188e-09,3.806510000000001e-09,0,0,3.25577,3,11.742,1,1.0
1774391061674,0.0793505,1.36981,-0.292371,-8.944310000000002e-09,-7.574020000000001e-10,3.5691000000000004e-09,0,0,3.29086,3,11.756,1,1.0
1774391061687,0.131977,1.39762,-0.215,-8.177850000000002e-09,9.67269e-13,3.4074800000000007e-09,0,0,3.27449,3,11.769,1,1.0
1774391061700,0.0943559,1.36633,-0.162965,-7.82246e-09,7.979820000000001e-10,2.50881e-09,0,0,3.39027,3,11.782,1,1.0
1774391061714,0.0925997,1.33029,-0.0906234,-7.05821e-09,1.6808000000000004e-09,1.5314900000000003e-09,0,0,3.27549,2,11.796,1,1.0
1774391061727,0.112562,1.29546,0.00354879,-6.26092e-09,2.37276e-09,8.751160000000001e-10,0,0,3.25414,2,11.809,1,1.0
1774391061741,0.108398,1.26332,0.0233273,-5.77005e-09,2.8308200000000004e-09,6.747930000000001e-10,0,0,3.31075,2,11.823,1,1.0
1774391061754,0.0700785,1.2363,0.00820301,-5.6643900000000005e-09,2.96902e-09,4.03495e-10,0,0,3.25814,2,11.836,1,1.0
1774391061767,0.0627217,1.27796,0.0323691,-5.8677600000000004e-09,3.031650000000001e-09,8.49898e-10,0,0,3.28351,2,11.849,1,1.0
1774391061781,0.0941981,1.38416,0.0333451,-4.73141e-09,2.6910499999999997e-09,1.4361100000000003e-09,0,0,3.27101,2,11.863,1,1.0
1774391061795,0.0938689,1.42345,0.054287,-3.0629700000000002e-09,2.439e-09,1.1860800000000001e-09,0,0,3.83088,2,11.877,1,1.0
1774391061808,0.0935861,1.40778,0.0772278,-1.4881300000000003e-09,2.31551e-09,1.1930300000000002e-09,0,0,3.2771,2,11.89,1,1.0
1774391061821,0.0931662,1.36873,0.0966989,-1.61436e-12,2.2151700000000003e-09,1.3172500000000002e-09,0,0,3.25951,2,11.903,1,1.0
1774391061835,0.0995552,1.31963,0.108944,1.3796800000000001e-09,2.1332200000000002e-09,1.2789000000000002e-09,0,0,3.31577,2,11.917,1,1.0
1774391061848,0.105889,1.26303,0.111408,2.2943100000000005e-09,2.09167e-09,1.24099e-09,0,0,3.25668,2,11.93,1,1.0
1774391061862,0.110931,1.19931,0.113775,2.6178699999999998e-09,2.04225e-09,1.18757e-09,0,0,3.31499,2,11.944,1,1.0
1774391061875,0.116949,1.13641,0.114522,2.33272e-09,1.98028e-09,1.12412e-09,0,0,3.26198,5,11.957,1,1.0
1774391061889,0.116831,1.09195,0.108019,1.5501700000000002e-09,1.9471700000000004e-09,1.0457000000000002e-09,0,0,3.29294,5,11.971,1,1.0
1774391061902,0.108508,1.09077,0.11047,5.86037e-10,1.97583e-09,1.12316e-09,0,0,3.27658,5,11.984,2,2.0
1774391061915,0.095008,1.13959,0.113593,-3.974480000000001e-11,2.02908e-09,1.1875900000000002e-09,0,0,3.27721,5,11.997,2,2.0
1774391061929,0.10547,1.19009,0.116964,3.1021500000000005e-10,2.0149400000000005e-09,1.1247400000000002e-09,0,0,3.2817,5,12.011,2,2.0
1774391061942,0.116574,1.19232,0.127373,1.0605100000000003e-09,1.9122e-09,8.25721e-10,0,0,3.25607,5,12.024,2,2.0
1774391061956,0.11959,1.17342,0.134327,1.7072700000000005e-09,1.78948e-09,5.087480000000001e-10,0,0,3.31109,5,12.038,2,2.0
1774391061969,0.122037,1.14155,0.137549,2.0668000000000003e-09,1.6710800000000004e-09,2.89796e-10,0,0,3.25864,5,12.051,2,2.0
1774391061982,0.119476,1.11256,0.132847,2.11559e-09,1.5975100000000004e-09,1.67222e-10,0,0,3.30062,5,12.064,2,2.0
1774391061996,0.115009,1.101,0.131778,1.9841200000000004e-09,1.5686600000000002e-09,1.0667400000000003e-10,0,0,3.48912,5,12.078,2,2.0
1774391062010,0.112285,1.10271,0.131086,1.9071200000000003e-09,1.5644300000000001e-09,6.861940000000001e-11,0,0,3.35827,5,12.092,2,2.0
1774391062023,0.112628,1.10646,0.130703,1.9720600000000003e-09,1.5451000000000004e-09,2.0024900000000007e-11,0,0,3.27888,5,12.105,2,2.0
1774391062036,0.114461,1.1057,0.131713,2.1345000000000004e-09,1.4970900000000005e-09,-6.37811e-11,0,0,3.2532,5,12.118,2,2.0
1774391062050,0.111559,1.10138,0.129466,2.3216500000000006e-09,1.45564e-09,-1.6630799999999998e-10,0,0,3.28738,5,12.132,2,2.0
1774391062063,0.109146,1.09311,0.126783,2.4667900000000003e-09,1.43847e-09,-2.2647400000000003e-10,0,0,3.25899,5,12.145,2,2.0
1774391062077,0.109284,1.08328,0.124003,2.5286400000000005e-09,1.4361900000000002e-09,-2.78855e-10,0,0,3.31007,5,12.159,2,2.0
1774391062090,0.109235,1.07658,0.121324,2.5264e-09,1.4061500000000002e-09,-3.14296e-10,0,0,3.27168,5,12.172,2,2.0
1774391062104,0.106316,1.07484,0.119019,2.5271400000000004e-09,1.3792200000000001e-09,-3.35888e-10,0,0,3.50273,5,12.186,2,2.0
1774391062117,0.105809,1.07324,0.116633,2.55332e-09,1.3408600000000003e-09,-3.3717199999999995e-10,0,0,3.27014,5,12.199,2,2.0
1774391062130,0.1021,1.07049,0.114575,2.5793199999999997e-09,1.3025999999999998e-09,-3.2690900000000005e-10,0,0,3.27299,5,12.212,2,2.0
1774391062144,0.100859,1.06811,0.112746,2.59902e-09,1.27715e-09,-2.96582e-10,0,0,3.29768,5,12.226,2,2.0
1774391062157,0.102054,1.06807,0.110666,2.6347400000000004e-09,1.2439600000000003e-09,-2.71169e-10,0,0,3.27805,5,12.239,2,2.0
1774391062171,0.101199,1.0701,0.107994,2.7034900000000006e-09,1.1974800000000003e-09,-2.1789200000000003e-10,0,0,3.27412,5,12.253,2,2.0
1774391062184,0.0974676,1.0781,0.105983,2.84168e-09,1.1585300000000001e-09,-9.335690000000002e-11,0,0,3.27518,5,12.266,2,2.0
1774391062198,0.0952977,1.08009,0.103964,3.0452200000000004e-09,1.12887e-09,3.01876e-11,0,0,3.67164,5,12.28,2,2.0
1774391062211,0.0934897,1.07909,0.100826,3.24538e-09,1.10567e-09,1.2316600000000002e-10,0,0,3.30307,5,12.293,2,2.0
1774391062225,0.094099,1.07405,0.0968335,3.38559e-09,1.08617e-09,1.6601300000000003e-10,0,0,3.25605,5,12.307,2,2.0
1774391062238,0.0940304,1.06882,0.0925987,3.4704100000000006e-09,1.05766e-09,1.9540900000000004e-10,0,0,3.30916,5,12.32,2,2.0
1774391062252,0.0937405,1.06767,0.088122,3.5271400000000007e-09,1.0277900000000002e-09,2.41911e-10,0,0,3.25853,5,12.334,2,2.0
1774391062265,0.0931644,1.06774,0.0840547,3.5600000000000005e-09,9.905610000000003e-10,2.9843500000000007e-10,0,0,3.29675,5,12.347,2,2.0
1774391062278,0.0926241,1.06814,0.0793004,3.5788600000000006e-09,9.453600000000001e-10,3.8737199999999994e-10,0,0,3.27533,5,12.36,2,2.0
1774391062292,0.0927481,1.06946,0.0749355,3.605050000000001e-09,9.016250000000001e-10,4.892180000000001e-10,0,0,3.28236,5,12.374,2,2.0
1774391062305,0.0928453,1.07097,0.0696191,3.6554200000000006e-09,8.636820000000002e-10,5.805550000000001e-10,0,0,3.30905,5,12.387,3,3.0
1774391062319,0.0926179,1.07282,0.0647594,3.7285300000000006e-09,8.265400000000001e-10,6.737920000000001e-10,0,0,3.49031,5,12.401,3,3.0
1774391062332,0.0937992,1.07351,0.0599414,3.81912e-09,7.930659999999999e-10,7.573450000000001e-10,0,0,3.28222,5,12.414,3,3.0
1774391062346,0.0952598,1.07246,0.0537113,3.92158e-09,7.459260000000001e-10,8.465740000000002e-10,0,0,3.27288,5,12.428,3,3.0
1774391062359,0.0960052,1.07012,0.0477642,4.00609e-09,6.97876e-10,9.3949e-10,0,0,3.27597,5,12.441,3,3.0
1774391062373,0.0984904,1.0671,0.0422481,4.068650000000001e-09,6.490540000000001e-10,1.0152000000000002e-09,0,0,3.27923,5,12.455,3,3.0
1774391062386,0.102063,1.06602,0.0359696,4.1234200000000015e-09,5.98217e-10,1.0710400000000003e-09,0,0,3.27773,5,12.468,3,3.0
1774391062399,0.105094,1.06551,0.0301044,4.191e-09,5.46935e-10,1.1127e-09,0,0,3.35262,5,12.481,3,3.0
1774391062413,0.109072,1.06363,0.0226059,4.270210000000002e-09,4.93947e-10,1.13554e-09,0,0,3.40051,5,12.495,3,3.0
1774391062426,0.110591,1.06143,0.0151898,4.342360000000001e-09,4.3262799999999997e-10,1.15453e-09,0,0,3.29277,5,12.508,3,3.0
1774391062440,0.111669,1.05921,0.00802333,4.4136700000000005e-09,3.8040000000000005e-10,1.1777200000000001e-09,0,0,3.25323,5,12.522,3,3.0
1774391062453,0.115039,1.05898,0.000657733,4.4824400000000005e-09,3.27505e-10,1.1943800000000002e-09,0,0,3.2957,5,12.535,3,3.0
1774391062467,0.119905,1.06041,-0.0061295,4.5732999999999995e-09,2.6935600000000006e-10,1.2028800000000003e-09,0,0,3.25605,5,12.549,3,3.0
1774391062480,0.122659,1.06101,-0.013378,4.68416e-09,2.08175e-10,1.1940200000000002e-09,0,0,3.29592,5,12.562,3,3.0
1774391062493,0.125409,1.06193,-0.0203095,4.7987300000000004e-09,1.44216e-10,1.1901600000000004e-09,0,0,3.25648,5,12.575,3,3.0
1774391062507,0.128541,1.06405,-0.0272474,4.932650000000001e-09,7.583790000000001e-11,1.18219e-09,0,0,3.28834,5,12.589,3,3.0
1774391062520,0.133863,1.06703,-0.032825,5.076110000000001e-09,-3.1773400000000003e-12,1.1815200000000003e-09,0,0,3.27318,5,12.602,3,3.0
1774391062534,0.138675,1.07225,-0.0370696,5.240240000000001e-09,-8.611010000000002e-11,1.1774600000000002e-09,0,0,3.44805,5,12.616,3,3.0
1774391062547,0.144398,1.07968,-0.0405626,5.42866e-09,-1.9689000000000006e-10,1.1735000000000001e-09,0,0,3.27533,5,12.629,3,3.0
1774391062561,0.151813,1.08899,-0.0427499,5.64551e-09,-3.2564900000000005e-10,1.15456e-09,0,0,3.25312,5,12.643,3,3.0
1774391062574,0.162791,1.10156,-0.0435709,5.90013e-09,-4.70179e-10,1.1216200000000001e-09,0,0,3.2802,5,12.656,3,3.0
1774391062587,0.175253,1.11536,-0.0409394,6.18675e-09,-6.657770000000001e-10,1.0718500000000002e-09,0,0,3.2546,5,12.669,3,3.0
1774391062601,0.186797,1.12712,-0.0357217,6.457980000000001e-09,-9.00673e-10,1.02419e-09,0,0,3.79092,5,12.683,3,3.0
1774391062615,0.195337,1.1368,-0.03259,6.69489e-09,-1.1632800000000001e-09,9.80567e-10,0,0,3.25364,3,12.697,3,3.0
1774391062628,0.201721,1.14504,-0.0326275,6.9025900000000015e-09,-1.4321900000000002e-09,9.069810000000001e-10,0,0,3.30342,3,12.71,3,3.0
1774391062641,0.2068,1.15211,-0.0393898,7.112040000000001e-09,-1.6947900000000005e-09,7.780050000000003e-10,0,0,3.26766,3,12.723,3,3.0
1774391062655,0.207793,1.1597,-0.0492836,7.312320000000001e-09,-1.94878e-09,6.043250000000001e-10,0,0,3.34942,3,12.737,3,3.0
1774391062668,0.206617,1.16604,-0.0640085,7.532780000000001e-09,-2.20617e-09,5.008460000000002e-10,0,0,3.27847,3,12.75,3,3.0
1774391062682,0.208119,1.17345,-0.0811857,7.851789999999999e-09,-2.45948e-09,4.64061e-10,0,0,3.24529,3,12.764,3,3.0
1774391062695,0.209951,1.17681,-0.0962985,8.32849e-09,-2.69225e-09,3.43701e-10,0,0,3.31468,3,12.777,3,3.0
1774391062709,0.218098,1.17405,-0.108295,8.89296e-09,-2.9483500000000005e-09,2.7702200000000006e-10,0,0,3.27057,3,12.791,3,3.0
1774391062722,0.231579,1.15876,-0.125585,9.39904e-09,-3.2601000000000004e-09,2.9942000000000004e-10,0,0,3.29257,3,12.804,3,3.0
1774391062735,0.24162,1.13644,-0.143902,9.712440000000001e-09,-3.5836900000000005e-09,2.388640000000001e-10,0,0,3.26933,3,12.817,4,4.0
1774391062749,0.250176,1.11398,-0.155386,9.819470000000001e-09,-3.902750000000001e-09,1.2788200000000002e-10,0,0,3.45668,3,12.831,4,4.0
1774391062762,0.251876,1.08443,-0.150747,9.794920000000002e-09,-4.232770000000001e-09,1.1050400000000001e-11,0,0,3.26777,3,12.844,4,4.0
1774391062776,0.251869,1.01463,-0.135272,9.967460000000002e-09,-4.556870000000001e-09,-3.290190000000001e-11,0,0,3.25372,3,12.858,4,4.0
1774391062789,0.250581,0.942164,-0.138431,1.00725e-08,-5.0467300000000004e-09,9.350300000000001e-11,0,0,3.27327,3,12.871,4,4.0
1774391062803,0.228796,0.87917,-0.126612,9.97438e-09,-5.46819e-09,2.58505e-10,0,0,3.65546,3,12.885,4,4.0
1774391062816,0.180044,0.832842,-0.0890121,9.343950000000001e-09,-5.446380000000001e-09,-7.585030000000001e-11,0,0,3.28031,3,12.898,4,4.0
1774391062830,0.129921,0.790686,-0.0724138,8.054819999999999e-09,-4.8977100000000005e-09,-1.05214e-09,0,0,3.26097,3,12.912,4,4.0
1774391062843,0.113605,0.743039,-0.0615917,6.35027e-09,-4.15845e-09,-1.8626900000000003e-09,0,0,3.30746,3,12.925,4,4.0
1774391062857,0.101217,0.722203,-0.0322699,4.590980000000001e-09,-3.37694e-09,-2.1017400000000002e-09,0,0,3.2699,3,12.939,4,4.0
1774391062870,0.11035,0.743544,-0.0118432,2.9303800000000004e-09,-2.5967899999999997e-09,-1.8693500000000004e-09,0,0,3.2569,3,12.952,4,4.0
