timestamp,ax,ay,az,gx,gy,gz,roll,pitch_k,acc_norm,gyro_norm,classe_prevista_raw,classe_prevista,delay_ms,tempo_s,Fase
1778187196097,-0.0078151,0.429668,-0.504888,0.199274,-0.136293,-0.0365215,126.922,0.614033,0.99419,0.414921,0,0,3.674,0.0,0
1778187196111,0.09,0.509,-0.603,0.236,-0.152,-0.166,133.221,-6.186,1.006,0.518,0,0,3.997,0.014,0
1778187196124,0.114,0.552,-0.641,0.26,-0.16,-0.186,134.807,-7.437,1.002,0.443,0,0,3.265,0.027,0
1778187196137,0.125,0.588,-0.653,0.286,-0.146,-0.139,134.705,-7.89,1.011,0.395,0,0,3.274,0.04,0
1778187196151,0.119,0.613,-0.654,0.319,-0.11,-0.077,134.206,-7.349,0.982,0.521,0,0,3.268,0.054,0
1778187196164,0.102,0.63,-0.652,0.358,-0.05,-0.034,133.702,-6.179,0.963,0.674,0,0,3.273,0.067,0
1778187196178,0.077,0.644,-0.648,0.4,0.036,-0.012,133.192,-4.428,0.961,0.91,0,0,3.276,0.081,0
1778187196191,0.064,0.654,-0.638,0.444,0.138,-0.005,132.439,-3.562,0.926,1.181,0,0,3.285,0.094,0
1778187196205,0.229,0.426,-0.544,0.302,0.216,0.247,103.791,-9.422,2.108,2.658,0,0,4.046,0.108,0
1778187196219,0.229,0.579,-0.549,0.233,0.263,0.309,104.184,-9.039,2.046,1.191,0,0,3.264,0.122,0
1778187196232,0.239,0.498,-0.567,0.149,0.298,0.338,72.774,-10.704,0.862,1.14,0,0,3.254,0.135,0
1778187196248,0.264,0.491,-0.592,0.059,0.307,0.345,82.109,-12.849,1.084,1.086,0,0,3.266,0.151,0
1778187196262,0.291,0.5,-0.59,-0.034,0.298,0.335,87.788,-15.34,1.03,1.161,0,0,3.256,0.165,0
1778187196275,0.3,0.533,-0.588,-0.116,0.276,0.339,91.387,-15.863,1.151,1.202,0,0,3.263,0.178,0
1778187196288,0.289,0.561,-0.584,-0.191,0.253,0.326,94.427,-15.076,1.062,1.198,0,0,3.252,0.191,0
1778187196302,0.291,0.611,-0.573,-0.256,0.225,0.316,95.919,-14.872,1.383,1.181,0,0,3.274,0.205,0
1778187196315,0.263,0.76,-0.56,-0.295,0.199,0.279,96.093,-13.102,2.85,0.933,0,0,3.254,0.218,0
1778187196328,0.244,0.778,-0.56,-0.327,0.173,0.249,98.366,-11.673,1.182,0.873,0,0,3.243,0.231,0
1778187196342,0.208,0.98,-0.491,-0.289,0.167,0.229,96.764,-10.035,4.05,0.342,0,0,3.255,0.245,0
1778187196355,0.185,0.966,-0.504,-0.274,0.158,0.226,100.359,-8.167,1.033,0.183,0,0,3.267,0.258,0
1778187196368,0.169,0.969,-0.505,-0.26,0.149,0.228,102.031,-6.878,1.148,0.255,0,0,3.269,0.271,0
1778187196382,0.155,0.972,-0.504,-0.244,0.146,0.232,103.37,-5.842,1.136,0.326,0,0,3.262,0.285,0
1778187196395,0.152,0.971,-0.505,-0.227,0.144,0.234,104.782,-5.808,1.101,0.306,0,0,3.261,0.298,0
1778187196408,0.147,0.965,-0.506,-0.214,0.143,0.234,106.391,-5.57,1.01,0.263,0,0,3.259,0.311,0
1778187196422,0.146,0.959,-0.507,-0.205,0.14,0.23,107.914,-5.754,1.007,0.179,0,0,3.247,0.325,0
1778187196435,0.146,0.953,-0.509,-0.198,0.134,0.222,109.296,-6.006,1.012,0.099,0,0,3.259,0.338,0
1778187196448,0.145,0.95,-0.509,-0.192,0.127,0.211,110.245,-6.136,1.045,0.08,0,0,3.239,0.351,0
1778187196462,0.14,0.95,-0.509,-0.186,0.12,0.199,111.032,-5.714,1.065,0.083,0,0,3.269,0.365,0
1778187196475,0.132,0.947,-0.509,-0.18,0.113,0.188,111.898,-5.064,1.042,0.071,0,0,3.256,0.378,0
1778187196489,0.126,0.946,-0.511,-0.174,0.106,0.178,112.694,-4.652,1.061,0.062,1,1,3.987,0.392,0
1778187196503,0.118,0.944,-0.511,-0.167,0.1,0.17,113.344,-4.103,1.054,0.039,1,1,3.776,0.406,0
1778187196516,0.113,0.944,-0.51,-0.161,0.095,0.162,113.765,-3.796,1.062,0.04,1,1,3.253,0.419,0
1778187196530,0.109,0.944,-0.511,-0.156,0.09,0.154,114.31,-3.579,1.078,0.045,1,1,3.294,0.433,0
1778187196543,0.105,0.944,-0.511,-0.15,0.085,0.146,114.728,-3.312,1.073,0.058,1,1,3.257,0.446,0
1778187196557,0.1,0.943,-0.511,-0.145,0.079,0.137,115.095,-3.031,1.069,0.066,1,1,4.026,0.46,0
1778187196571,0.095,0.943,-0.511,-0.14,0.074,0.13,115.453,-2.684,1.062,0.058,1,1,3.273,0.474,0
1778187196584,0.09,0.942,-0.512,-0.135,0.07,0.123,115.871,-2.434,1.056,0.049,1,1,3.29,0.487,0
1778187196598,0.085,0.94,-0.512,-0.13,0.066,0.117,116.212,-2.12,1.056,0.037,1,1,3.266,0.501,0
1778187196611,0.08,0.94,-0.512,-0.125,0.063,0.112,116.476,-1.78,1.058,0.02,1,1,3.262,0.514,0
1778187196624,0.076,0.939,-0.513,-0.12,0.06,0.108,116.775,-1.58,1.05,0.013,1,1,3.969,0.527,0
1778187196638,0.072,0.937,-0.513,-0.116,0.057,0.104,117.039,-1.348,1.043,0.012,1,1,3.266,0.541,0
1778187196652,0.069,0.936,-0.513,-0.111,0.054,0.1,117.278,-1.198,1.041,0.014,1,1,3.266,0.555,0
1778187196665,0.065,0.934,-0.513,-0.107,0.052,0.096,117.545,-1.082,1.037,0.014,1,1,3.51,0.568,0
1778187196679,0.063,0.933,-0.513,-0.103,0.049,0.092,117.703,-1.085,1.039,0.024,1,1,3.254,0.582,2
1778187196692,0.061,0.932,-0.513,-0.099,0.046,0.087,117.916,-1.02,1.049,0.035,1,1,3.914,0.595,2
1778187196706,0.059,0.931,-0.513,-0.095,0.043,0.083,118.047,-1.001,1.051,0.04,1,1,3.697,0.609,2
1778187196720,0.056,0.93,-0.513,-0.092,0.04,0.078,118.186,-0.923,1.042,0.043,1,1,3.274,0.623,2
1778187196733,0.053,0.929,-0.514,-0.088,0.037,0.075,118.328,-0.789,1.054,0.038,1,1,3.252,0.636,2
1778187196747,0.051,0.928,-0.514,-0.086,0.034,0.071,118.474,-0.69,1.049,0.04,1,1,3.268,0.65,2
1778187196760,0.048,0.927,-0.514,-0.083,0.032,0.068,118.595,-0.613,1.048,0.039,1,1,3.906,0.663,2
1778187196774,0.046,0.927,-0.515,-0.081,0.03,0.064,118.729,-0.531,1.05,0.043,1,1,3.285,0.677,2
1778187196787,0.044,0.926,-0.515,-0.079,0.027,0.061,118.79,-0.497,1.041,0.052,1,1,3.314,0.69,2
1778187196801,0.042,0.925,-0.515,-0.078,0.025,0.058,118.847,-0.439,1.043,0.06,1,1,3.259,0.704,2
1778187196814,0.04,0.924,-0.515,-0.077,0.024,0.055,118.94,-0.336,1.052,0.062,1,1,3.319,0.717,2
1778187196828,0.038,0.924,-0.515,-0.077,0.022,0.052,118.96,-0.264,1.04,0.065,2,2,3.922,0.731,2
1778187196842,0.034,0.923,-0.515,-0.076,0.021,0.051,119.014,-0.017,1.046,0.068,2,2,3.275,0.745,2
1778187196855,0.032,0.923,-0.514,-0.076,0.021,0.049,119.027,0.054,1.048,0.075,2,2,3.269,0.758,2
1778187196868,0.03,0.923,-0.514,-0.076,0.02,0.049,119.04,0.129,1.049,0.084,2,2,3.254,0.771,2
1778187196882,0.028,0.923,-0.514,-0.076,0.02,0.048,118.981,0.215,1.066,0.091,2,2,3.273,0.785,2
1778187196895,0.026,0.924,-0.513,-0.077,0.021,0.048,118.906,0.247,1.066,0.093,2,2,3.895,0.798,2
1778187196910,0.024,0.925,-0.513,-0.077,0.021,0.048,118.783,0.341,1.064,0.096,2,2,3.885,0.813,2
1778187196923,0.023,0.926,-0.512,-0.077,0.021,0.048,118.692,0.312,1.067,0.098,2,2,3.273,0.826,2
1778187196936,0.022,0.926,-0.511,-0.077,0.021,0.048,118.625,0.261,1.059,0.094,2,2,3.274,0.839,3
1778187196950,0.022,0.927,-0.511,-0.077,0.021,0.047,118.554,0.147,1.065,0.083,2,2,3.272,0.853,3
1778187196963,0.022,0.927,-0.51,-0.076,0.02,0.046,118.437,0.002,1.056,0.069,2,2,3.902,0.866,3
1778187196977,0.023,0.928,-0.509,-0.076,0.018,0.043,118.384,-0.203,1.06,0.064,2,2,3.313,0.88,3
1778187196991,0.023,0.928,-0.508,-0.074,0.017,0.039,118.254,-0.342,1.051,0.069,2,2,3.272,0.894,3
1778187197004,0.021,0.929,-0.506,-0.071,0.015,0.036,118.09,-0.21,1.053,0.068,2,2,3.286,0.907,3
1778187197017,0.019,0.929,-0.505,-0.067,0.014,0.033,118.012,-0.049,1.057,0.06,2,2,3.257,0.92,3
1778187197031,0.017,0.93,-0.504,-0.063,0.012,0.03,117.971,0.066,1.062,0.057,2,2,3.916,0.934,3
1778187197045,0.015,0.929,-0.504,-0.059,0.012,0.028,117.958,0.223,1.05,0.053,2,2,3.399,0.948,3
1778187197058,0.013,0.93,-0.503,-0.055,0.011,0.027,117.934,0.321,1.053,0.056,2,2,3.265,0.961,3
1778187197072,0.011,0.93,-0.503,-0.05,0.011,0.027,117.891,0.524,1.063,0.066,2,2,3.277,0.975,3
1778187197085,0.008,0.932,-0.502,-0.046,0.012,0.028,117.817,0.753,1.094,0.095,2,2,3.269,0.988,3
1778187197098,0.009,0.937,-0.499,-0.039,0.013,0.03,117.287,0.544,1.129,0.169,2,2,3.925,1.001,3
1778187197113,0.013,0.941,-0.498,-0.027,0.014,0.029,117.018,0.031,1.132,0.278,2,2,3.521,1.016,3
1778187197126,0.016,0.946,-0.497,-0.01,0.014,0.025,116.74,-0.434,1.172,0.429,2,2,3.252,1.029,3
1778187197139,0.013,0.961,-0.495,0.016,0.015,0.02,116.093,-0.111,1.364,0.716,2,2,3.299,1.042,3
1778187197153,0.033,1.035,-0.504,0.05,0.014,0.02,115.005,-1.033,2.773,0.908,2,2,3.29,1.056,3
1778187197166,0.033,1.046,-0.507,0.091,0.016,0.038,114.899,-1.104,1.422,1.268,3,3,3.955,1.069,3
1778187197180,0.031,1.084,-0.513,0.131,0.015,0.059,114.299,-0.973,2.001,1.304,3,3,3.268,1.083,4
1778187197194,0.013,1.115,-0.513,0.177,0.015,0.072,113.5,0.239,1.907,1.433,3,3,3.256,1.097,4
1778187197207,0.011,1.145,-0.511,0.232,0.014,0.086,112.69,0.322,1.859,1.714,3,3,3.299,1.11,4
1778187197220,0.008,1.174,-0.513,0.299,0.014,0.098,112.149,0.428,1.91,2.064,3,3,3.278,1.123,4
1778187197234,0.01,1.194,-0.508,0.374,0.014,0.107,111.298,0.261,1.674,2.344,3,3,3.997,1.137,4
1778187197248,0.012,1.208,-0.506,0.453,0.015,0.112,110.927,0.036,1.571,2.514,3,3,3.29,1.151,4
1778187197261,0.014,1.207,-0.506,0.529,0.015,0.116,111.143,-0.21,1.291,2.511,3,3,3.274,1.164,4
1778187197275,0.018,1.198,-0.508,0.603,0.014,0.122,111.88,-0.672,1.153,2.515,3,3,3.277,1.178,4
1778187197288,0.022,1.178,-0.512,0.673,0.012,0.117,113.519,-1.285,0.962,2.502,3,3,3.283,1.191,4
1778187197302,0.016,1.156,-0.513,0.738,0.014,0.122,114.892,-0.371,0.872,2.428,4,4,3.924,1.205,4
1778187197316,0.013,1.083,-0.488,0.774,0.017,0.141,96.143,0.024,0.514,1.816,4,4,3.623,1.219,4
1778187197329,0.016,1.028,-0.445,0.771,0.015,0.165,85.053,-0.777,0.534,1.068,4,4,3.27,1.232,5
1778187197343,0.021,0.996,-0.414,0.746,0.002,0.185,81.647,-2.313,0.422,0.786,4,4,3.276,1.246,5
1778187197356,0.011,0.958,-0.375,0.696,-0.015,0.198,75.253,0.1,0.531,0.917,4,4,3.259,1.259,5
1778187197369,0.0,0.944,-0.345,0.637,-0.036,0.208,74.23,1.853,0.742,1.172,4,4,3.945,1.272,5
1778187197384,-0.013,0.931,-0.317,0.575,-0.06,0.216,73.413,3.778,0.774,1.311,4,4,3.271,1.287,5
1778187197397,-0.025,0.916,-0.292,0.507,-0.084,0.221,72.672,5.861,0.7,1.472,4,4,3.265,1.3,5
1778187197410,-0.038,0.9,-0.269,0.433,-0.11,0.22,72.239,7.866,0.691,1.703,4,4,3.272,1.313,5
1778187197424,-0.051,0.888,-0.248,0.35,-0.134,0.218,72.226,9.629,0.734,1.965,4,4,3.26,1.327,5
1778187197437,-0.063,0.88,-0.231,0.259,-0.155,0.216,72.698,11.117,0.798,2.223,5,5,3.958,1.34,5
1778187197451,-0.076,0.88,-0.217,0.162,-0.172,0.212,73.843,12.109,0.947,2.436,5,5,3.282,1.354,5
1778187197465,-0.088,0.887,-0.209,0.063,-0.185,0.205,75.585,12.793,1.092,2.553,5,5,3.268,1.368,5
1778187197478,-0.1,0.899,-0.208,-0.033,-0.192,0.196,77.786,13.208,1.224,2.531,5,5,3.332,1.381,5
1778187197491,-0.11,0.914,-0.212,-0.124,-0.194,0.183,80.269,13.353,1.323,2.517,5,5,3.265,1.394,5
1778187197505,-0.117,0.933,-0.221,-0.212,-0.191,0.168,82.836,13.042,1.434,2.513,5,5,4.005,1.408,5
1778187197519,-0.117,0.955,-0.234,-0.297,-0.183,0.151,85.399,12.228,1.531,2.518,5,5,3.528,1.422,5
1778187197533,-0.113,0.979,-0.251,-0.379,-0.174,0.135,87.968,11.158,1.631,2.52,5,5,3.317,1.436,5
1778187197546,-0.107,1.007,-0.271,-0.458,-0.164,0.122,90.409,10.021,1.768,2.513,5,5,3.266,1.449,5
1778187197559,-0.103,1.039,-0.296,-0.534,-0.151,0.114,92.811,9.132,1.933,2.509,5,5,3.265,1.462,5
1778187197573,-0.099,1.073,-0.326,-0.607,-0.137,0.106,95.288,8.26,2.065,2.514,5,5,3.952,1.476,5
1778187197587,-0.11,1.177,-0.39,-0.67,-0.126,0.1,97.366,7.965,3.905,2.327,5,5,3.259,1.49,5
1778187197600,-0.099,1.187,-0.412,-0.734,-0.114,0.091,99.785,6.788,1.674,2.407,5,5,3.285,1.503,5
1778187197613,-0.08,1.194,-0.451,-0.795,-0.109,0.074,103.042,5.161,1.899,2.394,5,5,3.281,1.516,5
1778187197627,-0.048,1.205,-0.496,-0.837,-0.117,0.063,106.127,2.992,2.169,1.958,5,5,3.274,1.53,5
1778187197640,-0.013,1.206,-0.544,-0.858,-0.138,0.076,109.575,0.789,2.148,1.623,5,5,3.944,1.543,5
1778187197654,0.004,1.192,-0.593,-0.862,-0.169,0.104,113.631,-0.361,1.924,1.604,5,5,3.279,1.557,5
1778187197668,-0.005,1.172,-0.639,-0.852,-0.201,0.126,117.651,0.294,1.821,1.39,5,5,3.28,1.571,1
1778187197681,-0.026,1.156,-0.683,-0.827,-0.227,0.125,121.106,1.672,1.887,0.936,5,5,3.288,1.584,1
1778187197694,0.0,1.28,-0.758,-0.74,-0.256,0.105,121.08,0.842,4.694,1.86,5,5,3.286,1.597,1
1778187197708,0.011,1.259,-0.725,-0.649,-0.285,0.099,118.174,-0.955,0.831,2.024,5,5,3.946,1.611,1
1778187197722,0.007,1.252,-0.685,-0.564,-0.309,0.096,114.539,-0.4,1.123,1.884,5,5,3.781,1.625,1
1778187197736,0.004,1.247,-0.658,-0.476,-0.319,0.087,112.61,-0.051,1.136,1.905,5,5,3.29,1.639,1
1778187197749,-0.003,1.237,-0.638,-0.389,-0.314,0.076,111.495,0.651,1.063,1.882,5,5,3.265,1.652,1
1778187197763,-0.007,1.223,-0.623,-0.308,-0.296,0.064,111.179,1.184,0.965,1.822,5,5,3.27,1.666,1
1778187197776,-0.005,1.209,-0.615,-0.235,-0.277,0.05,111.621,0.889,0.988,1.691,5,5,3.944,1.679,1
1778187197790,-0.008,1.195,-0.606,-0.172,-0.262,0.039,111.907,1.209,0.986,1.497,5,5,3.518,1.693,1
1778187197804,-0.02,1.185,-0.597,-0.115,-0.248,0.035,112.018,2.453,1.081,1.373,5,5,3.307,1.707,1
1778187197817,-0.03,1.173,-0.589,-0.063,-0.232,0.038,112.234,3.557,1.035,1.298,5,5,3.268,1.72,1
1778187197830,-0.034,1.166,-0.58,-0.015,-0.214,0.045,112.052,3.87,1.094,1.29,5,5,3.294,1.733,1
1778187197844,-0.037,1.154,-0.579,0.031,-0.195,0.055,113.015,3.988,1.06,1.283,1,1,3.918,1.747,1
1778187197858,-0.034,1.142,-0.578,0.069,-0.18,0.063,113.868,3.493,1.042,1.117,1,1,3.272,1.761,1
1778187197871,-0.028,1.13,-0.576,0.1,-0.167,0.068,114.615,2.604,1.011,0.944,1,1,3.338,1.774,1
1778187197885,-0.025,1.122,-0.574,0.129,-0.156,0.069,115.074,2.133,1.081,0.885,1,1,3.267,1.788,1
1778187197898,-0.003,1.11,-0.574,0.135,-0.153,0.062,115.865,-0.393,1.14,0.346,1,1,3.27,1.801,2
1778187197911,0.003,1.103,-0.57,0.135,-0.15,0.056,116.019,-1.113,1.06,0.166,1,1,3.929,1.814,2
1778187197926,0.005,1.091,-0.569,0.134,-0.149,0.05,116.727,-1.229,1.014,0.192,1,1,3.312,1.829,2
1778187197939,0.008,1.086,-0.565,0.132,-0.148,0.044,116.669,-1.494,1.079,0.193,1,1,3.296,1.842,2
1778187197952,0.005,1.079,-0.564,0.131,-0.146,0.039,116.988,-0.997,1.064,0.155,1,1,3.26,1.855,2
1778187197966,0.001,1.072,-0.563,0.128,-0.142,0.036,117.358,-0.452,1.077,0.072,1,1,3.283,1.869,2
1778187197979,-0.007,1.065,-0.562,0.124,-0.136,0.037,117.564,0.415,1.075,0.067,1,1,3.933,1.882,2
1778187197993,-0.01,1.061,-0.56,0.122,-0.13,0.04,117.636,0.76,1.095,0.124,1,1,3.265,1.896,2
1778187198007,-0.012,1.056,-0.557,0.12,-0.123,0.043,117.663,0.962,1.088,0.166,1,1,3.335,1.91,2
1778187198020,-0.01,1.052,-0.555,0.118,-0.115,0.047,117.72,0.769,1.075,0.178,1,1,3.279,1.923,2
1778187198033,-0.01,1.045,-0.554,0.116,-0.109,0.049,117.953,0.718,1.046,0.142,1,1,3.279,1.936,2
1778187198047,-0.004,1.04,-0.553,0.115,-0.103,0.048,118.072,-0.016,1.077,0.081,1,1,3.919,1.95,2
1778187198061,-0.003,1.034,-0.552,0.112,-0.099,0.046,118.357,-0.111,1.043,0.055,1,1,3.266,1.964,2
1778187198074,-0.002,1.028,-0.551,0.11,-0.095,0.044,118.499,-0.132,1.052,0.046,1,1,3.318,1.977,2
1778187198088,-0.004,1.024,-0.549,0.107,-0.091,0.043,118.571,0.027,1.069,0.04,1,1,3.273,1.991,2
1778187198101,-0.004,1.02,-0.548,0.105,-0.086,0.042,118.618,0.093,1.068,0.061,1,1,3.275,2.004,2
1778187198114,-0.005,1.015,-0.547,0.102,-0.081,0.043,118.791,0.253,1.049,0.091,1,1,3.923,2.017,2
1778187198129,-0.006,1.011,-0.546,0.1,-0.076,0.046,118.852,0.377,1.067,0.132,1,1,3.283,2.032,2
1778187198142,-0.004,1.007,-0.545,0.098,-0.071,0.048,118.961,0.158,1.042,0.135,1,1,3.314,2.045,2
1778187198155,-0.003,1.001,-0.545,0.096,-0.067,0.05,119.16,-0.072,1.036,0.13,1,1,3.288,2.058,2
1778187198169,0.0,0.996,-0.544,0.094,-0.063,0.051,119.364,-0.364,1.025,0.096,1,1,3.27,2.072,2
1778187198182,0.004,0.992,-0.543,0.092,-0.059,0.051,119.378,-0.742,1.045,0.056,1,1,3.933,2.085,2
1778187198196,0.006,0.988,-0.541,0.089,-0.056,0.049,119.307,-1.039,1.039,0.031,1,1,3.264,2.099,2
1778187198210,0.008,0.985,-0.54,0.087,-0.054,0.046,119.37,-1.22,1.044,0.034,1,1,3.315,2.113,2
1778187198223,0.009,0.981,-0.54,0.084,-0.051,0.043,119.492,-1.249,1.053,0.042,1,1,3.265,2.126,2
1778187198236,0.01,0.978,-0.54,0.082,-0.049,0.041,119.567,-1.198,1.061,0.037,1,1,3.265,2.139,2
1778187198250,0.01,0.977,-0.539,0.08,-0.046,0.039,119.499,-1.131,1.082,0.042,1,1,3.919,2.153,2
1778187198264,0.01,0.974,-0.538,0.079,-0.044,0.037,119.554,-1.121,1.057,0.039,1,1,3.256,2.167,2
1778187198277,0.01,0.972,-0.538,0.077,-0.042,0.035,119.614,-1.112,1.057,0.042,1,1,3.321,2.18,2
1778187198290,0.011,0.97,-0.538,0.075,-0.039,0.033,119.593,-1.104,1.072,0.041,1,1,3.278,2.193,3
1778187198304,0.012,0.967,-0.537,0.074,-0.037,0.031,119.654,-1.198,1.044,0.045,1,1,3.437,2.207,3
1778187198317,0.013,0.965,-0.537,0.073,-0.035,0.029,119.661,-1.265,1.071,0.052,2,2,3.93,2.22,3
1778187198331,0.013,0.963,-0.537,0.071,-0.034,0.027,119.748,-1.247,1.052,0.054,2,2,3.28,2.234,3
1778187198345,0.013,0.962,-0.536,0.071,-0.032,0.025,119.676,-1.187,1.079,0.06,2,2,3.292,2.248,3
1778187198358,0.013,0.959,-0.536,0.07,-0.03,0.023,119.725,-1.106,1.048,0.058,2,2,3.266,2.261,3
1778187198372,0.013,0.953,-0.538,0.07,-0.028,0.022,120.293,-1.03,1.0,0.067,2,2,3.267,2.275,3
1778187198385,0.013,0.954,-0.537,0.071,-0.026,0.022,120.081,-1.0,1.112,0.103,2,2,3.929,2.288,3
1778187198399,0.011,0.956,-0.538,0.073,-0.025,0.023,120.009,-0.798,1.131,0.13,2,2,3.27,2.302,3
1778187198412,0.012,0.957,-0.538,0.076,-0.023,0.026,119.828,-0.827,1.124,0.187,2,2,3.319,2.315,3
1778187198426,0.011,0.958,-0.537,0.081,-0.021,0.03,119.651,-0.731,1.113,0.273,2,2,3.269,2.329,3
1778187198439,0.012,0.963,-0.536,0.091,-0.019,0.036,119.328,-0.846,1.193,0.388,2,2,3.271,2.342,3
1778187198452,0.012,0.97,-0.536,0.104,-0.017,0.041,118.914,-0.782,1.24,0.47,3,3,3.951,2.355,3
1778187198467,0.015,0.979,-0.537,0.119,-0.015,0.04,118.589,-1.029,1.309,0.511,3,3,3.291,2.37,3
1778187198480,0.015,0.982,-0.539,0.136,-0.012,0.04,118.668,-1.077,1.186,0.589,3,3,3.284,2.383,3
1778187198493,0.018,0.984,-0.54,0.154,-0.009,0.041,118.667,-1.355,1.191,0.643,3,3,3.262,2.396,3
1778187198507,0.018,0.986,-0.542,0.173,-0.005,0.045,118.715,-1.307,1.17,0.673,3,3,3.263,2.41,3
1778187198520,0.016,0.991,-0.544,0.192,-0.002,0.051,118.729,-1.035,1.251,0.721,3,3,3.947,2.423,3
1778187198534,0.02,1.003,-0.548,0.211,0.001,0.058,118.513,-1.321,1.416,0.759,3,3,3.266,2.437,3
1778187198547,0.021,1.019,-0.55,0.232,0.003,0.062,118.044,-1.41,1.504,0.799,3,3,3.264,2.45,3
1778187198561,0.019,1.03,-0.553,0.256,0.005,0.067,117.818,-1.164,1.415,0.896,3,3,3.296,2.464,3
1778187198574,0.016,1.041,-0.556,0.284,0.008,0.075,117.637,-0.846,1.411,1.048,3,3,3.255,2.477,3
1778187198588,0.012,1.051,-0.558,0.317,0.011,0.084,117.446,-0.449,1.416,1.22,3,3,3.957,2.491,3
1778187198602,0.011,1.064,-0.56,0.356,0.014,0.095,117.112,-0.366,1.479,1.422,3,3,3.261,2.505,3
1778187198615,0.013,1.081,-0.56,0.402,0.017,0.104,116.504,-0.578,1.563,1.644,3,3,3.277,2.518,4
1778187198628,0.022,1.1,-0.561,0.456,0.018,0.112,115.983,-1.222,1.622,1.891,3,3,3.266,2.531,4
1778187198642,0.029,1.119,-0.56,0.52,0.018,0.117,115.388,-1.742,1.646,2.192,3,3,3.266,2.545,4
1778187198655,0.039,1.145,-0.561,0.594,0.016,0.119,114.779,-2.329,1.83,2.506,3,3,3.966,2.558,4
1778187198669,0.05,1.175,-0.566,0.665,0.014,0.116,114.302,-2.937,1.97,2.502,3,3,3.276,2.572,4
1778187198683,0.068,1.198,-0.571,0.733,0.008,0.108,114.113,-3.988,1.887,2.506,3,3,3.287,2.586,4
1778187198696,0.076,1.224,-0.584,0.798,0.003,0.097,114.273,-4.256,2.007,2.511,3,3,3.268,2.599,4
1778187198709,0.089,1.237,-0.599,0.861,-0.005,0.095,114.924,-5.022,1.832,2.511,3,3,3.25,2.612,4
1778187198723,0.088,1.267,-0.611,0.922,-0.011,0.085,114.87,-4.717,2.108,2.515,4,4,4.038,2.626,4
1778187198737,0.089,1.279,-0.615,0.981,-0.014,0.087,114.792,-4.593,1.697,2.507,4,4,3.269,2.64,4
1778187198750,0.093,1.287,-0.603,1.037,-0.017,0.105,113.739,-4.8,1.505,2.566,4,4,3.257,2.653,4
1778187198764,0.1,1.299,-0.574,1.091,-0.025,0.131,111.281,-5.222,1.587,2.643,4,4,3.3,2.667,4
1778187198777,0.116,1.287,-0.543,1.144,-0.04,0.158,108.471,-7.046,1.145,2.675,4,4,3.257,2.68,4
1778187198791,0.121,1.217,-0.535,1.194,-0.061,0.169,84.916,-8.765,0.534,2.617,4,4,3.928,2.694,4
1778187198805,0.112,1.148,-0.525,1.224,-0.083,0.167,64.491,-6.969,0.499,2.099,4,4,3.269,2.708,5
1778187198818,0.093,1.073,-0.512,1.212,-0.097,0.151,47.711,-3.59,0.685,1.06,4,4,3.266,2.721,5
1778187198831,0.075,1.006,-0.496,1.163,-0.105,0.123,33.005,-0.225,0.571,0.684,4,4,3.299,2.734,5
1778187198845,0.06,0.956,-0.479,1.085,-0.106,0.095,17.635,5.315,0.341,1.146,4,4,3.261,2.748,5
1778187198858,0.047,0.909,-0.462,0.984,-0.103,0.074,3.723,10.293,0.261,1.715,4,4,3.94,2.761,5
1778187198872,0.041,0.856,-0.441,0.857,-0.097,0.058,-5.039,10.826,0.325,2.474,4,4,3.32,2.775,5
1778187198886,0.043,0.81,-0.418,0.732,-0.095,0.042,-10.714,7.787,0.234,2.53,4,4,3.272,2.789,5
1778187198899,0.042,0.785,-0.395,0.612,-0.099,0.032,-3.204,6.939,0.273,2.517,4,4,3.299,2.802,5
1778187198912,0.041,0.775,-0.373,0.497,-0.107,0.033,4.551,5.901,0.567,2.523,4,4,3.276,2.815,5
1778187198926,0.041,0.775,-0.353,0.386,-0.12,0.043,12.053,5.092,0.78,2.563,4,4,3.932,2.829,5
1778187198940,0.039,0.784,-0.342,0.278,-0.138,0.063,19.996,4.616,0.992,2.637,4,4,3.308,2.843,5
1778187198953,0.038,0.788,-0.335,0.175,-0.161,0.081,27.904,4.133,0.879,2.671,4,4,3.258,2.856,5
1778187198967,0.032,0.786,-0.33,0.076,-0.187,0.092,35.341,4.358,0.792,2.677,4,4,3.274,2.87,5
1778187198980,0.023,0.791,-0.327,-0.019,-0.215,0.096,42.105,4.966,0.951,2.679,4,4,3.279,2.883,5
1778187198993,0.012,0.801,-0.328,-0.112,-0.241,0.1,48.467,5.612,1.107,2.674,5,5,3.914,2.896,5
1778187199007,-0.002,0.821,-0.337,-0.2,-0.262,0.108,54.605,6.316,1.387,2.645,5,5,3.305,2.91,5
1778187199021,-0.02,0.848,-0.352,-0.286,-0.275,0.115,60.372,7.101,1.647,2.593,5,5,3.25,2.924,5
1778187199034,-0.041,0.872,-0.373,-0.368,-0.275,0.117,66.104,8.045,1.714,2.522,5,5,3.257,2.937,5
1778187199048,-0.061,0.891,-0.397,-0.447,-0.261,0.111,71.761,8.955,1.668,2.504,5,5,3.267,2.951,5
1778187199061,-0.076,0.912,-0.423,-0.523,-0.233,0.098,76.869,9.35,1.722,2.56,5,5,3.895,2.964,5
1778187199075,-0.081,0.937,-0.45,-0.596,-0.194,0.083,81.46,9.075,1.851,2.654,5,5,3.269,2.978,5
1778187199088,-0.079,0.966,-0.486,-0.667,-0.146,0.072,85.944,8.266,2.024,2.733,5,5,3.306,2.991,5
1778187199102,-0.07,0.996,-0.528,-0.735,-0.095,0.07,90.254,7.163,2.215,2.788,5,5,3.254,3.005,5
1778187199115,-0.06,1.028,-0.58,-0.801,-0.044,0.072,94.482,6.138,2.434,2.813,5,5,3.297,3.018,5
1778187199128,-0.051,1.059,-0.639,-0.864,0.004,0.068,98.627,5.27,2.61,2.795,5,5,3.876,3.031,5
1778187199143,-0.045,1.084,-0.709,-0.92,0.046,0.057,102.923,4.571,2.763,2.65,5,5,3.846,3.046,5
1778187199156,-0.035,1.1,-0.782,-0.954,0.084,0.038,107.283,3.772,2.787,2.167,5,5,3.252,3.059,5
1778187199170,-0.005,1.107,-0.848,-0.962,0.113,0.015,111.437,2.106,2.691,1.565,5,5,3.267,3.073,1
1778187199183,0.033,1.088,-0.924,-0.95,0.125,0.013,116.587,0.199,2.814,0.787,5,5,3.276,3.086,1
1778187199196,0.062,1.066,-0.997,-0.921,0.121,0.031,121.429,-1.229,2.76,0.532,5,5,3.885,3.099,1
1778187199211,0.068,1.047,-1.06,-0.887,0.101,0.068,125.606,-1.519,2.519,1.087,5,5,3.31,3.114,1
1778187199224,0.079,1.069,-0.934,-0.79,0.088,0.084,117.505,-2.107,2.428,1.821,5,5,3.317,3.127,1
1778187199237,0.079,1.082,-0.859,-0.687,0.065,0.088,112.051,-2.186,1.57,2.066,5,5,3.268,3.14,1
1778187199251,0.077,1.082,-0.82,-0.568,0.046,0.084,109.868,-2.167,1.075,2.54,5,5,3.274,3.154,1
1778187199264,0.063,1.074,-0.798,-0.454,0.042,0.08,109.792,-0.578,0.979,2.503,5,5,3.914,3.167,1
1778187199278,0.048,1.058,-0.792,-0.349,0.045,0.075,111.982,1.062,1.003,2.387,5,5,3.267,3.181,1
1778187199292,0.045,1.044,-0.788,-0.263,0.048,0.071,114.059,1.088,1.034,1.972,5,5,3.321,3.195,1
1778187199305,0.037,1.029,-0.79,-0.194,0.05,0.071,116.506,1.637,1.104,1.607,5,5,3.259,3.208,1
1778187199318,0.035,1.011,-0.792,-0.145,0.049,0.072,119.074,1.547,1.019,1.139,5,5,3.27,3.221,1
1778187199332,0.025,0.997,-0.788,-0.111,0.052,0.075,120.669,2.418,1.018,0.797,1,1,3.949,3.235,1
1778187199346,0.022,0.99,-0.779,-0.085,0.057,0.08,121.009,2.429,1.016,0.645,1,1,3.679,3.249,1
1778187199360,0.018,0.985,-0.769,-0.062,0.061,0.084,121.104,2.521,1.022,0.582,1,1,3.279,3.263,1
1778187199373,0.026,0.958,-0.775,-0.049,0.061,0.085,124.611,1.219,1.004,0.316,1,1,3.275,3.276,1
1778187199386,0.018,0.957,-0.765,-0.041,0.061,0.084,124.207,1.865,1.104,0.185,1,1,3.268,3.289,2
1778187199400,0.025,0.954,-0.756,-0.034,0.058,0.08,123.962,0.816,1.062,0.151,1,1,3.947,3.303,2
1778187199414,0.025,0.952,-0.746,-0.03,0.055,0.075,123.645,0.643,1.054,0.108,1,1,3.279,3.317,2
1778187199427,0.027,0.952,-0.735,-0.025,0.05,0.067,123.096,0.187,1.075,0.17,1,1,3.264,3.33,2
1778187199440,0.023,0.952,-0.725,-0.021,0.046,0.06,122.545,0.446,1.073,0.165,1,1,3.261,3.343,2
1778187199454,0.019,0.953,-0.716,-0.017,0.042,0.055,122.123,0.751,1.1,0.141,1,1,3.26,3.357,2
1778187199467,0.015,0.953,-0.708,-0.012,0.039,0.051,121.855,1.097,1.095,0.112,1,1,3.919,3.37,2
1778187199481,0.009,0.951,-0.7,-0.008,0.038,0.05,121.701,1.523,1.077,0.091,1,1,3.266,3.384,2
1778187199495,0.007,0.95,-0.693,-0.005,0.037,0.049,121.516,1.659,1.067,0.096,1,1,3.267,3.398,2
1778187199508,0.005,0.949,-0.685,-0.002,0.037,0.049,121.353,1.624,1.053,0.095,1,1,3.277,3.411,2
1778187199521,0.006,0.948,-0.677,0.002,0.036,0.048,121.067,1.381,1.053,0.088,1,1,3.254,3.424,2
1778187199535,0.005,0.946,-0.671,0.004,0.035,0.046,121.03,1.339,1.052,0.081,1,1,3.883,3.438,2
1778187199549,0.005,0.945,-0.664,0.007,0.034,0.044,120.837,1.136,1.053,0.08,1,1,3.632,3.452,2
1778187199562,0.005,0.943,-0.659,0.01,0.033,0.042,120.821,1.091,1.057,0.074,1,1,3.249,3.465,2
1778187199576,0.004,0.941,-0.653,0.012,0.031,0.039,120.769,1.055,1.036,0.068,1,1,3.278,3.479,2
1778187199589,0.003,0.939,-0.648,0.013,0.03,0.036,120.793,1.006,1.042,0.059,1,1,3.259,3.492,2
1778187199603,0.002,0.938,-0.642,0.014,0.029,0.034,120.696,0.994,1.05,0.061,1,1,3.879,3.506,2
1778187199617,0.001,0.936,-0.637,0.016,0.027,0.032,120.7,1.007,1.037,0.061,1,1,3.297,3.52,2
1778187199630,0.0,0.934,-0.633,0.017,0.026,0.03,120.706,1.014,1.038,0.056,1,1,3.256,3.533,2
1778187199643,-0.001,0.932,-0.629,0.018,0.026,0.029,120.769,1.119,1.049,0.048,1,1,3.266,3.546,2
1778187199657,-0.003,0.931,-0.625,0.02,0.025,0.028,120.79,1.184,1.056,0.048,1,1,3.263,3.56,2
1778187199670,-0.004,0.929,-0.621,0.02,0.025,0.027,120.837,1.257,1.047,0.047,1,1,3.853,3.573,3
1778187199684,-0.005,0.928,-0.618,0.021,0.024,0.027,120.824,1.29,1.055,0.055,1,1,3.285,3.587,3
1778187199697,-0.006,0.929,-0.614,0.023,0.024,0.028,120.678,1.32,1.076,0.077,1,1,3.254,3.6,3
1778187199711,-0.008,0.929,-0.611,0.025,0.024,0.029,120.614,1.414,1.085,0.095,1,1,3.261,3.614,3
1778187199724,-0.009,0.928,-0.608,0.027,0.024,0.03,120.615,1.452,1.058,0.103,1,1,3.305,3.627,3
1778187199737,-0.01,0.929,-0.605,0.03,0.025,0.032,120.533,1.479,1.087,0.137,5,5,3.871,3.64,3
1778187199751,-0.01,0.929,-0.601,0.033,0.025,0.034,120.437,1.365,1.072,0.162,5,5,3.263,3.654,3
1778187199765,-0.013,0.929,-0.6,0.037,0.026,0.038,120.589,1.666,1.089,0.209,5,5,3.275,3.668,3
1778187199778,-0.016,0.929,-0.598,0.043,0.027,0.044,120.604,1.889,1.084,0.273,5,5,3.252,3.681,3
1778187199792,-0.016,0.935,-0.595,0.05,0.029,0.05,120.206,1.826,1.202,0.32,5,5,3.28,3.695,3
1778187199805,-0.014,0.938,-0.594,0.058,0.03,0.055,120.193,1.483,1.149,0.323,5,5,3.871,3.708,3
1778187199819,-0.014,0.938,-0.593,0.067,0.033,0.059,120.265,1.397,1.103,0.376,5,5,3.268,3.722,3
1778187199832,-0.014,0.94,-0.592,0.078,0.036,0.064,120.226,1.349,1.125,0.421,5,5,3.301,3.735,3
1778187199846,-0.014,0.942,-0.592,0.091,0.039,0.069,120.297,1.233,1.143,0.485,5,5,3.268,3.749,3
1778187199859,-0.012,0.946,-0.591,0.107,0.041,0.072,120.163,0.992,1.19,0.549,5,5,3.263,3.762,3
1778187199872,-0.008,0.949,-0.59,0.125,0.044,0.077,120.11,0.591,1.164,0.639,5,5,3.886,3.775,3
1778187199886,-0.006,0.954,-0.59,0.145,0.048,0.082,120.013,0.3,1.222,0.702,5,5,3.27,3.789,3
1778187199900,-0.002,0.958,-0.591,0.165,0.05,0.087,120.002,-0.11,1.219,0.728,5,5,3.285,3.803,3
1778187199913,0.005,0.969,-0.594,0.184,0.05,0.087,119.873,-0.699,1.373,0.701,5,5,3.253,3.816,3
1778187199927,0.006,0.975,-0.596,0.203,0.049,0.087,119.891,-0.737,1.292,0.702,5,5,3.266,3.83,3
1778187199940,0.008,0.985,-0.599,0.224,0.047,0.087,119.806,-0.89,1.361,0.774,5,5,3.917,3.843,3
1778187199954,0.01,0.994,-0.601,0.25,0.045,0.086,119.696,-0.999,1.358,0.906,5,5,3.289,3.857,3
1778187199967,0.009,1.004,-0.602,0.278,0.043,0.088,119.442,-0.897,1.384,1.033,5,5,3.274,3.87,3
1778187199981,0.008,1.014,-0.604,0.312,0.04,0.091,119.251,-0.729,1.397,1.19,5,5,3.281,3.884,4
1778187199994,0.007,1.028,-0.605,0.351,0.038,0.095,118.899,-0.61,1.466,1.378,5,5,3.259,3.897,4
1778187200008,0.01,1.043,-0.606,0.396,0.035,0.099,118.449,-0.83,1.495,1.589,5,5,4.027,3.911,4
1778187200022,0.014,1.064,-0.603,0.452,0.034,0.102,117.635,-1.099,1.627,1.904,5,5,3.271,3.925,4
1778187200035,0.022,1.087,-0.603,0.518,0.031,0.104,116.978,-1.652,1.714,2.244,5,5,3.266,3.938,4
1778187200049,0.031,1.116,-0.603,0.592,0.028,0.103,116.221,-2.128,1.876,2.503,5,5,3.284,3.952,4
1778187200062,0.042,1.148,-0.606,0.662,0.022,0.099,115.603,-2.7,1.978,2.505,5,5,3.273,3.965,4
1778187200075,0.051,1.175,-0.613,0.731,0.014,0.095,115.416,-3.168,1.942,2.508,3,3,3.911,3.978,4
1778187200089,0.055,1.199,-0.625,0.796,0.008,0.098,115.568,-3.277,1.936,2.511,3,3,3.299,3.992,4
1778187200103,0.062,1.215,-0.642,0.86,-0.001,0.106,116.262,-3.59,1.881,2.533,3,3,3.263,4.006,4
1778187200116,0.058,1.235,-0.656,0.92,-0.007,0.117,116.637,-3.111,1.925,2.539,3,3,3.294,4.019,4
1778187200130,0.056,1.233,-0.66,0.979,-0.01,0.15,117.13,-2.86,1.419,2.701,3,3,3.263,4.033,4
1778187200143,0.062,1.241,-0.646,1.035,-0.017,0.2,115.798,-3.323,1.464,2.91,4,4,3.855,4.046,4
1778187200157,0.067,1.244,-0.615,1.09,-0.033,0.251,113.113,-3.802,1.328,2.997,4,4,3.302,4.06,4
1778187200170,0.069,1.215,-0.585,1.142,-0.059,0.288,110.356,-4.489,0.586,2.891,4,4,3.266,4.073,4
1778187200184,0.066,1.133,-0.573,1.184,-0.087,0.286,88.997,-4.062,0.732,2.405,4,4,3.262,4.087,4
1778187200197,0.051,1.042,-0.56,1.177,-0.112,0.265,70.43,-2.138,1.012,1.3,4,4,3.318,4.1,5
1778187200210,0.03,0.979,-0.548,1.134,-0.124,0.234,51.855,2.068,0.661,0.718,4,4,3.882,4.113,5
1778187200224,0.014,0.933,-0.533,1.064,-0.126,0.206,31.37,7.16,0.391,0.928,4,4,3.268,4.127,5
1778187200238,0.003,0.894,-0.516,0.978,-0.121,0.183,44.46,11.853,0.278,1.318,4,4,3.263,4.141,5
1778187200251,-0.002,0.862,-0.499,0.882,-0.11,0.164,52.14,13.76,0.243,1.668,4,4,3.262,4.154,5
1778187200265,-0.004,0.835,-0.481,0.779,-0.099,0.144,57.973,13.404,0.258,1.943,4,4,3.274,4.168,5
1778187200278,-0.002,0.803,-0.465,0.668,-0.091,0.123,65.441,10.786,0.165,2.236,4,4,3.875,4.181,5
1778187200292,0.002,0.77,-0.452,0.551,-0.088,0.102,74.376,6.901,0.186,2.54,4,4,3.263,4.195,5
1778187200305,0.006,0.742,-0.439,0.438,-0.093,0.083,80.687,3.992,0.223,2.544,4,4,3.291,4.208,5
1778187200319,0.009,0.724,-0.428,0.329,-0.103,0.067,84.42,2.447,0.374,2.549,4,4,3.255,4.222,5
1778187200332,0.011,0.716,-0.42,0.224,-0.116,0.059,87.396,1.806,0.612,2.547,4,4,3.265,4.235,5
1778187200346,0.011,0.714,-0.418,0.123,-0.13,0.058,90.296,1.505,0.765,2.552,4,4,3.952,4.249,5
1778187200360,0.008,0.714,-0.421,0.025,-0.143,0.061,93.59,1.689,0.871,2.55,4,4,3.26,4.263,5
1778187200373,0.002,0.716,-0.43,-0.068,-0.153,0.062,96.98,2.286,0.987,2.536,4,4,3.267,4.276,5
1778187200387,-0.008,0.72,-0.442,-0.159,-0.158,0.058,100.22,3.184,1.091,2.519,4,4,3.287,4.29,5
1778187200400,-0.019,0.727,-0.456,-0.246,-0.157,0.043,103.161,4.07,1.196,2.531,4,4,3.274,4.303,5
1778187200413,-0.029,0.739,-0.472,-0.329,-0.15,0.017,105.7,4.727,1.317,2.586,5,5,3.963,4.316,5
1778187200427,-0.036,0.757,-0.49,-0.41,-0.134,-0.013,107.746,4.946,1.466,2.634,5,5,3.28,4.33,5
1778187200441,-0.036,0.776,-0.508,-0.487,-0.111,-0.04,109.601,4.629,1.496,2.652,5,5,3.257,4.344,5
1778187200454,-0.029,0.792,-0.525,-0.562,-0.084,-0.063,111.325,3.739,1.454,2.66,5,5,3.292,4.357,5
1778187200467,-0.018,0.81,-0.539,-0.634,-0.055,-0.081,112.664,2.556,1.498,2.659,5,5,3.257,4.37,5
1778187200481,-0.004,0.831,-0.553,-0.703,-0.024,-0.093,113.716,1.241,1.571,2.648,5,5,3.89,4.384,5
1778187200495,0.011,0.857,-0.569,-0.77,0.006,-0.098,114.539,0.058,1.726,2.636,5,5,3.263,4.398,5
1778187200508,0.024,0.888,-0.587,-0.834,0.036,-0.097,115.27,-0.829,1.88,2.633,5,5,3.265,4.411,5
1778187200522,0.034,0.919,-0.609,-0.896,0.066,-0.091,116.11,-1.493,1.944,2.636,5,5,3.268,4.425,5
1778187200535,0.04,0.952,-0.635,-0.956,0.094,-0.08,117.086,-1.757,2.066,2.641,5,5,3.257,4.438,5
1778187200548,0.039,0.983,-0.669,-1.013,0.121,-0.066,118.291,-1.674,2.18,2.648,5,5,3.891,4.451,5
1778187200562,0.04,1.011,-0.707,-1.068,0.144,-0.055,119.772,-1.632,2.244,2.609,5,5,3.279,4.465,5
1778187200576,0.054,1.028,-0.749,-1.105,0.157,-0.05,121.669,-2.392,2.198,2.129,5,5,3.256,4.479,1
1778187200589,0.078,1.037,-0.795,-1.124,0.152,-0.041,123.932,-3.636,2.269,1.63,5,5,3.27,4.492,1
1778187200603,0.096,1.038,-0.843,-1.123,0.131,-0.019,126.486,-4.485,2.223,1.303,5,5,3.288,4.506,1
1778187200616,0.094,1.027,-0.889,-1.107,0.101,0.012,129.489,-4.182,2.061,1.273,5,5,3.861,4.519,1
1778187200630,0.071,1.01,-0.933,-1.075,0.069,0.035,132.477,-2.628,2.046,1.016,5,5,3.279,4.533,1
1778187200643,0.04,0.997,-0.972,-1.027,0.042,0.036,135.008,-0.696,2.052,0.715,5,5,3.262,4.546,1
1778187200657,0.016,0.988,-1.005,-0.963,0.019,0.019,136.94,0.824,1.963,0.989,5,5,3.257,4.56,1
1778187200671,0.004,0.982,-1.029,-0.889,0.004,0.022,138.278,1.543,1.805,1.106,5,5,3.893,4.574,1
1778187200684,0.059,1.063,-0.834,-0.794,-0.028,0.025,128.869,-0.125,4.63,1.873,1,1,3.893,4.587,1
1778187200698,0.057,1.073,-0.775,-0.679,-0.065,0.02,123.15,-0.12,1.387,2.549,1,1,3.256,4.601,1
1778187200711,0.043,1.06,-0.755,-0.561,-0.09,0.013,122.02,1.597,0.87,2.592,1,1,3.304,4.614,1
1778187200725,0.025,1.055,-0.736,-0.453,-0.099,0.01,120.733,3.354,1.071,2.377,1,1,3.255,4.628,1
1778187200738,0.024,1.041,-0.728,-0.358,-0.103,0.006,121.376,3.001,0.923,2.12,1,1,3.263,4.641,1
1778187200752,0.01,1.029,-0.723,-0.278,-0.1,0.003,122.024,4.34,1.021,1.81,1,1,3.891,4.655,1
1778187200766,-0.003,1.019,-0.716,-0.21,-0.09,0.006,122.343,5.401,1.026,1.561,1,1,3.256,4.669,1
1778187200779,-0.005,1.013,-0.71,-0.153,-0.082,0.009,122.505,5.187,1.049,1.351,1,1,3.258,4.682,1
1778187200792,-0.004,0.991,-0.713,-0.109,-0.075,0.015,124.75,4.524,0.923,1.06,1,1,3.284,4.695,1
1778187200806,-0.007,0.986,-0.71,-0.073,-0.066,0.022,124.934,4.535,1.094,0.879,1,1,3.255,4.709,1
1778187200819,-0.009,0.982,-0.701,-0.046,-0.056,0.029,124.365,4.346,1.032,0.739,1,1,3.975,4.722,1
1778187200833,-0.012,0.98,-0.692,-0.021,-0.046,0.037,123.725,4.359,1.056,0.684,1,1,3.277,4.736,1
1778187200846,-0.007,0.957,-0.695,-0.007,-0.041,0.042,126.176,3.268,0.888,0.404,1,1,3.26,4.749,1
1778187200860,-0.011,0.95,-0.691,-0.001,-0.038,0.046,126.33,3.504,1.02,0.225,1,1,3.275,4.763,2
1778187200873,-0.007,0.947,-0.685,0.003,-0.036,0.048,125.846,2.766,1.042,0.153,1,1,3.313,4.776,2
1778187200887,-0.003,0.946,-0.678,0.007,-0.035,0.048,125.282,2.029,1.076,0.105,1,1,3.883,4.79,2
1778187200901,0.001,0.947,-0.67,0.009,-0.034,0.046,124.479,1.436,1.078,0.075,1,1,3.271,4.804,2
1778187200914,0.002,0.947,-0.663,0.012,-0.033,0.043,123.932,1.11,1.071,0.095,1,1,3.294,4.817,2
1778187200927,0.001,0.947,-0.657,0.014,-0.032,0.04,123.479,1.173,1.085,0.083,1,1,3.253,4.83,2
1778187200941,-0.002,0.947,-0.651,0.017,-0.031,0.04,123.048,1.33,1.085,0.086,1,1,3.271,4.844,2
1778187200954,-0.003,0.946,-0.645,0.02,-0.028,0.04,122.693,1.393,1.06,0.106,1,1,3.885,4.857,2
1778187200968,-0.004,0.945,-0.64,0.022,-0.026,0.041,122.353,1.341,1.068,0.115,1,1,3.28,4.871,2
1778187200982,-0.002,0.944,-0.634,0.024,-0.023,0.041,122.011,1.004,1.052,0.103,1,1,3.296,4.885,2
1778187200995,0.002,0.943,-0.629,0.027,-0.021,0.039,121.768,0.5,1.066,0.091,1,1,3.272,4.898,2
1778187201008,0.004,0.942,-0.626,0.028,-0.02,0.036,121.72,0.245,1.061,0.089,1,1,3.264,4.911,2
1778187201022,0.004,0.94,-0.622,0.03,-0.018,0.033,121.616,0.177,1.042,0.087,1,1,3.889,4.925,2
1778187201036,0.005,0.939,-0.617,0.031,-0.017,0.03,121.424,0.015,1.06,0.075,1,1,3.262,4.939,2
1778187201049,0.003,0.938,-0.614,0.031,-0.016,0.028,121.313,0.146,1.063,0.063,1,1,3.334,4.952,2
1778187201063,0.003,0.937,-0.611,0.032,-0.015,0.026,121.288,0.164,1.059,0.06,1,1,3.268,4.966,2
1778187201076,0.003,0.935,-0.607,0.033,-0.013,0.024,121.228,0.172,1.043,0.054,1,1,3.449,4.979,2
1778187201090,0.002,0.935,-0.604,0.033,-0.012,0.023,121.046,0.224,1.073,0.053,5,5,3.918,4.993,2
1778187201104,0.003,0.933,-0.601,0.033,-0.01,0.022,121.045,0.085,1.038,0.046,5,5,3.328,5.007,2
1778187201117,0.004,0.932,-0.598,0.033,-0.009,0.02,120.996,-0.044,1.047,0.048,5,5,3.262,5.02,2
1778187201130,0.005,0.93,-0.594,0.033,-0.008,0.018,120.901,-0.169,1.044,0.056,5,5,3.269,5.033,2
1778187201144,0.006,0.929,-0.592,0.033,-0.008,0.015,120.931,-0.276,1.045,0.058,5,5,3.308,5.047,2
1778187201157,0.006,0.927,-0.59,0.033,-0.007,0.013,120.982,-0.355,1.049,0.059,5,5,3.851,5.06,2
1778187201171,0.006,0.926,-0.587,0.033,-0.007,0.011,120.902,-0.302,1.053,0.057,5,5,3.261,5.074,2
1778187201184,0.006,0.926,-0.585,0.033,-0.007,0.009,120.808,-0.33,1.062,0.054,5,5,3.26,5.087,2
1778187201198,0.006,0.926,-0.583,0.033,-0.008,0.007,120.845,-0.295,1.066,0.057,5,5,3.311,5.101,2
1778187201211,0.006,0.925,-0.581,0.033,-0.009,0.005,120.799,-0.353,1.065,0.068,5,5,3.309,5.114,3
1778187201225,0.007,0.926,-0.579,0.035,-0.01,0.004,120.665,-0.392,1.069,0.092,5,5,3.843,5.128,3
1778187201239,0.007,0.925,-0.577,0.037,-0.011,0.002,120.623,-0.427,1.057,0.114,5,5,3.288,5.142,3
1778187201252,0.006,0.924,-0.576,0.039,-0.013,0.0,120.708,-0.315,1.051,0.12,5,5,3.269,5.155,3
1778187201265,0.005,0.923,-0.575,0.042,-0.014,-0.001,120.745,-0.257,1.063,0.128,5,5,3.264,5.168,3
1778187201279,0.005,0.923,-0.574,0.046,-0.015,-0.001,120.771,-0.221,1.069,0.145,5,5,3.977,5.182,3
1778187201293,0.004,0.923,-0.573,0.05,-0.016,-0.001,120.803,-0.068,1.072,0.159,5,5,3.872,5.196,3
1778187201307,0.001,0.925,-0.572,0.055,-0.017,-0.0,120.728,0.198,1.131,0.197,5,5,3.322,5.21,3
1778187201320,-0.002,0.928,-0.572,0.062,-0.016,0.001,120.603,0.513,1.147,0.238,5,5,3.268,5.223,3
1778187201334,-0.006,0.929,-0.571,0.07,-0.014,0.003,120.589,0.928,1.103,0.302,5,5,3.265,5.237,3
1778187201347,-0.009,0.931,-0.571,0.08,-0.011,0.006,120.578,1.214,1.13,0.358,5,5,3.262,5.25,3
1778187201360,-0.011,0.934,-0.571,0.092,-0.006,0.009,120.46,1.399,1.159,0.431,5,5,3.89,5.263,3
1778187201374,-0.011,0.937,-0.571,0.106,-0.001,0.015,120.373,1.299,1.153,0.511,5,5,3.267,5.277,3
1778187201388,-0.011,0.941,-0.573,0.123,0.004,0.021,120.421,1.219,1.188,0.595,5,5,3.262,5.291,3
1778187201401,-0.01,0.945,-0.574,0.141,0.009,0.027,120.437,1.026,1.2,0.647,5,5,3.261,5.304,3
1778187201414,-0.007,0.952,-0.576,0.16,0.014,0.032,120.305,0.683,1.264,0.688,5,5,3.255,5.317,3
1778187201428,-0.003,0.957,-0.579,0.18,0.018,0.038,120.382,0.277,1.253,0.74,5,5,3.897,5.331,3
1778187201442,-0.0,0.973,-0.581,0.2,0.021,0.041,119.895,-0.004,1.456,0.736,5,5,3.269,5.345,3
1778187201455,0.002,0.986,-0.585,0.222,0.023,0.043,119.669,-0.217,1.441,0.799,5,5,3.256,5.358,3
1778187201469,0.003,1.003,-0.588,0.247,0.025,0.046,119.278,-0.258,1.511,0.902,5,5,3.274,5.372,3
1778187201482,0.002,1.016,-0.589,0.277,0.026,0.05,118.885,-0.189,1.445,1.065,5,5,3.506,5.385,4
1778187201496,0.0,1.031,-0.589,0.312,0.026,0.056,118.426,0.005,1.484,1.251,3,3,3.872,5.399,4
1778187201510,-0.002,1.047,-0.589,0.353,0.026,0.065,117.862,0.188,1.519,1.46,3,3,3.339,5.413,4
1778187201523,0.002,1.068,-0.586,0.403,0.025,0.071,116.988,-0.147,1.604,1.717,3,3,3.252,5.426,4
1778187201536,0.012,1.092,-0.582,0.463,0.022,0.075,116.044,-0.885,1.718,2.018,3,3,3.25,5.439,4
1778187201550,0.026,1.123,-0.576,0.538,0.017,0.075,114.894,-1.711,1.893,2.487,3,3,3.271,5.453,4
1778187201563,0.039,1.167,-0.575,0.611,0.01,0.071,113.885,-2.355,2.22,2.508,3,3,3.86,5.466,4
1778187201577,0.049,1.208,-0.576,0.681,0.002,0.063,113.156,-2.794,2.195,2.513,3,3,3.276,5.48,4
1778187201591,0.055,1.233,-0.586,0.748,-0.007,0.055,113.259,-3.065,1.966,2.518,3,3,3.265,5.494,4
1778187201604,0.06,1.257,-0.594,0.813,-0.014,0.052,113.265,-3.227,1.944,2.51,3,3,3.246,5.507,4
1778187201617,0.061,1.275,-0.609,0.876,-0.023,0.047,113.82,-3.146,1.91,2.516,3,3,3.27,5.52,4
1778187201631,0.058,1.291,-0.619,0.936,-0.028,0.05,114.15,-2.825,1.85,2.51,4,4,3.877,5.534,4
1778187201645,0.063,1.292,-0.614,0.994,-0.034,0.077,113.856,-3.282,1.424,2.626,4,4,3.258,5.548,4
1778187201658,0.067,1.314,-0.594,1.05,-0.045,0.117,112.051,-3.414,1.803,2.776,4,4,3.28,5.561,4
1778187201671,0.074,1.302,-0.535,1.104,-0.061,0.149,106.508,-4.019,1.309,2.733,4,4,3.267,5.574,4
1778187201685,0.09,1.137,-0.53,1.15,-0.082,0.156,86.865,-4.583,2.553,2.441,4,4,3.722,5.588,5
1778187201699,0.072,1.028,-0.508,1.123,-0.097,0.143,69.934,-2.875,1.396,0.667,4,4,3.959,5.602,5
1778187201713,0.051,0.971,-0.494,1.049,-0.099,0.12,51.434,2.131,0.521,1.015,4,4,3.259,5.616,5
1778187201726,0.036,0.942,-0.477,0.953,-0.091,0.093,56.54,5.901,0.447,1.654,4,4,3.256,5.629,5
1778187201739,0.029,0.921,-0.456,0.848,-0.079,0.064,59.761,6.886,0.472,2.009,4,4,3.303,5.642,5
1778187201753,0.029,0.894,-0.434,0.737,-0.066,0.03,61.839,5.441,0.316,2.325,4,4,3.277,5.656,5
1778187201766,0.032,0.862,-0.41,0.617,-0.058,-0.002,60.995,2.845,0.212,2.637,4,4,3.882,5.669,5
1778187201780,0.033,0.837,-0.388,0.502,-0.055,-0.021,61.954,1.348,0.315,2.557,4,4,3.288,5.683,5
1778187201794,0.04,0.811,-0.366,0.39,-0.059,-0.029,62.667,-1.913,0.326,2.518,4,4,3.254,5.697,5
1778187201807,0.046,0.796,-0.349,0.283,-0.07,-0.028,64.781,-3.83,0.503,2.525,4,4,3.253,5.71,5
1778187201820,0.049,0.791,-0.337,0.18,-0.085,-0.019,67.786,-4.391,0.692,2.556,4,4,3.327,5.723,5
1778187201834,0.048,0.789,-0.331,0.08,-0.103,-0.008,71.346,-4.183,0.774,2.58,4,4,3.878,5.737,5
1778187201848,0.044,0.791,-0.331,-0.016,-0.121,0.003,75.179,-3.422,0.898,2.587,4,4,3.26,5.751,5
1778187201861,0.038,0.798,-0.336,-0.108,-0.138,0.012,78.961,-2.702,1.049,2.579,4,4,3.312,5.764,5
1778187201874,0.029,0.81,-0.345,-0.197,-0.153,0.018,82.529,-1.657,1.223,2.562,4,4,3.263,5.777,5
1778187201888,0.018,0.829,-0.36,-0.282,-0.163,0.022,86.042,-0.659,1.425,2.54,4,4,3.755,5.791,5
1778187201902,0.007,0.85,-0.379,-0.364,-0.166,0.025,89.394,0.209,1.57,2.517,5,5,3.88,5.805,5
1778187201916,-0.001,0.87,-0.399,-0.444,-0.163,0.021,92.534,0.841,1.542,2.504,5,5,3.284,5.819,5
1778187201929,-0.008,0.893,-0.418,-0.52,-0.152,0.011,95.221,1.259,1.641,2.515,5,5,3.26,5.832,5
1778187201942,-0.011,0.92,-0.438,-0.593,-0.134,0.003,97.585,1.402,1.743,2.534,5,5,3.275,5.845,5
1778187201956,-0.011,0.949,-0.46,-0.664,-0.109,-0.002,99.781,1.286,1.848,2.564,5,5,3.259,5.859,5
1778187201969,-0.007,0.981,-0.485,-0.732,-0.077,0.002,101.872,0.964,1.976,2.613,5,5,3.975,5.872,5
1778187201983,-0.002,1.015,-0.516,-0.798,-0.041,0.013,103.984,0.593,2.123,2.668,5,5,3.262,5.886,5
1778187201997,-0.0,1.05,-0.556,-0.861,-0.004,0.028,106.288,0.435,2.321,2.712,5,5,3.25,5.9,5
1778187202010,-0.002,1.082,-0.605,-0.922,0.033,0.043,108.864,0.476,2.447,2.736,5,5,3.314,5.913,5
1778187202023,-0.003,1.111,-0.661,-0.981,0.07,0.053,111.574,0.517,2.572,2.72,5,5,3.256,5.926,5
1778187202037,0.013,1.128,-0.721,-1.024,0.098,0.054,114.621,-0.327,2.551,2.312,5,5,3.859,5.94,5
1778187202051,0.04,1.13,-0.79,-1.046,0.107,0.058,118.28,-1.607,2.652,1.645,5,5,3.329,5.954,5
1778187202064,0.056,1.121,-0.862,-1.043,0.101,0.067,122.136,-2.302,2.639,1.025,5,5,3.268,5.967,1
1778187202078,0.049,1.105,-0.932,-1.019,0.091,0.082,126.05,-1.86,2.579,0.637,5,5,3.268,5.981,1
1778187202091,0.023,1.085,-0.996,-0.974,0.083,0.087,129.726,-0.514,2.543,0.326,5,5,3.596,5.994,1
1778187202105,-0.006,1.069,-1.048,-0.91,0.08,0.07,132.773,1.024,2.391,0.837,5,5,3.905,6.008,1
1778187202119,0.169,1.197,-0.991,-0.783,0.051,0.08,128.361,-3.349,5.662,2.618,5,5,3.263,6.022,1
1778187202132,0.193,1.219,-0.945,-0.673,0.034,0.066,124.518,-5.183,1.829,2.268,5,5,3.285,6.035,1
1778187202145,0.189,1.22,-0.901,-0.555,0.005,0.049,120.884,-5.194,1.244,2.64,5,5,3.258,6.048,1
1778187202159,0.169,1.207,-0.872,-0.441,-0.01,0.036,119.382,-3.187,1.008,2.551,5,5,3.259,6.062,1
1778187202172,0.159,1.191,-0.851,-0.332,-0.02,0.023,118.968,-2.609,0.924,2.536,1,1,3.892,6.075,1
1778187202186,0.145,1.171,-0.841,-0.237,-0.026,0.009,120.06,-1.373,0.982,2.278,1,1,3.273,6.089,1
1778187202200,0.126,1.154,-0.831,-0.157,-0.024,0.001,120.768,0.306,1.017,1.913,1,1,3.258,6.103,1
1778187202213,0.111,1.138,-0.822,-0.091,-0.017,-0.001,121.471,1.422,1.046,1.635,1,1,3.267,6.116,1
1778187202226,0.1,1.121,-0.82,-0.039,-0.013,0.003,122.924,1.958,1.085,1.327,1,1,3.308,6.129,1
1778187202240,0.085,1.104,-0.815,-0.0,-0.005,0.011,123.982,3.07,1.047,1.04,1,1,3.882,6.143,1
1778187202254,0.08,1.093,-0.804,0.029,0.004,0.019,123.868,2.893,1.01,0.851,1,1,3.262,6.157,1
1778187202267,0.075,1.085,-0.793,0.054,0.015,0.025,123.657,2.794,1.064,0.794,1,1,3.255,6.17,1
1778187202280,0.084,1.079,-0.776,0.065,0.015,0.027,122.649,1.134,1.068,0.356,1,1,3.274,6.183,1
1778187202294,0.085,1.071,-0.764,0.069,0.016,0.03,122.347,0.476,1.05,0.207,1,1,3.671,6.197,1
1778187202308,0.079,1.063,-0.754,0.072,0.016,0.033,122.214,0.723,1.034,0.175,1,1,3.832,6.211,2
1778187202322,0.08,1.058,-0.744,0.071,0.016,0.034,121.88,0.149,1.076,0.097,1,1,3.265,6.225,2
1778187202335,0.079,1.053,-0.734,0.071,0.014,0.032,121.564,-0.233,1.083,0.065,1,1,3.263,6.238,2
1778187202348,0.077,1.048,-0.724,0.071,0.012,0.029,121.324,-0.291,1.074,0.08,1,1,3.254,6.251,2
1778187202362,0.072,1.043,-0.716,0.07,0.011,0.027,121.131,-0.07,1.079,0.062,1,1,3.279,6.265,2
1778187202375,0.064,1.039,-0.708,0.069,0.011,0.027,120.951,0.417,1.093,0.06,1,1,3.894,6.278,2
1778187202389,0.056,1.035,-0.701,0.069,0.013,0.03,120.854,0.958,1.098,0.125,1,1,3.265,6.292,2
1778187202402,0.048,1.031,-0.693,0.068,0.016,0.035,120.644,1.49,1.093,0.207,1,1,3.29,6.305,2
1778187202416,0.044,1.027,-0.686,0.068,0.02,0.041,120.575,1.573,1.074,0.249,1,1,3.251,6.319,2
1778187202429,0.043,1.023,-0.678,0.069,0.024,0.046,120.387,1.393,1.067,0.214,1,1,3.263,6.332,2
1778187202443,0.043,1.017,-0.672,0.069,0.027,0.048,120.468,1.012,1.026,0.175,1,1,3.902,6.346,2
1778187202457,0.042,1.012,-0.666,0.069,0.029,0.049,120.45,0.747,1.056,0.129,1,1,3.255,6.36,2
1778187202470,0.042,1.006,-0.66,0.068,0.03,0.049,120.625,0.484,1.022,0.098,1,1,3.268,6.373,2
1778187202483,0.041,1.001,-0.655,0.068,0.031,0.048,120.62,0.304,1.042,0.082,1,1,3.278,6.386,2
1778187202497,0.04,0.997,-0.649,0.066,0.032,0.047,120.564,0.213,1.066,0.066,1,1,3.734,6.4,2
1778187202510,0.04,0.993,-0.644,0.066,0.033,0.045,120.577,-0.033,1.037,0.066,1,1,3.878,6.413,2
1778187202524,0.04,0.989,-0.639,0.065,0.033,0.042,120.565,-0.259,1.052,0.065,1,1,3.275,6.427,2
1778187202538,0.041,0.985,-0.635,0.065,0.033,0.039,120.582,-0.468,1.043,0.07,1,1,3.254,6.441,2
1778187202551,0.041,0.982,-0.629,0.064,0.032,0.036,120.469,-0.7,1.054,0.078,1,1,3.271,6.454,2
1778187202565,0.039,0.98,-0.625,0.064,0.032,0.033,120.417,-0.562,1.072,0.075,1,1,3.291,6.468,2
1778187202578,0.036,0.978,-0.621,0.064,0.031,0.03,120.305,-0.443,1.079,0.073,1,1,3.871,6.481,2
1778187202592,0.034,0.974,-0.618,0.063,0.031,0.028,120.451,-0.307,1.051,0.061,1,1,3.276,6.495,2
1778187202605,0.033,0.971,-0.615,0.063,0.03,0.027,120.522,-0.313,1.064,0.068,1,1,3.282,6.508,3
1778187202619,0.03,0.969,-0.612,0.064,0.03,0.027,120.594,-0.142,1.064,0.073,1,1,3.26,6.522,3
1778187202632,0.03,0.966,-0.61,0.064,0.029,0.027,120.675,-0.254,1.064,0.074,1,1,3.266,6.535,3
1778187202645,0.029,0.963,-0.607,0.064,0.028,0.028,120.729,-0.31,1.046,0.094,2,2,3.918,6.548,3
1778187202659,0.028,0.96,-0.604,0.066,0.027,0.029,120.76,-0.314,1.058,0.119,2,2,3.249,6.562,3
1778187202673,0.027,0.96,-0.602,0.069,0.026,0.031,120.674,-0.229,1.092,0.162,2,2,3.252,6.576,3
1778187202686,0.028,0.958,-0.599,0.072,0.024,0.033,120.623,-0.535,1.057,0.188,2,2,3.276,6.589,3
1778187202700,0.029,0.962,-0.595,0.079,0.022,0.033,120.198,-0.723,1.175,0.253,2,2,3.331,6.603,3
1778187202713,0.031,0.964,-0.593,0.087,0.02,0.033,120.017,-0.937,1.15,0.308,5,5,3.855,6.616,3
1778187202727,0.027,0.967,-0.591,0.098,0.019,0.032,119.841,-0.563,1.166,0.388,5,5,3.268,6.63,3
1778187202740,0.025,0.969,-0.59,0.112,0.02,0.032,119.761,-0.412,1.167,0.467,5,5,3.249,6.643,3
1778187202754,0.023,0.974,-0.589,0.129,0.021,0.033,119.616,-0.358,1.223,0.579,5,5,3.267,6.657,3
1778187202767,0.022,0.977,-0.59,0.148,0.025,0.035,119.663,-0.261,1.199,0.657,5,5,3.276,6.67,3
1778187202780,0.019,0.98,-0.59,0.17,0.028,0.039,119.66,-0.073,1.215,0.778,3,3,3.866,6.683,3
1778187202794,0.018,0.985,-0.593,0.193,0.034,0.045,119.721,-0.037,1.276,0.816,3,3,3.265,6.697,3
1778187202808,0.023,0.997,-0.597,0.215,0.037,0.047,119.694,-0.57,1.431,0.802,3,3,3.559,6.711,3
1778187202821,0.026,1.006,-0.599,0.237,0.039,0.049,119.48,-0.804,1.376,0.812,3,3,3.243,6.724,3
1778187202835,0.026,1.019,-0.602,0.259,0.039,0.049,119.267,-0.823,1.455,0.834,3,3,3.26,6.738,3
1778187202848,0.03,1.033,-0.603,0.286,0.038,0.051,118.888,-1.23,1.489,0.991,3,3,3.914,6.751,3
1778187202862,0.031,1.047,-0.604,0.318,0.035,0.054,118.502,-1.278,1.49,1.177,3,3,3.255,6.765,3
1778187202875,0.029,1.065,-0.603,0.357,0.032,0.06,117.856,-1.149,1.571,1.367,3,3,3.283,6.778,3
1778187202889,0.03,1.088,-0.602,0.403,0.027,0.067,117.117,-1.15,1.69,1.637,3,3,3.269,6.792,4
1778187202902,0.034,1.117,-0.599,0.463,0.021,0.074,116.157,-1.453,1.842,2.02,3,3,3.566,6.805,4
1778187202916,0.041,1.151,-0.594,0.538,0.015,0.08,114.995,-1.844,1.959,2.518,3,3,3.916,6.819,4
1778187202930,0.046,1.197,-0.591,0.611,0.007,0.088,113.914,-2.04,2.273,2.525,3,3,3.251,6.833,4
1778187202943,0.053,1.244,-0.592,0.681,-0.001,0.1,113.093,-2.331,2.363,2.546,3,3,3.311,6.846,4
1778187202957,0.05,1.282,-0.601,0.749,-0.009,0.123,112.833,-2.079,2.265,2.605,3,3,3.275,6.86,4
1778187202970,0.046,1.315,-0.612,0.814,-0.016,0.14,112.817,-1.76,2.206,2.58,3,3,3.274,6.873,4
1778187202983,0.037,1.328,-0.629,0.876,-0.022,0.156,113.715,-1.108,1.906,2.57,4,4,3.923,6.886,4
1778187202997,0.018,1.355,-0.639,0.936,-0.019,0.206,113.718,-0.013,2.149,2.916,4,4,3.263,6.9,4
1778187203011,0.004,1.364,-0.624,0.994,-0.017,0.285,112.488,0.999,1.637,3.432,4,4,3.3,6.914,4
1778187203024,0.006,1.348,-0.558,1.05,-0.025,0.365,106.347,0.677,1.325,3.501,4,4,3.25,6.927,4
1778187203038,0.022,1.179,-0.547,1.096,-0.047,0.411,87.002,-0.151,2.564,2.866,4,4,3.283,6.941,4
1778187203051,0.009,1.107,-0.54,1.082,-0.068,0.421,66.396,2.088,0.654,1.161,4,4,3.935,6.954,5
1778187203065,-0.011,1.062,-0.523,1.036,-0.083,0.397,74.302,8.383,0.482,0.556,4,4,3.255,6.968,5
1778187203078,-0.026,1.033,-0.509,0.976,-0.095,0.356,78.321,11.37,0.562,1.008,4,4,3.278,6.981,5
1778187203092,-0.033,1.007,-0.495,0.914,-0.106,0.305,81.68,12.215,0.529,1.284,4,4,3.287,6.995,5
1778187203105,-0.033,0.974,-0.479,0.849,-0.12,0.258,84.853,12.06,0.27,1.377,4,4,3.368,7.008,5
1778187203119,-0.03,0.939,-0.458,0.776,-0.14,0.22,85.953,9.927,0.189,1.498,4,4,3.913,7.022,5
1778187203133,-0.028,0.9,-0.437,0.692,-0.165,0.192,82.983,6.924,0.058,1.79,4,4,3.272,7.036,5
1778187203146,-0.029,0.86,-0.417,0.594,-0.196,0.17,71.022,11.022,0.048,2.228,4,4,3.281,7.049,5
1778187203159,-0.033,0.825,-0.399,0.483,-0.231,0.152,73.098,16.04,0.155,2.66,4,4,3.289,7.062,5
1778187203173,-0.043,0.798,-0.383,0.372,-0.266,0.135,75.903,19.142,0.322,2.78,4,4,3.292,7.076,5
1778187203186,-0.057,0.781,-0.372,0.266,-0.298,0.114,78.928,21.252,0.557,2.778,4,4,3.925,7.089,5
1778187203200,-0.075,0.771,-0.367,0.163,-0.323,0.085,82.376,22.871,0.768,2.766,4,4,3.288,7.103,5
1778187203214,-0.09,0.765,-0.367,0.064,-0.342,0.052,85.927,23.494,0.861,2.754,4,4,3.268,7.117,5
1778187203227,-0.1,0.763,-0.372,-0.031,-0.353,0.018,89.515,23.196,0.921,2.729,4,4,3.262,7.13,5
1778187203240,-0.104,0.765,-0.383,-0.122,-0.359,-0.012,93.18,21.947,1.027,2.678,4,4,3.299,7.143,5
1778187203254,-0.099,0.77,-0.398,-0.211,-0.361,-0.039,96.606,19.855,1.132,2.635,5,5,3.921,7.157,5
1778187203268,-0.09,0.781,-0.417,-0.296,-0.357,-0.064,99.654,17.515,1.332,2.611,5,5,3.267,7.171,5
1778187203281,-0.079,0.801,-0.44,-0.377,-0.347,-0.087,102.306,15.264,1.554,2.596,5,5,3.269,7.184,5
1778187203294,-0.064,0.823,-0.465,-0.456,-0.327,-0.106,104.767,12.999,1.682,2.581,5,5,3.262,7.197,5
1778187203308,-0.046,0.846,-0.491,-0.532,-0.297,-0.119,106.971,10.657,1.758,2.587,5,5,3.42,7.211,5
1778187203321,-0.024,0.873,-0.515,-0.605,-0.258,-0.121,108.742,8.262,1.844,2.622,5,5,3.901,7.224,5
1778187203335,0.005,0.902,-0.539,-0.675,-0.212,-0.106,110.227,5.703,1.979,2.697,5,5,3.267,7.238,5
1778187203349,0.034,0.933,-0.565,-0.743,-0.166,-0.073,111.642,3.342,2.08,2.819,5,5,3.261,7.252,5
1778187203362,0.063,0.964,-0.592,-0.808,-0.12,-0.03,113.013,1.244,2.146,2.927,5,5,3.263,7.265,5
1778187203375,0.087,0.992,-0.623,-0.871,-0.079,0.016,114.535,-0.451,2.151,2.946,5,5,3.286,7.278,5
1778187203389,0.083,1.016,-0.653,-0.932,-0.038,0.072,116.02,-0.413,2.022,3.113,5,5,3.921,7.292,5
1778187203403,0.079,1.041,-0.693,-0.99,0.002,0.138,117.793,-0.332,2.217,3.284,5,5,3.337,7.306,5
1778187203416,0.074,1.062,-0.739,-1.046,0.037,0.193,119.8,-0.236,2.328,3.129,5,5,3.293,7.319,5
1778187203430,0.083,1.073,-0.797,-1.095,0.056,0.224,122.441,-0.82,2.464,2.637,5,5,3.272,7.333,5
1778187203443,0.105,1.078,-0.863,-1.119,0.054,0.233,125.323,-1.963,2.664,1.813,5,5,3.283,7.346,1
1778187203456,0.12,1.077,-0.936,-1.114,0.036,0.245,128.389,-2.666,2.774,1.215,5,5,3.902,7.359,1
1778187203470,0.108,1.058,-1.009,-1.083,0.015,0.275,131.957,-2.073,2.684,1.204,5,5,3.283,7.373,1
1778187203484,0.068,1.034,-1.073,-1.034,-0.001,0.3,135.421,-0.196,2.657,1.06,5,5,3.302,7.387,1
1778187203497,0.015,1.017,-1.125,-0.969,0.003,0.29,138.14,2.283,2.601,0.742,5,5,3.28,7.4,1
1778187203511,0.057,1.035,-1.021,-0.875,0.001,0.225,129.661,-0.507,2.123,2.143,5,5,3.556,7.414,1
1778187203524,0.017,1.065,-0.937,-0.765,0.016,0.174,123.254,1.792,2.105,2.42,5,5,3.923,7.427,1
1778187203538,0.008,1.064,-0.893,-0.644,0.022,0.136,119.744,2.63,1.075,2.649,5,5,3.322,7.441,1
1778187203552,0.004,1.061,-0.863,-0.527,0.019,0.11,117.983,2.801,1.013,2.568,5,5,3.266,7.455,1
1778187203565,-0.015,1.046,-0.853,-0.415,0.011,0.093,119.21,4.868,1.059,2.528,5,5,3.269,7.468,1
1778187203578,-0.03,1.03,-0.847,-0.314,0.01,0.088,120.871,6.258,1.045,2.311,5,5,3.291,7.481,1
1778187203592,-0.032,1.013,-0.853,-0.234,0.014,0.084,123.407,6.038,1.18,1.839,1,1,3.922,7.495,1
1778187203606,-0.029,0.994,-0.855,-0.178,0.014,0.077,125.64,5.317,1.067,1.292,1,1,3.294,7.509,1
1778187203619,-0.035,0.982,-0.851,-0.138,0.018,0.072,126.689,5.634,1.058,0.891,1,1,3.262,7.522,1
1778187203633,-0.036,0.949,-0.872,-0.113,0.013,0.074,130.834,5.317,1.367,0.574,1,1,3.269,7.536,1
1778187203646,-0.045,0.94,-0.864,-0.099,0.016,0.075,131.034,6.152,1.041,0.287,1,1,3.265,7.549,1
1778187203660,-0.044,0.939,-0.85,-0.089,0.016,0.074,129.988,5.604,1.067,0.181,1,1,3.95,7.563,1
1778187203674,-0.045,0.936,-0.837,-0.082,0.017,0.074,129.337,5.456,1.026,0.122,1,1,3.274,7.577,2
1778187203687,-0.046,0.935,-0.824,-0.077,0.017,0.073,128.439,5.235,1.061,0.078,1,1,3.259,7.59,2
1778187203700,-0.048,0.932,-0.813,-0.073,0.017,0.073,127.956,5.267,1.038,0.095,1,1,3.29,7.603,2
1778187203714,-0.05,0.932,-0.799,-0.068,0.018,0.074,127.027,5.216,1.074,0.12,1,1,3.34,7.617,2
1778187203727,-0.052,0.93,-0.788,-0.065,0.019,0.076,126.542,5.207,1.045,0.137,1,1,3.914,7.63,2
1778187203741,-0.053,0.93,-0.777,-0.061,0.021,0.079,125.949,5.1,1.074,0.168,1,1,3.264,7.644,2
1778187203755,-0.054,0.929,-0.767,-0.057,0.024,0.082,125.424,5.019,1.069,0.186,1,1,3.29,7.658,2
1778187203768,-0.046,0.923,-0.753,-0.054,0.027,0.081,124.94,3.828,0.903,0.125,1,1,3.29,7.671,2
1778187203781,-0.048,0.922,-0.745,-0.051,0.028,0.081,124.591,3.89,1.08,0.107,1,1,3.27,7.684,2
1778187203795,-0.044,0.92,-0.736,-0.048,0.03,0.08,124.376,3.271,1.021,0.088,1,1,3.959,7.698,2
1778187203809,-0.043,0.918,-0.726,-0.045,0.031,0.078,123.929,3.063,1.021,0.079,1,1,3.336,7.712,2
1778187203822,-0.043,0.917,-0.718,-0.043,0.032,0.078,123.635,3.058,1.041,0.085,1,1,3.279,7.725,2
1778187203836,-0.043,0.917,-0.709,-0.04,0.032,0.077,123.326,2.958,1.05,0.091,1,1,3.278,7.739,2
1778187203849,-0.042,0.916,-0.701,-0.038,0.034,0.077,122.985,2.786,1.05,0.092,1,1,3.256,7.752,2
1778187203862,-0.043,0.916,-0.694,-0.035,0.035,0.077,122.81,2.842,1.052,0.109,1,1,3.958,7.765,2
1778187203877,-0.043,0.915,-0.687,-0.032,0.036,0.076,122.61,2.743,1.059,0.103,1,1,3.272,7.78,2
1778187203890,-0.041,0.915,-0.681,-0.03,0.037,0.075,122.428,2.467,1.051,0.084,1,1,3.262,7.793,2
1778187203903,-0.038,0.916,-0.674,-0.027,0.038,0.072,122.131,2.101,1.065,0.069,1,1,3.277,7.806,2
1778187203917,-0.035,0.916,-0.668,-0.024,0.037,0.069,121.911,1.774,1.068,0.064,1,1,3.717,7.82,2
1778187203931,-0.033,0.916,-0.661,-0.021,0.037,0.065,121.706,1.582,1.061,0.066,5,5,3.994,7.834,2
1778187203945,-0.033,0.915,-0.656,-0.019,0.036,0.061,121.665,1.549,1.036,0.056,5,5,3.269,7.848,2
1778187203958,-0.033,0.914,-0.652,-0.016,0.035,0.058,121.646,1.634,1.062,0.058,5,5,3.285,7.861,2
1778187203971,-0.033,0.915,-0.647,-0.013,0.034,0.056,121.508,1.664,1.068,0.064,5,5,3.281,7.874,3
1778187203985,-0.033,0.914,-0.642,-0.009,0.032,0.054,121.489,1.673,1.057,0.082,5,5,3.261,7.888,3
1778187203998,-0.033,0.915,-0.637,-0.005,0.031,0.052,121.333,1.64,1.067,0.102,5,5,3.972,7.901,3
1778187204012,-0.033,0.915,-0.634,-0.001,0.029,0.052,121.292,1.614,1.073,0.126,5,5,3.283,7.915,3
1778187204026,-0.033,0.916,-0.63,0.005,0.027,0.052,121.21,1.636,1.081,0.16,5,5,3.276,7.929,3
1778187204039,-0.033,0.919,-0.627,0.011,0.026,0.054,121.067,1.709,1.146,0.204,5,5,3.387,7.942,3
1778187204052,-0.03,0.926,-0.623,0.02,0.024,0.055,120.674,1.367,1.201,0.266,5,5,3.261,7.955,3
1778187204066,-0.033,0.929,-0.621,0.031,0.023,0.055,120.519,1.679,1.152,0.324,5,5,3.957,7.969,3
1778187204080,-0.034,0.93,-0.618,0.042,0.023,0.057,120.513,1.751,1.099,0.343,5,5,3.272,7.983,3
1778187204093,-0.035,0.93,-0.616,0.054,0.024,0.059,120.681,1.898,1.094,0.389,5,5,3.273,7.996,3
1778187204107,-0.036,0.93,-0.615,0.067,0.026,0.063,120.769,1.982,1.113,0.445,5,5,3.28,8.01,3
1778187204120,-0.036,0.932,-0.614,0.082,0.03,0.067,120.806,2.033,1.135,0.523,5,5,3.441,8.023,3
1778187204134,-0.036,0.936,-0.613,0.099,0.034,0.072,120.739,1.924,1.184,0.597,5,5,3.952,8.037,3
1778187204148,-0.034,0.942,-0.613,0.119,0.038,0.077,120.666,1.771,1.225,0.682,5,5,3.268,8.051,3
1778187204161,-0.031,0.954,-0.615,0.14,0.043,0.079,120.434,1.481,1.397,0.708,5,5,3.274,8.064,3
1778187204174,-0.029,0.966,-0.616,0.161,0.046,0.08,120.163,1.275,1.376,0.732,5,5,3.3,8.077,3
1778187204188,-0.029,0.974,-0.617,0.183,0.048,0.083,120.07,1.249,1.332,0.777,5,5,3.271,8.091,3
1778187204201,-0.028,0.986,-0.62,0.208,0.051,0.086,119.938,1.138,1.418,0.872,5,5,3.936,8.104,3
1778187204215,-0.026,0.999,-0.621,0.237,0.052,0.088,119.661,0.943,1.431,1.002,5,5,3.307,8.118,3
1778187204229,-0.024,1.013,-0.622,0.271,0.052,0.091,119.317,0.766,1.476,1.164,5,5,3.268,8.132,3
1778187204242,-0.023,1.027,-0.623,0.31,0.051,0.096,118.941,0.706,1.481,1.34,5,5,3.268,8.145,4
1778187204255,-0.021,1.047,-0.622,0.355,0.05,0.101,118.318,0.602,1.599,1.557,5,5,3.277,8.158,4
1778187204269,-0.013,1.072,-0.619,0.41,0.047,0.104,117.397,0.041,1.715,1.844,5,5,3.967,8.172,4
1778187204283,-0.002,1.1,-0.615,0.477,0.042,0.106,116.415,-0.707,1.803,2.224,5,5,3.277,8.186,4
1778187204296,0.003,1.138,-0.612,0.552,0.037,0.108,115.372,-0.913,2.052,2.508,5,5,3.284,8.199,4
1778187204310,0.008,1.188,-0.613,0.624,0.031,0.11,114.431,-1.136,2.358,2.509,5,5,3.275,8.213,4
1778187204324,0.011,1.226,-0.616,0.694,0.025,0.113,113.876,-1.216,2.169,2.512,5,5,3.757,8.227,4
1778187204337,0.014,1.257,-0.619,0.761,0.022,0.121,113.461,-1.31,2.069,2.523,3,3,3.908,8.24,4
1778187204351,0.016,1.287,-0.63,0.826,0.017,0.126,113.497,-1.332,2.109,2.52,3,3,3.261,8.254,4
1778187204364,0.017,1.305,-0.635,0.888,0.013,0.139,113.495,-1.323,1.873,2.545,3,3,3.312,8.267,4
1778187204378,0.021,1.307,-0.624,0.948,0.009,0.176,112.795,-1.577,1.408,2.751,3,3,3.274,8.281,4
1778187204391,0.025,1.325,-0.602,1.005,0.003,0.241,110.997,-1.787,1.724,3.157,3,3,3.269,8.294,4
1778187204405,0.026,1.33,-0.561,1.061,-0.011,0.323,107.785,-1.801,1.471,3.527,3,3,3.952,8.308,4
1778187204419,0.039,1.195,-0.534,1.114,-0.034,0.381,89.188,-2.609,1.786,3.2,3,3,3.269,8.322,5
1778187204432,0.025,1.097,-0.512,1.116,-0.054,0.399,71.931,-0.935,1.081,1.566,3,3,3.299,8.335,5
1778187204445,-0.001,1.016,-0.491,1.061,-0.065,0.383,56.348,2.707,0.942,0.496,3,3,3.269,8.348,5
1778187204459,-0.022,0.962,-0.468,0.969,-0.063,0.343,42.949,8.655,0.523,1.576,3,3,3.275,8.362,5
1778187204472,-0.034,0.93,-0.448,0.859,-0.056,0.295,47.254,12.737,0.363,2.231,4,4,3.932,8.375,5
1778187204486,-0.034,0.897,-0.424,0.737,-0.05,0.246,48.628,12.968,0.205,2.648,4,4,3.271,8.389,5
1778187204500,-0.033,0.864,-0.399,0.617,-0.049,0.205,47.835,11.938,0.202,2.643,4,4,3.3,8.403,5
1778187204513,-0.033,0.841,-0.379,0.501,-0.053,0.18,51.101,11.321,0.347,2.55,4,4,3.262,8.416,5
1778187204527,-0.027,0.822,-0.364,0.39,-0.063,0.167,55.238,8.82,0.423,2.531,4,4,3.311,8.43,5
1778187204540,-0.024,0.813,-0.357,0.282,-0.079,0.166,60.351,7.727,0.651,2.555,4,4,3.969,8.443,5
1778187204554,-0.027,0.807,-0.356,0.179,-0.099,0.168,65.673,7.525,0.755,2.585,4,4,3.267,8.457,5
1778187204568,-0.034,0.804,-0.358,0.08,-0.12,0.163,70.643,8.107,0.869,2.587,4,4,3.28,8.471,5
1778187204581,-0.043,0.806,-0.366,-0.016,-0.14,0.147,75.583,8.61,1.021,2.603,4,4,3.264,8.484,5
1778187204595,-0.053,0.808,-0.377,-0.108,-0.159,0.123,80.416,9.141,1.105,2.634,4,4,3.324,8.498,5
1778187204608,-0.063,0.813,-0.394,-0.197,-0.175,0.097,85.046,9.556,1.215,2.632,5,5,3.925,8.511,5
1778187204622,-0.07,0.82,-0.41,-0.282,-0.185,0.072,89.099,9.564,1.261,2.604,5,5,3.282,8.525,5
1778187204635,-0.074,0.833,-0.429,-0.365,-0.188,0.052,92.784,9.289,1.42,2.561,5,5,3.274,8.538,5
1778187204649,-0.071,0.847,-0.452,-0.444,-0.187,0.037,96.244,8.434,1.485,2.53,5,5,3.253,8.552,5
1778187204662,-0.061,0.858,-0.475,-0.52,-0.184,0.028,99.658,7.066,1.49,2.513,5,5,3.302,8.565,5
1778187204676,-0.046,0.87,-0.5,-0.594,-0.179,0.024,102.775,5.423,1.569,2.504,5,5,3.914,8.579,5
1778187204690,-0.032,0.891,-0.529,-0.665,-0.175,0.031,105.42,4.07,1.799,2.512,5,5,3.285,8.593,5
1778187204703,-0.018,0.922,-0.564,-0.733,-0.17,0.054,107.77,2.941,2.1,2.582,5,5,3.254,8.606,5
1778187204716,-0.006,0.95,-0.605,-0.798,-0.164,0.087,110.22,2.001,2.185,2.674,5,5,3.262,8.619,5
1778187204730,0.0,0.978,-0.651,-0.853,-0.157,0.126,112.679,1.484,2.288,2.537,5,5,3.777,8.633,5
1778187204744,-0.004,0.993,-0.696,-0.899,-0.149,0.17,115.457,1.561,2.146,2.493,5,5,3.919,8.647,5
1778187204758,-0.014,1.003,-0.74,-0.941,-0.144,0.216,118.213,2.067,2.113,2.462,5,5,3.284,8.661,5
1778187204771,-0.037,1.011,-0.785,-0.974,-0.145,0.252,120.9,3.219,2.195,2.175,5,5,3.267,8.674,5
1778187204784,-0.068,1.009,-0.83,-0.995,-0.151,0.265,123.805,4.796,2.176,1.689,5,5,3.273,8.687,5
1778187204798,-0.088,0.999,-0.878,-1.004,-0.161,0.257,127.112,5.713,2.152,1.325,5,5,3.266,8.701,1
1778187204811,-0.093,0.987,-0.929,-0.999,-0.176,0.239,130.283,5.628,2.177,1.044,5,5,3.924,8.714,1
1778187204825,-0.099,0.971,-0.98,-0.972,-0.189,0.231,133.411,5.663,2.194,0.603,5,5,3.302,8.728,1
1778187204839,-0.115,0.947,-1.026,-0.931,-0.195,0.237,136.716,6.333,2.128,0.532,5,5,3.262,8.742,1
1778187204852,-0.135,1.081,-1.076,-0.868,-0.199,0.152,134.992,6.428,4.593,2.217,5,5,3.267,8.755,1
1778187204865,-0.092,1.102,-0.986,-0.785,-0.205,0.117,127.639,3.423,2.034,1.633,5,5,3.283,8.768,1
1778187204879,-0.119,1.123,-0.928,-0.687,-0.202,0.092,122.852,5.374,1.775,1.927,1,1,3.907,8.782,1
1778187204893,-0.112,1.117,-0.895,-0.582,-0.2,0.068,120.705,4.585,1.012,2.214,1,1,3.29,8.796,1
1778187204906,-0.111,1.109,-0.868,-0.48,-0.198,0.048,119.352,4.694,0.99,2.225,1,1,3.275,8.809,1
1778187204920,-0.112,1.094,-0.859,-0.389,-0.196,0.035,120.437,4.986,1.019,2.012,1,1,3.265,8.823,1
1778187204933,-0.115,1.083,-0.852,-0.312,-0.193,0.024,121.36,5.394,1.101,1.711,1,1,3.392,8.836,1
1778187204947,-0.109,1.062,-0.852,-0.254,-0.189,0.014,123.562,4.782,1.041,1.279,1,1,3.918,8.85,1
1778187204961,-0.111,1.047,-0.846,-0.211,-0.183,0.004,124.607,5.104,1.034,0.929,1,1,3.282,8.864,1
1778187204974,-0.115,1.034,-0.836,-0.181,-0.175,-0.001,125.102,5.788,0.999,0.634,1,1,3.267,8.877,1
1778187204987,-0.117,1.009,-0.845,-0.159,-0.172,0.001,128.08,5.932,1.135,0.424,1,1,3.272,8.89,1
1778187205001,-0.118,1.007,-0.829,-0.14,-0.164,0.003,127.048,6.124,1.092,0.358,1,1,3.264,8.904,1
1778187205014,-0.113,1.001,-0.816,-0.127,-0.159,0.006,126.488,5.569,1.029,0.224,1,1,3.908,8.917,1
1778187205028,-0.11,0.995,-0.804,-0.116,-0.154,0.005,126.089,5.215,1.004,0.173,1,1,3.291,8.931,1
1778187205041,-0.108,0.988,-0.793,-0.107,-0.15,0.005,125.817,5.078,1.024,0.131,1,1,3.262,8.944,1
1778187205055,-0.107,0.984,-0.783,-0.1,-0.145,0.005,125.414,5.067,1.052,0.095,1,1,3.284,8.958,1
1778187205068,-0.105,0.98,-0.773,-0.093,-0.141,0.005,125.051,4.909,1.05,0.075,1,1,3.257,8.971,1
1778187205082,-0.104,0.977,-0.762,-0.088,-0.137,0.005,124.532,4.828,1.057,0.068,1,1,3.923,8.985,1
1778187205096,-0.103,0.976,-0.751,-0.082,-0.133,0.005,124.005,4.774,1.075,0.08,1,1,3.292,8.999,1
1778187205109,-0.102,0.973,-0.741,-0.076,-0.129,0.005,123.599,4.734,1.069,0.081,1,1,3.275,9.012,2
1778187205122,-0.102,0.971,-0.733,-0.071,-0.125,0.006,123.387,4.825,1.068,0.077,1,1,3.281,9.025,2
1778187205136,-0.103,0.968,-0.725,-0.066,-0.12,0.008,123.187,5.044,1.065,0.085,1,1,3.765,9.039,2
1778187205150,-0.101,0.964,-0.719,-0.062,-0.113,0.009,123.243,4.773,1.056,0.078,1,1,3.918,9.053,2
1778187205164,-0.106,0.963,-0.713,-0.058,-0.107,0.012,123.072,5.362,1.134,0.107,1,1,3.286,9.067,2
1778187205177,-0.096,0.962,-0.704,-0.055,-0.101,0.013,122.668,4.289,1.073,0.078,1,1,3.255,9.08,2
1778187205191,-0.098,0.96,-0.697,-0.052,-0.096,0.015,122.432,4.634,1.062,0.07,1,1,3.286,9.094,2
1778187205204,-0.096,0.957,-0.689,-0.048,-0.092,0.016,122.241,4.479,1.042,0.057,1,1,3.28,9.107,2
1778187205217,-0.097,0.955,-0.682,-0.045,-0.088,0.017,121.998,4.665,1.071,0.057,1,1,3.931,9.12,2
1778187205231,-0.097,0.953,-0.676,-0.043,-0.083,0.018,121.854,4.628,1.055,0.056,1,1,3.291,9.134,2
1778187205245,-0.096,0.95,-0.67,-0.041,-0.079,0.019,121.833,4.623,1.042,0.069,1,1,3.259,9.148,2
1778187205258,-0.095,0.948,-0.665,-0.039,-0.074,0.021,121.798,4.578,1.059,0.081,1,1,3.299,9.161,2
1778187205271,-0.094,0.946,-0.659,-0.038,-0.07,0.023,121.702,4.536,1.041,0.084,1,1,3.266,9.174,2
1778187205285,-0.093,0.943,-0.653,-0.036,-0.066,0.025,121.55,4.498,1.037,0.085,1,1,3.948,9.188,2
1778187205299,-0.091,0.941,-0.647,-0.034,-0.062,0.026,121.494,4.225,1.032,0.066,1,1,3.302,9.202,2
1778187205312,-0.087,0.938,-0.643,-0.033,-0.058,0.026,121.514,3.92,1.033,0.05,1,1,3.264,9.215,2
1778187205326,-0.085,0.936,-0.638,-0.032,-0.055,0.026,121.452,3.686,1.04,0.033,1,1,3.282,9.229,2
1778187205339,-0.083,0.934,-0.634,-0.03,-0.053,0.026,121.397,3.514,1.044,0.018,1,1,3.266,9.242,2
1778187205353,-0.081,0.932,-0.629,-0.029,-0.051,0.025,121.379,3.455,1.041,0.016,1,1,3.931,9.256,2
1778187205367,-0.08,0.931,-0.625,-0.028,-0.049,0.025,121.341,3.395,1.051,0.018,1,1,3.265,9.27,2
1778187205380,-0.078,0.93,-0.622,-0.026,-0.048,0.024,121.267,3.268,1.053,0.017,1,1,3.259,9.283,2
1778187205393,-0.077,0.929,-0.618,-0.024,-0.047,0.023,121.221,3.203,1.056,0.026,1,1,3.277,9.296,2
1778187205407,-0.076,0.928,-0.614,-0.023,-0.046,0.022,121.167,3.157,1.049,0.031,1,1,3.268,9.31,2
1778187205420,-0.075,0.927,-0.611,-0.021,-0.045,0.021,121.099,3.149,1.052,0.031,5,5,3.945,9.323,2
1778187205434,-0.074,0.926,-0.608,-0.019,-0.044,0.02,121.091,3.199,1.054,0.027,5,5,3.273,9.337,2
1778187205448,-0.074,0.924,-0.605,-0.018,-0.043,0.02,121.088,3.212,1.053,0.024,5,5,3.274,9.351,2
1778187205461,-0.073,0.923,-0.602,-0.017,-0.042,0.019,121.087,3.161,1.051,0.024,5,5,3.266,9.364,2
1778187205474,-0.072,0.922,-0.599,-0.016,-0.041,0.018,121.048,3.122,1.047,0.021,5,5,3.265,9.377,2
1778187205488,-0.071,0.921,-0.597,-0.015,-0.04,0.018,121.075,3.117,1.049,0.017,5,5,3.974,9.391,2
1778187205502,-0.071,0.92,-0.594,-0.014,-0.038,0.017,121.084,3.156,1.037,0.011,5,5,3.281,9.405,2
1778187205515,-0.07,0.919,-0.592,-0.013,-0.037,0.017,121.066,3.166,1.047,0.009,5,5,3.279,9.418,2
1778187205529,-0.07,0.917,-0.59,-0.013,-0.036,0.017,121.147,3.136,1.05,0.013,5,5,3.279,9.432,2
1778187205542,-0.069,0.917,-0.588,-0.013,-0.035,0.016,121.109,3.105,1.048,0.018,5,5,3.267,9.445,2
1778187205555,-0.068,0.916,-0.586,-0.013,-0.034,0.015,121.119,3.019,1.053,0.018,5,5,3.949,9.458,0
1778187205569,-0.066,0.915,-0.584,-0.014,-0.033,0.014,121.13,2.938,1.051,0.022,5,5,3.266,9.472,0
1778187205583,-0.065,0.914,-0.582,-0.014,-0.032,0.013,121.169,2.908,1.048,0.028,5,5,3.264,9.486,0
1778187205596,-0.066,0.913,-0.581,-0.014,-0.031,0.012,121.222,2.988,1.044,0.035,5,5,3.287,9.499,0
1778187205610,-0.066,0.912,-0.579,-0.015,-0.03,0.011,121.198,3.093,1.035,0.038,5,5,3.263,9.513,0
1778187205623,-0.066,0.911,-0.577,-0.015,-0.03,0.009,121.191,3.138,1.046,0.038,5,5,3.964,9.526,0
1778187205637,-0.067,0.911,-0.575,-0.016,-0.028,0.009,121.155,3.283,1.056,0.044,5,5,3.292,9.54,0
1778187205650,-0.067,0.911,-0.573,-0.017,-0.027,0.009,121.001,3.277,1.072,0.045,5,5,3.271,9.553,0
1778187205664,-0.065,0.912,-0.571,-0.018,-0.025,0.008,120.906,3.138,1.069,0.032,5,5,3.267,9.567,0
1778187205677,-0.064,0.912,-0.57,-0.018,-0.024,0.008,120.803,3.049,1.063,0.03,5,5,3.271,9.58,0
1778187205691,-0.063,0.913,-0.568,-0.018,-0.023,0.007,120.693,2.956,1.066,0.025,5,5,3.932,9.594,0
1778187205705,-0.063,0.913,-0.566,-0.017,-0.022,0.005,120.645,3.004,1.047,0.026,5,5,3.263,9.608,0
1778187205718,-0.064,0.912,-0.564,-0.017,-0.021,0.005,120.594,3.178,1.054,0.009,5,5,3.286,9.621,0
1778187205731,-0.064,0.914,-0.562,-0.016,-0.02,0.005,120.426,3.222,1.081,0.018,5,5,3.29,9.634,0
1778187205745,-0.065,0.915,-0.561,-0.015,-0.018,0.005,120.337,3.31,1.071,0.031,5,5,3.264,9.648,0
1778187205758,-0.065,0.915,-0.559,-0.014,-0.017,0.007,120.266,3.323,1.071,0.042,5,5,3.916,9.661,0
1778187205772,-0.065,0.918,-0.557,-0.011,-0.016,0.008,119.995,3.362,1.104,0.075,5,5,3.257,9.675,0
1778187205786,-0.065,0.918,-0.556,-0.009,-0.016,0.01,119.996,3.35,1.056,0.085,5,5,3.288,9.689,0
1778187205799,-0.062,0.919,-0.555,-0.005,-0.016,0.013,119.966,3.052,1.09,0.109,5,5,3.277,9.702,0
1778187205812,-0.059,0.925,-0.553,-0.001,-0.017,0.013,119.626,2.726,1.169,0.127,5,5,3.257,9.715,0
1778187205826,-0.058,0.932,-0.553,0.006,-0.018,0.015,119.333,2.636,1.219,0.209,3,3,3.93,9.729,0
1778187205840,-0.063,0.94,-0.553,0.018,-0.018,0.021,119.086,3.069,1.261,0.361,3,3,3.259,9.743,0
1778187205853,-0.061,0.941,-0.553,0.03,-0.018,0.03,119.098,2.894,1.105,0.416,3,3,3.311,9.756,0
1778187205867,-0.058,0.943,-0.553,0.042,-0.019,0.042,119.117,2.586,1.12,0.515,3,3,3.272,9.77,0
1778187205880,-0.055,0.942,-0.553,0.055,-0.021,0.055,119.318,2.332,1.087,0.559,3,3,3.265,9.783,0
1778187205893,-0.051,0.942,-0.553,0.067,-0.024,0.071,119.422,1.937,1.103,0.616,3,3,3.928,9.796,0
1778187205907,-0.043,0.942,-0.553,0.078,-0.03,0.091,119.567,1.005,1.089,0.743,3,3,3.264,9.81,0
1778187205921,-0.034,0.947,-0.553,0.089,-0.039,0.113,119.319,0.198,1.201,0.825,3,3,3.294,9.824,0
1778187205934,-0.025,0.95,-0.554,0.101,-0.05,0.133,119.343,-0.623,1.176,0.842,3,3,3.272,9.837,0
1778187205948,-0.016,0.951,-0.553,0.114,-0.063,0.152,119.312,-1.419,1.124,0.89,3,3,3.327,9.851,0
1778187205961,-0.003,0.95,-0.552,0.126,-0.08,0.174,119.293,-2.72,1.123,1.021,3,3,3.909,9.864,0
1778187205975,0.014,0.948,-0.55,0.137,-0.103,0.2,119.363,-4.375,1.098,1.183,3,3,3.256,9.878,0
1778187205988,0.03,0.946,-0.547,0.146,-0.13,0.228,119.191,-5.932,1.089,1.32,3,3,3.293,9.891,0
1778187206002,0.048,0.941,-0.543,0.153,-0.162,0.258,119.215,-7.724,1.039,1.469,3,3,3.268,9.905,0
1778187206015,0.065,0.934,-0.54,0.156,-0.199,0.289,119.413,-9.421,1.02,1.626,3,3,3.302,9.918,0
1778187206028,0.082,0.925,-0.536,0.156,-0.241,0.324,119.526,-11.114,0.968,1.799,5,5,3.929,9.931,0
1778187206042,0.094,0.918,-0.532,0.152,-0.287,0.359,119.679,-12.159,0.949,1.955,5,5,3.29,9.945,0
1778187206056,0.101,0.908,-0.53,0.144,-0.335,0.392,120.11,-12.602,0.877,2.008,5,5,3.287,9.959,0
1778187206069,0.104,0.9,-0.528,0.134,-0.382,0.421,120.425,-12.449,0.891,2.013,5,5,3.257,9.972,0
1778187206083,0.103,0.892,-0.527,0.122,-0.429,0.447,120.869,-11.811,0.886,1.996,5,5,3.293,9.986,0
1778187206096,0.099,0.884,-0.526,0.107,-0.474,0.469,121.35,-10.794,0.866,1.964,5,5,3.919,9.999,0
1778187206110,0.094,0.877,-0.525,0.09,-0.516,0.489,121.693,-9.645,0.895,1.928,5,5,3.291,10.013,0
1778187206124,0.09,0.871,-0.525,0.071,-0.556,0.507,121.968,-8.708,0.898,1.931,5,5,3.351,10.027,0
1778187206137,0.088,0.865,-0.524,0.048,-0.596,0.528,122.268,-8.142,0.882,2.002,5,5,3.28,10.04,0
1778187206150,0.088,0.861,-0.523,0.023,-0.637,0.551,122.345,-7.907,0.924,2.156,5,5,3.364,10.053,0
1778187206164,0.089,0.862,-0.524,-0.002,-0.684,0.575,122.248,-7.752,1.057,2.352,5,5,3.906,10.067,0
1778187206178,0.088,0.867,-0.526,-0.025,-0.74,0.601,122.058,-7.312,1.122,2.605,5,5,3.264,10.081,0
1778187206191,0.082,0.871,-0.529,-0.045,-0.806,0.626,122.015,-6.387,1.126,2.87,5,5,3.251,10.094,0
1778187206205,0.072,0.875,-0.53,-0.064,-0.868,0.647,121.855,-5.08,1.123,2.826,5,5,3.262,10.108,0
1778187206218,0.058,0.876,-0.528,-0.083,-0.929,0.659,121.537,-3.33,1.06,2.743,5,5,3.305,10.121,0
1778187206231,0.043,0.88,-0.522,-0.102,-0.987,0.668,120.633,-1.542,1.088,2.722,5,5,3.881,10.134,0
1778187206245,0.025,0.891,-0.514,-0.119,-1.043,0.68,119.24,0.292,1.226,2.754,5,5,3.256,10.148,0
1778187206259,0.013,0.903,-0.501,-0.132,-1.098,0.694,117.53,1.391,1.219,2.759,5,5,3.262,10.162,0
1778187206272,0.002,0.914,-0.485,-0.141,-1.15,0.705,115.488,2.317,1.174,2.717,5,5,3.254,10.175,0
1778187206285,-0.007,0.925,-0.466,-0.146,-1.2,0.713,113.338,3.055,1.192,2.672,5,5,3.304,10.188,0
1778187206299,-0.016,0.938,-0.446,-0.145,-1.248,0.72,111.175,3.749,1.236,2.668,5,5,3.908,10.202,0
1778187206313,-0.025,0.949,-0.427,-0.142,-1.295,0.732,109.151,4.408,1.202,2.705,5,5,3.29,10.216,0
1778187206326,-0.035,0.954,-0.409,-0.141,-1.339,0.749,107.394,5.232,1.112,2.773,5,5,3.276,10.229,0
1778187206340,-0.045,0.956,-0.391,-0.143,-1.382,0.772,105.711,6.173,1.015,2.856,5,5,3.276,10.243,0
1778187206353,-0.056,0.956,-0.373,-0.152,-1.424,0.799,104.184,7.243,1.003,2.949,5,5,3.318,10.256,0
1778187206366,-0.067,0.958,-0.357,-0.167,-1.464,0.828,102.863,8.145,1.053,3.011,5,5,3.918,10.269,0
1778187206380,-0.077,0.962,-0.343,-0.183,-1.502,0.857,101.778,8.847,1.101,3.029,5,5,3.279,10.283,0
1778187206394,-0.085,0.969,-0.331,-0.198,-1.539,0.882,101.053,9.259,1.149,2.992,5,5,3.282,10.297,0
1778187206407,-0.091,0.975,-0.322,-0.211,-1.575,0.902,100.636,9.449,1.125,2.925,5,5,3.261,10.31,0
1778187206421,-0.096,0.978,-0.317,-0.221,-1.609,0.918,100.679,9.591,1.081,2.883,5,5,3.281,10.324,0
1778187206434,-0.098,0.979,-0.314,-0.228,-1.642,0.933,100.933,9.458,1.039,2.855,5,5,3.909,10.337,0
1778187206448,-0.102,0.979,-0.313,-0.234,-1.674,0.946,101.442,9.476,1.037,2.835,5,5,3.297,10.351,0
1778187206461,-0.107,0.978,-0.315,-0.237,-1.705,0.956,102.31,9.736,1.06,2.801,5,5,3.279,10.364,0
1778187206475,-0.114,0.977,-0.32,-0.236,-1.735,0.96,103.472,10.221,1.083,2.728,5,5,3.279,10.378,0
1778187206488,-0.127,0.972,-0.33,-0.233,-1.763,0.957,105.252,11.279,1.087,2.655,5,5,3.256,10.391,0
1778187206502,-0.141,0.964,-0.344,-0.227,-1.788,0.948,107.569,12.477,1.137,2.528,5,5,3.914,10.405,0
1778187206516,-0.158,0.955,-0.365,-0.219,-1.79,0.933,110.453,13.654,1.224,1.927,5,5,3.293,10.419,0
1778187206529,-0.236,0.936,-0.464,-0.185,-1.774,0.911,116.007,15.77,3.309,1.576,5,5,3.263,10.432,0
1778187206542,-0.231,0.934,-0.468,-0.148,-1.742,0.877,116.482,14.924,1.061,1.221,5,5,3.281,10.445,0
1778187206556,-0.236,0.946,-0.457,-0.109,-1.69,0.843,114.959,15.068,1.267,0.982,5,5,3.382,10.459,0
1778187206569,-0.229,0.951,-0.451,-0.067,-1.624,0.804,114.24,14.012,1.109,1.041,1,1,3.941,10.472,0
1778187206583,-0.22,0.954,-0.45,-0.026,-1.551,0.76,114.063,12.705,1.117,1.143,1,1,3.272,10.486,0
1778187206597,-0.201,0.947,-0.458,0.007,-1.488,0.717,115.41,10.363,1.02,0.978,1,1,3.268,10.5,0
1778187206610,-0.188,0.943,-0.463,0.036,-1.433,0.675,116.264,8.848,1.045,0.888,1,1,3.276,10.513,0
1778187206623,-0.182,0.939,-0.465,0.061,-1.383,0.637,116.685,8.331,1.003,0.783,1,1,3.26,10.526,0
1778187206637,-0.168,0.912,-0.47,0.07,-1.337,0.603,120.031,6.323,0.666,0.436,1,1,3.966,10.54,0
1778187206651,-0.166,0.902,-0.48,0.076,-1.291,0.575,121.463,6.443,0.992,0.305,1,1,3.267,10.554,0
1778187206664,-0.164,0.904,-0.483,0.078,-1.246,0.551,121.355,6.397,1.115,0.172,1,1,3.265,10.567,0
1778187206678,-0.166,0.904,-0.486,0.078,-1.2,0.532,121.278,6.844,1.069,0.09,1,1,3.294,10.581,0
1778187206691,-0.165,0.905,-0.487,0.077,-1.154,0.517,121.085,6.911,1.066,0.143,1,1,3.322,10.594,0
1778187206704,-0.16,0.906,-0.489,0.075,-1.109,0.504,120.997,6.615,1.067,0.182,1,1,3.952,10.607,0
1778187206719,-0.152,0.907,-0.489,0.075,-1.066,0.49,120.733,5.828,1.058,0.15,1,1,3.271,10.622,0
1778187206732,-0.144,0.907,-0.49,0.075,-1.026,0.474,120.561,5.081,1.037,0.099,1,1,3.271,10.635,0
1778187206745,-0.135,0.907,-0.49,0.075,-0.988,0.457,120.387,4.253,1.034,0.083,1,1,3.297,10.648,0
1778187206759,-0.125,0.906,-0.491,0.076,-0.954,0.437,120.327,3.417,1.031,0.145,1,1,3.338,10.662,0
1778187206772,-0.119,0.906,-0.491,0.077,-0.923,0.415,120.208,3.008,1.024,0.207,1,1,3.937,10.675,0
1778187206786,-0.112,0.906,-0.492,0.078,-0.895,0.393,120.107,2.541,1.045,0.259,1,1,3.267,10.689,0
1778187206800,-0.108,0.906,-0.493,0.079,-0.868,0.371,120.065,2.37,1.042,0.298,1,1,3.253,10.703,0
1778187206813,-0.106,0.906,-0.495,0.08,-0.843,0.35,120.185,2.418,1.052,0.306,1,1,3.279,10.716,0
1778187206826,-0.105,0.906,-0.498,0.081,-0.819,0.329,120.241,2.667,1.062,0.285,1,1,3.25,10.729,0
1778187206840,-0.105,0.905,-0.5,0.081,-0.794,0.311,120.367,2.907,1.055,0.249,1,1,3.931,10.743,0
1778187206854,-0.105,0.905,-0.502,0.081,-0.77,0.294,120.496,3.245,1.064,0.204,1,1,3.282,10.757,0
1778187206867,-0.105,0.904,-0.505,0.079,-0.745,0.28,120.655,3.495,1.048,0.151,1,1,3.295,10.77,0
1778187206881,-0.106,0.904,-0.507,0.077,-0.72,0.267,120.741,3.752,1.069,0.108,1,1,3.267,10.784,0
1778187206894,-0.105,0.905,-0.508,0.074,-0.695,0.255,120.678,3.893,1.059,0.07,1,1,3.267,10.797,0
1778187206907,-0.106,0.905,-0.509,0.071,-0.671,0.244,120.69,4.135,1.062,0.038,1,1,3.961,10.81,0
1778187206921,-0.105,0.905,-0.51,0.068,-0.646,0.235,120.66,4.201,1.059,0.026,1,1,3.268,10.824,0
1778187206935,-0.105,0.905,-0.511,0.065,-0.623,0.226,120.666,4.263,1.051,0.026,1,1,3.272,10.838,0
1778187206948,-0.104,0.905,-0.512,0.061,-0.6,0.217,120.605,4.348,1.055,0.026,1,1,3.254,10.851,0
1778187206962,-0.102,0.906,-0.512,0.058,-0.577,0.209,120.473,4.243,1.056,0.022,1,1,3.286,10.865,0
1778187206975,-0.101,0.906,-0.512,0.056,-0.557,0.2,120.393,4.215,1.053,0.03,1,1,3.917,10.878,0
1778187206989,-0.1,0.907,-0.513,0.054,-0.537,0.191,120.3,4.184,1.062,0.041,1,1,3.261,10.892,0
1778187207002,-0.099,0.907,-0.513,0.053,-0.518,0.183,120.231,4.21,1.043,0.058,1,1,3.251,10.905,2
1778187207016,-0.098,0.906,-0.513,0.052,-0.5,0.174,120.214,4.215,1.048,0.062,1,1,3.261,10.919,2
1778187207029,-0.098,0.907,-0.514,0.051,-0.482,0.166,120.17,4.362,1.059,0.052,1,1,3.254,10.932,2
1778187207042,-0.098,0.907,-0.514,0.05,-0.465,0.159,120.153,4.433,1.057,0.048,5,5,3.919,10.945,2
1778187207056,-0.099,0.907,-0.515,0.049,-0.448,0.153,120.167,4.629,1.064,0.032,5,5,3.305,10.959,2
1778187207070,-0.1,0.907,-0.516,0.048,-0.432,0.147,120.163,4.78,1.058,0.022,5,5,3.295,10.973,2
1778187207083,-0.099,0.907,-0.516,0.047,-0.415,0.142,120.149,4.801,1.053,0.022,5,5,3.287,10.986,2
1778187207097,-0.1,0.908,-0.517,0.046,-0.399,0.137,120.186,4.932,1.064,0.027,5,5,3.261,11.0,2
1778187207110,-0.099,0.908,-0.517,0.044,-0.384,0.133,120.153,4.912,1.058,0.035,5,5,3.948,11.013,2
1778187207124,-0.1,0.908,-0.517,0.043,-0.368,0.13,120.07,5.028,1.062,0.054,5,5,3.257,11.027,2
1778187207137,-0.1,0.908,-0.518,0.041,-0.353,0.127,120.117,5.026,1.06,0.065,5,5,3.287,11.04,2
1778187207151,-0.1,0.908,-0.519,0.039,-0.338,0.124,120.193,5.099,1.055,0.081,5,5,3.28,11.054,2
1778187207164,-0.1,0.908,-0.52,0.037,-0.323,0.122,120.258,5.101,1.052,0.09,5,5,3.305,11.067,2
1778187207178,-0.1,0.907,-0.52,0.035,-0.309,0.121,120.276,5.102,1.048,0.105,2,2,3.977,11.081,2
1778187207192,-0.099,0.907,-0.521,0.033,-0.295,0.119,120.308,5.054,1.042,0.114,2,2,3.268,11.095,2
1778187207205,-0.097,0.907,-0.521,0.031,-0.281,0.118,120.303,4.91,1.049,0.117,2,2,3.283,11.108,2
1778187207218,-0.096,0.906,-0.521,0.029,-0.268,0.116,120.308,4.748,1.047,0.111,2,2,3.268,11.121,2
1778187207232,-0.095,0.907,-0.521,0.027,-0.255,0.115,120.269,4.668,1.057,0.108,2,2,3.286,11.135,2
1778187207245,-0.094,0.907,-0.522,0.025,-0.243,0.113,120.255,4.589,1.056,0.104,2,2,3.925,11.148,2
1778187207259,-0.092,0.907,-0.522,0.024,-0.231,0.112,120.239,4.455,1.061,0.101,2,2,3.308,11.162,2
1778187207273,-0.091,0.908,-0.523,0.023,-0.22,0.111,120.25,4.421,1.057,0.108,2,2,3.281,11.176,2
1778187207286,-0.09,0.908,-0.522,0.022,-0.209,0.11,120.167,4.343,1.062,0.114,2,2,3.262,11.189,3
1778187207299,-0.09,0.909,-0.523,0.021,-0.199,0.109,120.108,4.319,1.063,0.121,2,2,3.254,11.202,3
1778187207313,-0.089,0.909,-0.523,0.02,-0.188,0.109,120.14,4.335,1.056,0.14,2,2,3.919,11.216,3
1778187207327,-0.089,0.909,-0.523,0.02,-0.178,0.11,120.112,4.304,1.054,0.15,2,2,3.273,11.23,3
1778187207340,-0.088,0.909,-0.524,0.019,-0.167,0.111,120.152,4.237,1.065,0.169,2,2,3.295,11.243,3
1778187207354,-0.086,0.91,-0.523,0.019,-0.157,0.112,120.041,4.129,1.07,0.18,2,2,3.267,11.257,3
1778187207367,-0.084,0.912,-0.523,0.021,-0.147,0.113,119.937,3.918,1.077,0.193,2,2,3.316,11.27,3
1778187207380,-0.082,0.913,-0.523,0.024,-0.137,0.114,119.861,3.749,1.078,0.208,5,5,3.913,11.283,3
1778187207394,-0.081,0.915,-0.523,0.028,-0.127,0.114,119.696,3.611,1.086,0.231,5,5,3.265,11.297,3
1778187207408,-0.079,0.917,-0.521,0.036,-0.117,0.114,119.42,3.46,1.081,0.305,5,5,3.301,11.311,3
1778187207421,-0.077,0.92,-0.521,0.048,-0.106,0.115,119.244,3.306,1.117,0.421,5,5,3.286,11.324,3
1778187207435,-0.075,0.929,-0.523,0.067,-0.096,0.112,118.995,3.127,1.262,0.582,5,5,3.273,11.338,3
1778187207448,-0.077,0.937,-0.525,0.092,-0.083,0.113,118.854,3.388,1.249,0.804,3,3,3.927,11.351,3
1778187207462,-0.08,0.946,-0.527,0.122,-0.068,0.114,118.597,3.695,1.293,0.947,3,3,3.262,11.365,3
1778187207475,-0.079,0.965,-0.531,0.149,-0.054,0.124,118.191,3.492,1.514,1.002,3,3,3.277,11.378,3
1778187207489,-0.074,0.98,-0.534,0.182,-0.042,0.134,117.877,3.065,1.433,1.134,3,3,3.268,11.392,3
1778187207502,-0.072,0.987,-0.537,0.219,-0.03,0.147,117.798,2.842,1.287,1.289,3,3,3.27,11.405,3
1778187207516,-0.07,1.005,-0.542,0.252,-0.017,0.162,117.524,2.695,1.539,1.299,3,3,3.912,11.419,3
1778187207530,-0.068,1.034,-0.544,0.284,-0.01,0.169,116.766,2.55,1.766,1.179,3,3,3.267,11.433,3
1778187207543,-0.065,1.059,-0.545,0.32,-0.006,0.176,116.122,2.27,1.706,1.301,3,3,3.27,11.446,3
1778187207556,-0.062,1.086,-0.546,0.361,-0.001,0.186,115.359,2.029,1.772,1.51,3,3,3.266,11.459,4
1778187207570,-0.056,1.122,-0.545,0.414,0.001,0.197,114.414,1.646,1.972,1.856,3,3,3.374,11.473,4
1778187207583,-0.05,1.165,-0.539,0.485,0.001,0.207,113.172,1.27,2.16,2.361,3,3,3.912,11.486,4
1778187207597,-0.043,1.222,-0.532,0.56,0.0,0.214,111.789,0.944,2.502,2.531,3,3,3.269,11.5,4
1778187207611,-0.04,1.286,-0.532,0.632,0.001,0.214,110.76,0.798,2.725,2.512,3,3,3.274,11.514,4
1778187207624,-0.04,1.337,-0.541,0.701,0.007,0.214,110.38,0.806,2.553,2.515,3,3,3.252,11.527,4
1778187207637,-0.028,1.359,-0.547,0.768,0.011,0.218,110.378,0.056,1.998,2.525,3,3,3.279,11.54,4
1778187207651,-0.037,1.387,-0.56,0.832,0.018,0.219,110.608,0.637,2.171,2.52,4,4,3.902,11.554,4
1778187207665,-0.041,1.399,-0.544,0.894,0.027,0.242,109.313,0.994,1.692,2.653,4,4,3.264,11.568,4
1778187207678,-0.044,1.406,-0.496,0.954,0.036,0.288,105.566,1.263,1.659,2.923,4,4,3.311,11.581,4
1778187207692,0.007,1.223,-0.476,1.011,0.024,0.33,86.867,-0.942,3.008,2.894,4,4,3.274,11.595,5
1778187207705,-0.003,1.138,-0.465,0.99,0.013,0.356,68.442,0.804,0.787,1.139,4,4,3.333,11.608,5
1778187207718,-0.013,1.1,-0.447,0.933,0.007,0.362,71.863,4.439,0.347,0.757,4,4,3.916,11.621,5
1778187207732,-0.025,1.086,-0.427,0.87,0.006,0.359,73.438,5.911,0.832,0.828,4,4,3.267,11.635,5
1778187207746,-0.034,1.077,-0.412,0.816,0.009,0.356,75.511,6.777,0.924,0.65,4,4,3.264,11.649,5
1778187207759,-0.037,1.049,-0.394,0.766,0.01,0.35,76.98,7.409,0.452,0.568,4,4,3.254,11.662,5
1778187207773,-0.04,1.01,-0.375,0.709,0.009,0.34,77.163,9.724,0.194,0.764,4,4,3.382,11.676,5
1778187207786,-0.044,0.967,-0.355,0.64,0.004,0.33,70.749,13.719,0.154,1.174,4,4,3.911,11.689,5
1778187207800,-0.047,0.924,-0.334,0.552,-0.002,0.32,62.97,16.703,0.177,1.737,4,4,3.267,11.703,5
1778187207813,-0.05,0.887,-0.313,0.448,-0.011,0.312,59.932,18.183,0.192,2.262,4,4,3.262,11.716,5
1778187207827,-0.052,0.859,-0.294,0.339,-0.023,0.305,60.119,18.26,0.297,2.526,4,4,3.438,11.73,5
1778187207840,-0.056,0.84,-0.278,0.234,-0.036,0.302,62.001,18.304,0.457,2.537,4,4,3.292,11.743,5
1778187207854,-0.061,0.829,-0.265,0.132,-0.049,0.299,64.558,18.075,0.61,2.544,4,4,3.928,11.757,5
1778187207868,-0.065,0.825,-0.256,0.034,-0.062,0.298,67.471,17.56,0.765,2.548,4,4,3.269,11.771,5
1778187207881,-0.068,0.827,-0.251,-0.06,-0.075,0.299,70.453,16.73,0.899,2.555,4,4,3.265,11.784,5
1778187207894,-0.069,0.83,-0.248,-0.15,-0.089,0.302,73.396,15.586,0.919,2.568,4,4,3.262,11.797,5
1778187207908,-0.066,0.838,-0.248,-0.237,-0.102,0.31,76.228,14.138,1.032,2.592,4,4,3.287,11.811,5
1778187207921,-0.064,0.854,-0.252,-0.321,-0.115,0.321,79.13,12.824,1.255,2.615,5,5,3.942,11.824,5
1778187207935,-0.066,0.876,-0.268,-0.402,-0.125,0.33,82.432,12.052,1.489,2.596,5,5,3.277,11.838,5
1778187207949,-0.076,0.91,-0.294,-0.48,-0.128,0.332,85.766,11.729,1.894,2.536,5,5,3.259,11.852,5
1778187207962,-0.087,0.951,-0.33,-0.555,-0.119,0.315,89.119,11.432,2.184,2.507,5,5,3.258,11.865,5
1778187207975,-0.09,0.993,-0.372,-0.627,-0.098,0.277,92.496,10.719,2.309,2.637,5,5,3.339,11.878,5
1778187207989,-0.083,1.033,-0.426,-0.697,-0.069,0.241,96.028,9.538,2.496,2.689,5,5,3.922,11.892,5
1778187208003,-0.058,1.076,-0.488,-0.764,-0.038,0.22,99.525,7.7,2.761,2.636,5,5,3.271,11.906,5
1778187208016,-0.03,1.112,-0.559,-0.828,-0.009,0.213,103.155,5.866,2.911,2.609,5,5,3.261,11.919,5
1778187208030,-0.015,1.141,-0.64,-0.89,0.021,0.209,107.021,4.713,3.009,2.625,5,5,3.262,11.933,5
1778187208043,-0.008,1.157,-0.724,-0.938,0.054,0.197,111.05,4.002,2.978,2.355,5,5,3.289,11.946,5
1778187208056,0.009,1.158,-0.801,-0.955,0.085,0.178,115.215,2.862,2.765,1.695,5,5,3.915,11.959,1
1778187208070,0.03,1.141,-0.882,-0.948,0.105,0.17,119.832,1.668,2.81,1.007,5,5,3.274,11.973,1
1778187208084,0.043,1.115,-0.957,-0.921,0.113,0.162,124.428,0.811,2.684,0.372,5,5,3.31,11.987,1
1778187208097,0.045,1.096,-1.024,-0.872,0.111,0.145,128.25,0.542,2.587,0.497,5,5,3.258,12.0,1
1778187208111,0.218,1.223,-1.017,-0.746,0.051,0.14,125.765,-3.729,5.722,2.918,5,5,3.269,12.014,1
1778187208124,0.282,1.242,-0.915,-0.645,0.014,0.113,118.705,-7.018,2.683,2.279,5,5,3.946,12.027,1
1778187208138,0.256,1.257,-0.863,-0.528,-0.034,0.083,115.035,-5.316,1.634,2.896,5,5,3.282,12.041,1
1778187208151,0.212,1.239,-0.841,-0.416,-0.054,0.056,114.829,-1.119,1.2,2.64,5,5,3.281,12.054,1
1778187208165,0.197,1.226,-0.823,-0.308,-0.06,0.033,114.762,-0.376,1.021,2.577,5,5,3.274,12.068,1
1778187208178,0.177,1.199,-0.825,-0.207,-0.057,0.009,117.612,0.972,1.099,2.49,5,5,3.338,12.081,1
1778187208192,0.162,1.176,-0.827,-0.128,-0.051,-0.01,119.932,1.71,1.108,1.978,5,5,3.915,12.095,1
1778187208206,0.155,1.149,-0.827,-0.074,-0.053,-0.023,122.386,1.502,0.999,1.397,5,5,3.317,12.109,1
1778187208219,0.134,1.13,-0.821,-0.034,-0.052,-0.028,123.54,3.105,1.045,1.017,5,5,3.255,12.122,1
1778187208232,0.111,1.092,-0.818,-0.006,-0.045,-0.026,127.131,5.249,0.891,0.72,5,5,3.268,12.135,1
1778187208246,0.084,1.082,-0.804,0.007,-0.04,-0.017,126.401,7.361,1.136,0.41,5,5,3.265,12.149,2
1778187208259,0.08,1.076,-0.793,0.013,-0.035,-0.008,125.802,6.699,1.094,0.306,1,1,3.917,12.162,2
1778187208273,0.069,1.07,-0.782,0.018,-0.03,0.003,125.246,6.871,1.087,0.336,1,1,3.275,12.176,2
1778187208287,0.069,1.066,-0.77,0.022,-0.025,0.012,124.5,5.899,1.095,0.309,1,1,3.261,12.19,2
1778187208300,0.074,1.059,-0.759,0.025,-0.021,0.016,124.036,4.429,1.07,0.183,1,1,3.266,12.203,2
1778187208313,0.078,1.053,-0.747,0.028,-0.021,0.014,123.529,3.152,1.055,0.124,1,1,3.269,12.216,2
1778187208327,0.078,1.046,-0.737,0.032,-0.023,0.009,123.125,2.399,1.039,0.195,1,1,4.047,12.23,2
1778187208341,0.071,1.041,-0.728,0.035,-0.025,0.004,122.787,2.596,1.068,0.195,1,1,3.284,12.244,2
1778187208354,0.062,1.036,-0.719,0.037,-0.026,0.001,122.523,2.997,1.081,0.124,1,1,3.268,12.257,2
1778187208368,0.053,1.032,-0.711,0.039,-0.025,0.001,122.218,3.418,1.096,0.09,1,1,3.3,12.271,2
1778187208381,0.045,1.027,-0.703,0.04,-0.022,0.003,122.008,3.764,1.072,0.108,1,1,3.363,12.284,2
1778187208395,0.037,1.025,-0.695,0.041,-0.019,0.007,121.666,4.129,1.106,0.13,1,1,3.936,12.298,2
1778187208409,0.033,1.019,-0.688,0.042,-0.016,0.009,121.547,4.025,1.052,0.12,1,1,3.262,12.312,2
1778187208422,0.03,1.013,-0.681,0.042,-0.013,0.011,121.503,3.773,1.025,0.1,1,1,3.262,12.325,2
1778187208435,0.029,1.008,-0.675,0.043,-0.011,0.011,121.404,3.419,1.042,0.061,1,1,3.286,12.338,2
1778187208449,0.028,1.003,-0.668,0.042,-0.01,0.01,121.287,3.003,1.025,0.041,1,1,3.255,12.352,2
1778187208462,0.027,0.998,-0.661,0.042,-0.01,0.009,121.249,2.733,1.029,0.032,1,1,3.927,12.365,2
1778187208476,0.025,0.993,-0.656,0.041,-0.01,0.007,121.224,2.536,1.029,0.049,1,1,3.269,12.379,2
1778187208490,0.023,0.988,-0.65,0.041,-0.01,0.005,121.132,2.401,1.034,0.057,1,1,3.263,12.393,2
1778187208503,0.022,0.984,-0.644,0.041,-0.011,0.003,121.09,2.188,1.032,0.073,1,1,3.277,12.406,2
1778187208516,0.02,0.981,-0.639,0.041,-0.012,0.001,120.972,2.116,1.056,0.087,1,1,3.26,12.419,2
1778187208530,0.018,0.978,-0.634,0.041,-0.014,-0.002,120.894,2.009,1.055,0.102,1,1,3.933,12.433,3
1778187208544,0.016,0.975,-0.63,0.042,-0.016,-0.004,120.833,1.975,1.058,0.111,1,1,3.29,12.447,3
1778187208557,0.014,0.973,-0.625,0.043,-0.018,-0.006,120.669,1.989,1.063,0.114,1,1,3.265,12.46,3
1778187208571,0.011,0.97,-0.622,0.045,-0.02,-0.007,120.702,2.079,1.059,0.114,1,1,3.266,12.474,3
1778187208584,0.007,0.968,-0.618,0.046,-0.021,-0.008,120.689,2.238,1.063,0.107,1,1,3.329,12.487,3
1778187208597,0.004,0.966,-0.615,0.049,-0.021,-0.007,120.676,2.331,1.075,0.113,1,1,3.999,12.5,3
1778187208611,0.002,0.965,-0.612,0.052,-0.021,-0.007,120.63,2.377,1.092,0.133,1,1,3.261,12.514,3
1778187208625,-0.002,0.962,-0.609,0.056,-0.02,-0.006,120.666,2.611,1.063,0.169,1,1,3.278,12.528,3
1778187208638,-0.006,0.964,-0.606,0.062,-0.018,-0.005,120.484,2.792,1.148,0.223,1,1,3.318,12.541,3
1778187208652,-0.012,0.971,-0.604,0.072,-0.016,-0.002,120.119,3.167,1.263,0.325,1,1,3.271,12.555,3
1778187208665,-0.016,0.975,-0.604,0.086,-0.011,0.002,119.975,3.256,1.226,0.494,3,3,3.933,12.568,3
1778187208679,-0.019,0.983,-0.603,0.106,-0.005,0.008,119.691,3.329,1.288,0.67,3,3,3.27,12.582,3
1778187208693,-0.023,0.994,-0.603,0.131,0.002,0.018,119.329,3.457,1.382,0.836,3,3,3.275,12.596,3
1778187208706,-0.024,1.006,-0.604,0.161,0.01,0.027,119.036,3.313,1.412,1.004,3,3,3.261,12.609,3
1778187208719,-0.025,1.036,-0.605,0.192,0.017,0.032,118.241,3.124,1.805,1.032,3,3,3.264,12.622,3
1778187208733,-0.022,1.051,-0.605,0.226,0.024,0.036,117.817,2.703,1.518,1.127,3,3,3.956,12.636,3
1778187208747,-0.019,1.074,-0.604,0.264,0.028,0.04,117.076,2.32,1.688,1.267,3,3,3.296,12.65,3
1778187208760,-0.016,1.097,-0.601,0.308,0.03,0.043,116.271,1.87,1.682,1.474,3,3,3.272,12.663,3
1778187208773,-0.012,1.118,-0.598,0.361,0.028,0.047,115.519,1.486,1.66,1.726,3,3,3.276,12.676,4
1778187208787,-0.008,1.148,-0.591,0.423,0.024,0.05,114.418,1.121,1.861,2.043,3,3,3.29,12.69,4
1778187208800,0.001,1.181,-0.584,0.498,0.017,0.05,113.3,0.468,1.954,2.445,3,3,3.949,12.703,4
1778187208814,0.014,1.215,-0.576,0.572,0.006,0.046,112.185,-0.384,2.031,2.518,3,3,3.255,12.717,4
1778187208828,0.023,1.262,-0.57,0.644,-0.006,0.039,111.127,-0.9,2.33,2.524,3,3,3.272,12.731,4
1778187208841,0.033,1.315,-0.573,0.713,-0.018,0.03,110.475,-1.33,2.567,2.534,3,3,3.272,12.744,4
1778187208855,0.037,1.353,-0.578,0.779,-0.03,0.021,110.205,-1.508,2.309,2.533,3,3,3.294,12.758,4
1778187208868,0.033,1.375,-0.602,0.843,-0.038,0.002,111.244,-1.208,2.176,2.561,4,4,3.974,12.771,4
1778187208882,0.034,1.395,-0.617,0.904,-0.044,-0.001,111.821,-1.254,2.052,2.51,4,4,3.262,12.785,4
1778187208895,0.029,1.403,-0.602,0.963,-0.049,0.003,110.67,-0.836,1.592,2.511,4,4,3.295,12.798,4
1778187208909,0.045,1.351,-0.507,1.021,-0.058,0.008,100.901,-2.117,1.633,2.521,4,4,3.264,12.812,4
1778187208922,0.037,1.232,-0.505,1.05,-0.068,0.024,80.932,-1.359,1.448,1.892,4,4,3.258,12.825,4
1778187208936,0.023,1.177,-0.494,1.031,-0.072,0.05,56.611,3.393,0.358,0.926,4,4,3.937,12.839,5
1778187208950,0.006,1.143,-0.47,0.985,-0.067,0.057,59.107,7.269,0.552,0.314,4,4,3.256,12.853,5
1778187208963,-0.01,1.129,-0.45,0.936,-0.053,0.044,62.144,8.813,0.889,0.544,4,4,3.341,12.866,5
1778187208976,-0.021,1.101,-0.429,0.886,-0.033,0.02,64.501,10.556,0.568,0.876,4,4,3.261,12.879,5
1778187208990,-0.026,1.064,-0.406,0.829,-0.011,-0.006,64.726,12.147,0.3,1.11,4,4,3.304,12.893,5
1778187209003,-0.026,1.02,-0.381,0.757,0.012,-0.026,60.386,11.954,0.183,1.372,4,4,3.936,12.906,5
1778187209017,-0.021,0.973,-0.353,0.666,0.032,-0.038,53.285,9.066,0.277,1.823,4,4,3.268,12.92,5
1778187209031,-0.012,0.931,-0.324,0.558,0.046,-0.045,48.639,5.036,0.355,2.303,4,4,3.285,12.934,5
1778187209044,-0.002,0.899,-0.3,0.444,0.054,-0.049,47.745,1.316,0.372,2.517,4,4,3.287,12.947,5
1778187209057,0.006,0.873,-0.281,0.335,0.054,-0.046,49.464,-1.613,0.389,2.502,4,4,3.277,12.96,5
1778187209071,0.012,0.854,-0.268,0.23,0.049,-0.036,53.182,-3.234,0.468,2.512,4,4,3.933,12.974,5
1778187209085,0.015,0.845,-0.262,0.128,0.04,-0.022,57.72,-3.546,0.665,2.536,4,4,3.279,12.988,5
1778187209098,0.016,0.845,-0.261,0.031,0.028,-0.006,62.422,-3.491,0.873,2.551,4,4,3.319,13.001,5
1778187209112,0.016,0.849,-0.266,-0.063,0.013,0.009,67.092,-3.203,1.014,2.558,4,4,3.256,13.015,5
1778187209125,0.013,0.859,-0.274,-0.153,-0.004,0.021,71.461,-2.66,1.165,2.56,4,4,3.275,13.028,5
1778187209138,0.006,0.876,-0.286,-0.241,-0.019,0.032,75.447,-1.766,1.375,2.555,5,5,3.916,13.041,5
1778187209152,-0.002,0.898,-0.302,-0.324,-0.03,0.044,79.216,-0.961,1.522,2.546,5,5,3.267,13.055,5
1778187209166,-0.01,0.922,-0.32,-0.405,-0.038,0.054,82.785,-0.305,1.634,2.532,5,5,3.287,13.069,5
1778187209179,-0.016,0.947,-0.342,-0.483,-0.04,0.06,86.201,0.213,1.717,2.513,5,5,3.266,13.082,5
1778187209193,-0.021,0.974,-0.367,-0.558,-0.035,0.06,89.436,0.589,1.815,2.504,5,5,3.355,13.096,5
1778187209206,-0.023,1.007,-0.397,-0.63,-0.023,0.057,92.472,0.696,2.034,2.518,5,5,3.949,13.109,5
1778187209220,-0.022,1.045,-0.439,-0.699,-0.004,0.059,95.643,0.652,2.291,2.553,5,5,3.28,13.123,5
1778187209234,-0.015,1.087,-0.491,-0.766,0.019,0.068,98.84,0.27,2.595,2.597,5,5,3.273,13.137,5
1778187209247,-0.008,1.129,-0.556,-0.83,0.045,0.086,102.165,-0.0,2.855,2.654,5,5,3.265,13.15,5
1778187209260,-0.004,1.163,-0.63,-0.892,0.07,0.103,105.751,-0.151,2.938,2.664,5,5,3.292,13.163,5
1778187209274,0.004,1.181,-0.708,-0.947,0.096,0.104,109.638,-0.488,2.897,2.484,5,5,3.911,13.177,5
1778187209288,0.028,1.178,-0.792,-0.977,0.109,0.1,114.15,-1.488,2.915,1.812,5,5,3.299,13.191,1
1778187209301,0.06,1.167,-0.879,-0.982,0.104,0.107,118.665,-2.729,3.014,1.141,5,5,3.272,13.204,1
1778187209314,0.073,1.146,-0.965,-0.961,0.085,0.127,123.214,-3.124,2.957,0.868,5,5,3.259,13.217,1
1778187209328,0.064,1.124,-1.046,-0.916,0.06,0.144,127.411,-2.599,2.883,0.885,5,5,3.308,13.231,1
1778187209341,-0.034,1.018,-1.175,-0.79,0.03,0.119,99.867,0.256,4.734,2.642,5,5,3.91,13.244,1
1778187209355,0.013,1.044,-1.129,-0.682,-0.017,0.071,99.378,-2.877,1.911,2.716,5,5,3.292,13.258,1
1778187209370,0.009,1.049,-1.066,-0.564,-0.051,0.029,97.042,-2.277,1.199,2.866,5,5,3.265,13.273,1
1778187209383,-0.016,1.056,-1.036,-0.451,-0.056,-0.006,98.018,0.211,1.395,2.668,5,5,3.259,13.286,1
1778187209397,-0.031,1.051,-1.006,-0.341,-0.047,-0.03,99.145,2.125,1.063,2.595,5,5,3.342,13.3,1
1778187209410,-0.037,1.033,-0.997,-0.238,-0.037,-0.05,103.188,2.746,1.049,2.515,4,4,3.924,13.313,1
1778187209427,-0.051,1.022,-0.987,-0.155,-0.031,-0.06,106.153,4.231,1.156,2.02,4,4,5.794,13.33,1
1778187209440,-0.049,1.001,-0.979,-0.094,-0.028,-0.065,109.936,3.878,0.969,1.502,4,4,3.291,13.343,1
1778187209454,-0.053,0.989,-0.967,-0.052,-0.021,-0.068,112.263,4.19,1.019,1.076,4,4,3.267,13.357,1
1778187209467,-0.047,0.939,-0.988,-0.03,-0.021,-0.069,85.051,3.494,1.457,0.545,4,4,3.278,13.37,1
1778187209480,-0.066,0.931,-0.976,-0.016,-0.019,-0.066,89.651,5.536,1.143,0.353,1,1,3.925,13.383,1
1778187209496,-0.063,0.929,-0.96,-0.007,-0.019,-0.064,92.901,4.991,1.086,0.237,1,1,3.314,13.399,2
1778187209509,-0.064,0.924,-0.944,-0.001,-0.018,-0.061,96.072,4.932,1.011,0.135,1,1,3.257,13.412,2
1778187209524,-0.06,0.925,-0.926,0.002,-0.019,-0.061,98.271,4.334,1.083,0.118,1,1,4.218,13.427,2
1778187209537,-0.058,0.925,-0.909,0.005,-0.02,-0.061,100.365,3.982,1.073,0.115,1,1,3.28,13.44,2
1778187209550,-0.056,0.925,-0.892,0.008,-0.023,-0.062,102.219,3.753,1.07,0.146,1,1,3.919,13.453,2
1778187209565,-0.057,0.926,-0.877,0.01,-0.025,-0.063,103.89,3.712,1.073,0.139,1,1,3.306,13.468,2
1778187209578,-0.058,0.926,-0.862,0.013,-0.026,-0.064,105.418,3.75,1.072,0.133,1,1,3.255,13.481,2
1778187209591,-0.061,0.926,-0.848,0.015,-0.026,-0.063,106.835,4.047,1.09,0.085,1,1,3.363,13.494,2
1778187209605,-0.065,0.925,-0.835,0.017,-0.024,-0.059,108.184,4.489,1.078,0.075,1,1,3.261,13.508,2
1778187209618,-0.069,0.926,-0.822,0.018,-0.021,-0.054,109.29,4.815,1.087,0.122,1,1,3.937,13.521,2
1778187209632,-0.073,0.924,-0.811,0.019,-0.017,-0.048,110.615,5.206,1.07,0.14,1,1,3.277,13.535,2
1778187209646,-0.07,0.925,-0.799,0.02,-0.014,-0.043,111.454,4.707,1.088,0.121,1,1,3.257,13.549,2
1778187209660,-0.066,0.924,-0.787,0.022,-0.012,-0.041,112.318,4.122,1.037,0.073,1,1,3.284,13.563,2
1778187209674,-0.063,0.921,-0.776,0.022,-0.011,-0.039,113.222,3.725,1.023,0.048,1,1,3.258,13.577,2
1778187209687,-0.061,0.92,-0.766,0.023,-0.011,-0.039,113.968,3.541,1.054,0.057,1,1,3.973,13.59,2
1778187209702,-0.061,0.919,-0.756,0.024,-0.011,-0.039,114.662,3.459,1.046,0.058,1,1,3.279,13.605,2
1778187209717,-0.062,0.918,-0.747,0.025,-0.011,-0.038,115.267,3.525,1.042,0.054,1,1,5.233,13.62,2
1778187209730,-0.061,0.917,-0.738,0.026,-0.012,-0.037,115.811,3.49,1.048,0.054,1,1,3.277,13.633,2
1778187209744,-0.062,0.916,-0.728,0.027,-0.012,-0.035,116.239,3.552,1.046,0.057,1,1,3.266,13.647,2
1778187209757,-0.062,0.915,-0.72,0.028,-0.012,-0.033,116.703,3.537,1.042,0.057,1,1,3.976,13.66,2
1778187209771,-0.061,0.915,-0.712,0.029,-0.013,-0.032,117.076,3.454,1.056,0.061,1,1,3.273,13.674,2
1778187209784,-0.061,0.915,-0.704,0.03,-0.013,-0.03,117.358,3.367,1.063,0.067,1,1,3.268,13.687,2
1778187209798,-0.06,0.915,-0.697,0.031,-0.014,-0.029,117.631,3.302,1.057,0.076,1,1,3.269,13.701,3
1778187209811,-0.06,0.915,-0.69,0.033,-0.015,-0.027,117.921,3.31,1.054,0.082,1,1,3.271,13.714,3
1778187209825,-0.061,0.914,-0.684,0.035,-0.015,-0.026,118.293,3.319,1.064,0.091,1,1,3.97,13.728,3
1778187209839,-0.061,0.916,-0.677,0.038,-0.015,-0.024,118.314,3.355,1.099,0.123,1,1,3.266,13.742,3
1778187209852,-0.061,0.916,-0.671,0.042,-0.015,-0.023,118.563,3.321,1.064,0.135,1,1,3.286,13.755,3
1778187209866,-0.061,0.916,-0.666,0.046,-0.014,-0.021,118.815,3.333,1.072,0.16,1,1,3.27,13.769,3
1778187209879,-0.06,0.92,-0.661,0.053,-0.012,-0.02,118.799,3.155,1.145,0.234,1,1,3.258,13.782,3
1778187209892,-0.058,0.923,-0.657,0.062,-0.01,-0.021,118.897,3.005,1.146,0.296,4,4,3.949,13.795,3
1778187209906,-0.063,0.936,-0.653,0.078,-0.006,-0.019,118.466,3.404,1.357,0.5,4,4,3.262,13.809,3
1778187209920,-0.065,0.944,-0.65,0.101,0.001,-0.012,118.476,3.519,1.263,0.74,4,4,3.273,13.823,3
1778187209933,-0.067,0.956,-0.649,0.127,0.008,-0.002,118.286,3.615,1.38,0.869,4,4,3.271,13.836,3
1778187209946,-0.069,0.957,-0.647,0.157,0.017,0.011,118.675,3.771,1.162,1.041,4,4,3.262,13.849,3
1778187209960,-0.067,0.981,-0.649,0.188,0.025,0.021,118.295,3.523,1.663,1.052,4,4,3.911,13.863,3
1778187209974,-0.069,1.002,-0.648,0.221,0.032,0.029,117.826,3.549,1.578,1.14,4,4,3.263,13.877,3
1778187209987,-0.071,1.024,-0.647,0.257,0.038,0.038,117.27,3.618,1.639,1.216,4,4,3.278,13.89,3
1778187210000,-0.067,1.055,-0.644,0.298,0.043,0.047,116.452,3.241,1.818,1.416,4,4,3.269,13.903,3
1778187210014,-0.06,1.086,-0.636,0.35,0.044,0.058,115.345,2.626,1.843,1.738,4,4,3.264,13.917,4
1778187210027,-0.056,1.121,-0.628,0.414,0.042,0.071,114.226,2.286,1.926,2.109,4,4,3.915,13.93,4
1778187210041,-0.054,1.167,-0.617,0.492,0.038,0.084,112.857,2.075,2.209,2.538,4,4,3.265,13.944,4
1778187210055,-0.061,1.226,-0.608,0.566,0.035,0.103,111.528,2.332,2.559,2.574,4,4,3.279,13.958,4
1778187210068,-0.071,1.3,-0.603,0.638,0.037,0.124,110.402,2.653,2.983,2.593,4,4,3.265,13.971,4
1778187210081,-0.075,1.361,-0.605,0.707,0.047,0.146,109.741,2.742,2.777,2.615,4,4,3.269,13.984,4
1778187210095,-0.071,1.41,-0.616,0.774,0.051,0.158,109.692,2.413,2.627,2.55,4,4,3.864,13.998,4
1778187210109,-0.065,1.449,-0.628,0.838,0.054,0.156,109.864,2.045,2.457,2.507,4,4,3.273,14.012,4
1778187210122,-0.054,1.476,-0.6,0.899,0.055,0.169,107.9,1.362,2.089,2.554,4,4,3.266,14.025,4
1778187210135,-0.023,1.416,-0.518,0.959,0.05,0.183,98.01,-1.329,1.428,2.563,4,4,3.257,14.038,4
1778187210149,0.011,1.27,-0.509,1.016,0.018,0.197,79.231,-3.244,2.088,2.682,4,4,3.269,14.052,4
1778187210162,0.006,1.219,-0.494,1.027,-0.01,0.196,85.845,-0.115,0.222,1.528,4,4,3.871,14.065,4
1778187210176,-0.003,1.163,-0.468,0.999,-0.032,0.177,75.345,5.265,0.23,0.721,4,4,3.255,14.079,5
1778187210189,-0.019,1.123,-0.443,0.948,-0.041,0.153,74.527,10.001,0.459,0.674,4,4,3.279,14.092,5
1778187210203,-0.03,1.087,-0.417,0.887,-0.04,0.127,73.738,12.844,0.437,0.893,4,4,3.25,14.106,5
1778187210216,-0.034,1.048,-0.389,0.817,-0.032,0.101,70.558,13.505,0.31,1.161,4,4,3.281,14.119,5
1778187210229,-0.032,1.008,-0.362,0.739,-0.023,0.076,66.487,12.259,0.277,1.426,4,4,3.875,14.132,5
1778187210243,-0.026,0.962,-0.334,0.648,-0.015,0.052,59.278,9.042,0.299,1.808,4,4,3.258,14.146,5
1778187210257,-0.017,0.916,-0.306,0.543,-0.013,0.027,52.259,5.124,0.353,2.268,4,4,3.262,14.16,5
1778187210270,-0.006,0.878,-0.281,0.43,-0.018,0.003,48.183,0.967,0.357,2.584,4,4,3.26,14.173,5
1778187210283,0.005,0.849,-0.261,0.322,-0.029,-0.016,48.297,-3.089,0.385,2.574,4,4,3.273,14.186,5
1778187210297,0.016,0.83,-0.246,0.217,-0.046,-0.026,51.364,-5.723,0.489,2.561,4,4,3.879,14.2,5
1778187210311,0.024,0.82,-0.238,0.116,-0.065,-0.023,55.543,-6.925,0.636,2.564,4,4,3.261,14.214,5
1778187210324,0.028,0.818,-0.237,0.019,-0.084,-0.012,60.413,-7.026,0.8,2.582,4,4,3.259,14.227,5
1778187210338,0.03,0.821,-0.243,-0.074,-0.1,0.003,65.323,-6.845,0.971,2.588,4,4,3.255,14.241,5
1778187210351,0.03,0.829,-0.254,-0.164,-0.114,0.017,70.19,-6.266,1.125,2.575,4,4,3.283,14.254,5
1778187210364,0.028,0.844,-0.27,-0.251,-0.123,0.03,74.699,-5.609,1.314,2.551,5,5,3.877,14.267,5
1778187210378,0.024,0.866,-0.29,-0.335,-0.127,0.042,78.875,-4.905,1.545,2.536,5,5,3.263,14.281,5
1778187210392,0.021,0.895,-0.316,-0.415,-0.124,0.055,82.769,-4.251,1.764,2.533,5,5,3.268,14.295,5
1778187210405,0.02,0.93,-0.347,-0.492,-0.116,0.069,86.421,-3.833,1.966,2.54,5,5,3.254,14.308,5
1778187210418,0.022,0.962,-0.384,-0.567,-0.105,0.084,90.131,-3.647,2.061,2.553,5,5,3.285,14.321,5
1778187210432,0.024,0.994,-0.43,-0.639,-0.091,0.103,93.969,-3.478,2.216,2.582,5,5,3.868,14.335,5
1778187210446,0.027,1.033,-0.486,-0.708,-0.078,0.129,97.615,-3.373,2.55,2.646,5,5,3.265,14.349,5
1778187210459,0.033,1.076,-0.552,-0.774,-0.068,0.161,101.149,-3.352,2.848,2.696,5,5,3.266,14.362,5
1778187210472,0.039,1.113,-0.63,-0.838,-0.063,0.192,104.912,-3.322,3.022,2.69,5,5,3.256,14.375,5
1778187210486,0.047,1.139,-0.71,-0.9,-0.065,0.21,108.714,-3.403,2.998,2.593,5,5,3.279,14.389,5
1778187210499,0.062,1.146,-0.794,-0.946,-0.079,0.213,113.031,-3.831,2.972,2.215,5,5,3.921,14.402,5
1778187210513,0.07,1.132,-0.88,-0.964,-0.105,0.213,117.814,-3.909,2.882,1.642,5,5,3.28,14.416,1
1778187210526,0.052,1.11,-0.966,-0.955,-0.134,0.217,122.539,-2.924,2.925,1.169,5,5,3.263,14.429,1
1778187210540,0.008,1.086,-1.045,-0.918,-0.153,0.215,126.913,-0.856,3.006,0.671,5,5,3.256,14.443,1
1778187210553,-0.045,1.063,-1.113,-0.856,-0.155,0.192,130.796,1.538,2.925,0.877,5,5,3.282,14.456,1
1778187210567,-0.092,1.047,-1.164,-0.778,-0.141,0.144,133.863,3.795,2.625,1.677,5,5,3.915,14.47,1
1778187210581,-0.254,0.885,-1.184,-0.67,-0.102,0.117,109.585,8.234,4.901,2.405,5,5,3.275,14.484,1
1778187210594,-0.186,0.982,-1.069,-0.565,-0.118,0.073,105.347,5.482,3.664,2.464,5,5,3.282,14.497,1
1778187210607,-0.185,0.988,-1.032,-0.451,-0.135,0.027,104.985,5.716,1.15,2.817,5,5,3.263,14.51,1
1778187210621,-0.19,0.984,-1.0,-0.342,-0.139,-0.002,105.268,6.913,1.01,2.623,5,5,3.272,14.524,1
1778187210634,-0.197,0.967,-0.984,-0.236,-0.149,-0.027,108.298,8.243,0.925,2.62,5,5,3.914,14.537,1
1778187210648,-0.206,0.958,-0.975,-0.152,-0.142,-0.043,110.945,9.452,1.17,2.084,5,5,3.291,14.551,1
1778187210661,-0.191,0.942,-0.972,-0.092,-0.133,-0.057,114.328,7.822,1.076,1.539,5,5,3.273,14.564,1
1778187210675,-0.189,0.927,-0.966,-0.051,-0.126,-0.069,117.108,7.828,1.043,1.086,5,5,3.277,14.578,1
1778187210688,-0.194,0.922,-0.953,-0.023,-0.117,-0.072,118.37,8.654,1.089,0.738,5,5,3.257,14.591,1
1778187210703,-0.194,0.899,-0.944,-0.01,-0.113,-0.066,121.547,9.101,0.875,0.337,1,1,5.458,14.606,1
1778187210717,-0.192,0.9,-0.927,-0.002,-0.106,-0.053,121.504,8.886,1.085,0.346,1,1,3.266,14.62,1
1778187210731,-0.187,0.9,-0.911,0.004,-0.099,-0.039,121.522,8.539,1.066,0.386,1,1,3.297,14.634,2
1778187210745,-0.179,0.901,-0.894,0.01,-0.09,-0.027,121.362,7.651,1.062,0.36,1,1,4.189,14.648,2
1778187210758,-0.168,0.9,-0.878,0.014,-0.083,-0.017,121.371,6.612,1.018,0.284,1,1,3.274,14.661,2
1778187210772,-0.158,0.902,-0.86,0.018,-0.076,-0.01,120.887,5.642,1.065,0.229,1,1,3.911,14.675,2
1778187210786,-0.148,0.9,-0.846,0.021,-0.07,-0.006,120.932,4.724,1.003,0.162,1,1,3.27,14.689,2
1778187210799,-0.147,0.895,-0.836,0.024,-0.064,-0.004,121.619,4.975,1.023,0.139,1,1,3.263,14.702,2
1778187210813,-0.142,0.898,-0.821,0.025,-0.059,-0.002,121.129,4.612,1.08,0.111,1,1,3.324,14.716,2
1778187210826,-0.139,0.9,-0.807,0.027,-0.054,0.001,120.941,4.584,1.066,0.139,1,1,3.266,14.729,2
1778187210839,-0.136,0.901,-0.794,0.029,-0.048,0.005,120.682,4.5,1.065,0.177,1,1,3.929,14.742,2
1778187210853,-0.13,0.905,-0.781,0.032,-0.042,0.01,120.277,4.047,1.104,0.188,1,1,3.265,14.756,2
1778187210867,-0.122,0.906,-0.769,0.034,-0.036,0.012,120.154,3.439,1.068,0.169,1,1,3.263,14.77,2
1778187210881,-0.116,0.91,-0.758,0.036,-0.031,0.014,119.892,2.995,1.107,0.14,1,1,3.27,14.784,2
1778187210895,-0.111,0.91,-0.748,0.038,-0.027,0.016,119.937,2.757,1.052,0.146,1,1,3.264,14.798,2
1778187210909,-0.104,0.909,-0.737,0.039,-0.022,0.018,119.827,2.204,1.013,0.131,1,1,4.807,14.812,2
1778187210923,-0.097,0.91,-0.727,0.041,-0.018,0.018,119.711,1.658,1.084,0.136,1,1,3.266,14.826,2
1778187210936,-0.09,0.909,-0.719,0.043,-0.015,0.017,119.899,1.209,1.041,0.105,1,1,3.262,14.839,2
1778187210950,-0.085,0.909,-0.711,0.044,-0.012,0.015,119.914,0.932,1.051,0.103,1,1,3.273,14.853,3
1778187210963,-0.078,0.907,-0.704,0.044,-0.011,0.013,120.231,0.46,1.018,0.087,1,1,3.252,14.866,3
1778187210978,-0.073,0.906,-0.697,0.045,-0.01,0.01,120.34,0.265,1.046,0.091,1,1,4.934,14.881,3
1778187210992,-0.067,0.907,-0.689,0.046,-0.01,0.007,120.241,-0.058,1.059,0.088,1,1,3.265,14.895,3
1778187211007,-0.065,0.909,-0.682,0.047,-0.01,0.005,120.125,-0.017,1.089,0.092,1,1,5.605,14.91,3
1778187211021,-0.061,0.909,-0.676,0.048,-0.01,0.004,120.205,-0.11,1.061,0.081,1,1,3.264,14.924,3
1778187211034,-0.061,0.911,-0.671,0.049,-0.01,0.006,120.186,0.229,1.106,0.097,1,1,3.263,14.937,3
1778187211048,-0.058,0.911,-0.666,0.051,-0.01,0.009,120.277,0.166,1.072,0.144,5,5,3.928,14.951,3
1778187211062,-0.055,0.916,-0.659,0.057,-0.011,0.011,119.935,0.042,1.139,0.202,5,5,3.263,14.965,3
1778187211075,-0.047,0.917,-0.653,0.062,-0.013,0.011,119.887,-0.567,1.095,0.218,5,5,3.282,14.978,3
1778187211089,-0.04,0.92,-0.648,0.071,-0.015,0.007,119.732,-1.055,1.123,0.309,5,5,3.272,14.992,3
1778187211104,-0.033,0.92,-0.643,0.08,-0.019,0.003,119.787,-1.556,1.076,0.355,5,5,5.532,15.007,3
1778187211118,-0.029,0.922,-0.639,0.091,-0.022,-0.002,119.803,-1.696,1.107,0.408,5,5,3.952,15.021,3
1778187211132,-0.029,0.922,-0.637,0.102,-0.025,-0.005,120.003,-1.431,1.098,0.431,5,5,3.267,15.035,3
1778187211145,-0.032,0.924,-0.635,0.115,-0.026,-0.006,120.214,-0.826,1.148,0.448,5,5,3.289,15.048,3
1778187211159,-0.032,0.928,-0.635,0.129,-0.025,-0.006,120.373,-0.611,1.18,0.489,5,5,3.264,15.062,3
1778187211174,-0.038,0.936,-0.636,0.145,-0.021,-0.002,120.395,0.152,1.307,0.58,5,5,3.336,15.077,3
1778187211187,-0.04,0.952,-0.637,0.165,-0.016,0.001,120.072,0.509,1.454,0.699,5,5,3.919,15.09,3
1778187211202,-0.047,0.965,-0.637,0.191,-0.009,0.006,119.752,1.209,1.437,0.873,5,5,4.541,15.105,3
1778187211216,-0.051,0.978,-0.637,0.22,-0.002,0.014,119.485,1.61,1.403,1.01,5,5,3.275,15.119,3
1778187211229,-0.055,0.991,-0.637,0.25,0.006,0.026,119.228,1.98,1.448,1.13,5,5,3.259,15.132,4
1778187211245,-0.053,1.014,-0.637,0.284,0.013,0.04,118.623,1.823,1.638,1.243,5,5,5.857,15.148,4
1778187211258,-0.05,1.036,-0.634,0.327,0.019,0.056,117.829,1.606,1.629,1.518,4,4,3.866,15.161,4
1778187211273,-0.049,1.059,-0.631,0.38,0.025,0.074,117.037,1.578,1.655,1.853,4,4,4.124,15.176,4
1778187211287,-0.061,1.084,-0.626,0.442,0.034,0.097,116.196,2.42,1.737,2.193,4,4,3.259,15.19,4
1778187211300,-0.082,1.119,-0.623,0.516,0.048,0.127,115.235,3.626,2.036,2.627,4,4,3.264,15.203,4
1778187211313,-0.1,1.171,-0.621,0.59,0.069,0.159,114.193,4.422,2.423,2.761,4,4,3.324,15.216,4
1778187211327,-0.114,1.247,-0.629,0.661,0.096,0.19,113.332,4.772,3.052,2.81,4,4,3.926,15.23,4
1778187211341,-0.111,1.295,-0.64,0.729,0.124,0.203,113.107,4.42,2.501,2.698,4,4,3.348,15.244,4
1778187211354,-0.1,1.332,-0.649,0.795,0.153,0.207,112.959,3.655,2.325,2.676,4,4,3.27,15.257,4
1778187211368,-0.101,1.382,-0.662,0.858,0.182,0.239,112.768,3.548,2.65,2.877,4,4,3.253,15.271,4
1778187211381,-0.08,1.402,-0.639,0.919,0.202,0.29,110.999,2.108,1.887,3.062,4,4,3.272,15.284,4
1778187211394,-0.049,1.389,-0.582,0.978,0.21,0.351,106.01,-0.561,1.426,3.189,4,4,3.908,15.297,4
1778187211411,0.009,1.284,-0.578,1.034,0.175,0.393,84.953,-5.19,1.703,3.002,4,4,5.816,15.314,4
1778187211425,0.006,1.199,-0.552,1.03,0.141,0.385,68.373,-4.111,0.665,1.196,4,4,3.262,15.328,4
1778187211440,0.002,1.16,-0.534,0.992,0.11,0.336,72.785,-2.551,0.34,1.164,4,4,4.856,15.343,5
1778187211453,-0.001,1.13,-0.511,0.943,0.084,0.268,74.648,-1.481,0.489,1.652,4,4,3.254,15.356,5
1778187211466,0.0,1.095,-0.485,0.886,0.058,0.193,74.637,-1.748,0.329,1.937,4,4,3.923,15.369,5
1778187211480,0.007,1.057,-0.459,0.824,0.029,0.12,73.502,-4.605,0.316,2.084,4,4,3.266,15.383,5
1778187211494,0.014,1.017,-0.431,0.754,-0.005,0.05,70.404,-7.469,0.275,2.233,4,4,3.254,15.397,5
1778187211508,0.022,0.975,-0.407,0.672,-0.046,-0.015,65.46,-12.153,0.238,2.497,4,4,3.275,15.411,5
1778187211522,0.031,0.936,-0.385,0.578,-0.092,-0.07,62.941,-16.602,0.255,2.728,4,4,3.315,15.425,5
1778187211536,0.04,0.902,-0.365,0.473,-0.143,-0.115,63.481,-20.064,0.299,2.983,4,4,4.827,15.439,5
1778187211550,0.048,0.877,-0.351,0.362,-0.195,-0.147,66.677,-21.397,0.409,3.108,4,4,3.267,15.453,5
1778187211563,0.056,0.86,-0.342,0.256,-0.246,-0.169,70.484,-21.819,0.551,3.049,4,4,3.258,15.466,5
1778187211577,0.063,0.849,-0.338,0.154,-0.295,-0.182,74.503,-21.407,0.707,2.99,4,4,3.272,15.48,5
1778187211590,0.067,0.843,-0.341,0.055,-0.338,-0.191,78.763,-20.4,0.828,2.926,4,4,3.267,15.493,5
1778187211605,0.073,0.839,-0.349,-0.04,-0.374,-0.201,83.131,-19.646,0.941,2.86,5,5,5.535,15.508,5
1778187211619,0.079,0.838,-0.362,-0.131,-0.402,-0.21,87.488,-18.844,1.07,2.776,5,5,3.262,15.522,5
1778187211634,0.088,0.842,-0.38,-0.219,-0.421,-0.211,91.53,-18.316,1.221,2.676,5,5,4.074,15.537,5
1778187211647,0.101,0.849,-0.399,-0.303,-0.431,-0.199,95.075,-18.139,1.349,2.6,5,5,3.27,15.55,5
1778187211660,0.115,0.862,-0.421,-0.385,-0.434,-0.172,98.253,-17.967,1.526,2.605,5,5,3.263,15.563,5
1778187211676,0.127,0.878,-0.449,-0.463,-0.426,-0.13,101.319,-17.52,1.668,2.69,5,5,5.822,15.579,5
1778187211690,0.133,0.9,-0.482,-0.539,-0.408,-0.078,104.163,-16.635,1.845,2.811,5,5,3.26,15.593,5
1778187211703,0.133,0.926,-0.52,-0.612,-0.379,-0.019,106.845,-15.397,2.015,2.941,5,5,3.273,15.606,5
1778187211717,0.122,0.955,-0.566,-0.682,-0.34,0.048,109.498,-13.637,2.243,3.141,5,5,3.28,15.62,5
1778187211730,0.104,0.98,-0.623,-0.749,-0.291,0.124,112.44,-11.729,2.428,3.407,5,5,3.26,15.633,5
1778187211743,0.083,0.997,-0.688,-0.814,-0.243,0.198,115.733,-9.773,2.55,3.431,5,5,3.963,15.646,5
1778187211757,0.049,1.01,-0.761,-0.877,-0.202,0.253,119.146,-7.46,2.781,3.134,5,5,3.257,15.66,5
1778187211774,0.016,1.03,-0.844,-0.934,-0.177,0.257,122.171,-5.53,3.106,2.486,5,5,6.308,15.677,5
1778187211787,0.02,1.036,-0.93,-0.948,-0.172,0.213,125.518,-5.174,3.04,1.622,5,5,3.282,15.69,1
1778187211801,0.042,1.02,-1.02,-0.932,-0.187,0.162,129.496,-5.624,3.105,1.382,5,5,3.29,15.704,1
1778187211814,0.04,0.992,-1.106,-0.889,-0.205,0.156,133.605,-5.071,3.016,0.725,5,5,3.903,15.717,1
1778187211828,-0.106,0.863,-1.195,-0.791,-0.203,0.12,106.812,-0.63,4.97,1.931,5,5,3.305,15.731,1
1778187211841,-0.095,0.888,-1.133,-0.699,-0.206,0.102,104.393,-1.143,1.469,1.772,5,5,3.289,15.744,1
1778187211855,-0.08,0.907,-1.071,-0.58,-0.208,0.086,101.829,-1.992,1.365,2.537,5,5,3.253,15.758,1
1778187211868,-0.084,0.914,-1.039,-0.466,-0.209,0.065,102.309,-1.002,1.141,2.556,5,5,3.258,15.771,1
1778187211881,-0.096,0.908,-1.022,-0.356,-0.21,0.053,105.001,0.933,1.073,2.526,5,5,3.895,15.784,1
1778187211895,-0.093,0.875,-1.034,-0.267,-0.204,0.041,111.449,0.94,1.301,2.039,5,5,3.265,15.798,1
1778187211909,-0.095,0.857,-1.032,-0.206,-0.198,0.026,115.66,1.567,1.1,1.425,5,5,3.28,15.812,1
1778187211922,-0.094,0.849,-1.018,-0.164,-0.188,0.014,117.614,1.874,1.0,0.987,5,5,3.256,15.825,1
1778187211937,-0.092,0.827,-1.015,-0.138,-0.183,0.006,121.667,1.894,1.003,0.566,5,5,4.629,15.84,1
1778187211950,-0.103,0.817,-1.004,-0.125,-0.178,0.006,123.544,3.611,1.03,0.219,1,1,3.937,15.853,1
1778187211964,-0.105,0.82,-0.984,-0.116,-0.17,0.01,123.448,3.963,1.056,0.157,1,1,3.264,15.867,1
1778187211978,-0.105,0.821,-0.966,-0.109,-0.162,0.015,123.504,4.174,1.013,0.181,1,1,3.265,15.881,2
1778187211991,-0.101,0.824,-0.948,-0.103,-0.155,0.02,123.301,3.828,1.058,0.166,1,1,3.256,15.894,2
1778187212004,-0.096,0.829,-0.929,-0.097,-0.147,0.025,122.879,3.445,1.054,0.169,1,1,3.316,15.907,2
1778187212018,-0.091,0.833,-0.911,-0.092,-0.141,0.029,122.62,3.026,1.059,0.142,1,1,3.915,15.921,2
1778187212032,-0.086,0.838,-0.894,-0.087,-0.135,0.031,122.213,2.551,1.081,0.102,1,1,3.311,15.935,2
1778187212045,-0.081,0.841,-0.878,-0.082,-0.13,0.032,122.001,2.209,1.06,0.071,1,1,3.261,15.948,2
1778187212059,-0.078,0.845,-0.862,-0.077,-0.125,0.032,121.749,2.06,1.064,0.064,1,1,3.258,15.962,2
1778187212072,-0.076,0.849,-0.848,-0.072,-0.119,0.032,121.542,1.982,1.076,0.068,1,1,3.277,15.975,2
1778187212085,-0.074,0.853,-0.834,-0.067,-0.114,0.033,121.283,1.994,1.087,0.094,1,1,3.927,15.988,2
1778187212099,-0.073,0.857,-0.82,-0.062,-0.107,0.035,121.122,2.103,1.074,0.113,1,1,3.305,16.002,2
1778187212113,-0.072,0.86,-0.808,-0.058,-0.101,0.037,120.975,2.167,1.069,0.131,1,1,3.271,16.016,2
1778187212126,-0.069,0.863,-0.797,-0.054,-0.095,0.039,120.995,1.961,1.087,0.129,1,1,3.267,16.029,2
1778187212140,-0.065,0.866,-0.784,-0.05,-0.089,0.041,120.793,1.69,1.055,0.117,1,1,3.279,16.043,2
1778187212153,-0.061,0.867,-0.773,-0.046,-0.084,0.042,120.78,1.294,1.053,0.101,1,1,3.921,16.056,2
1778187212167,-0.056,0.87,-0.763,-0.042,-0.079,0.042,120.682,0.956,1.056,0.096,1,1,3.277,16.07,2
1778187212180,-0.052,0.872,-0.753,-0.038,-0.074,0.041,120.691,0.609,1.064,0.073,1,1,3.259,16.083,2
1778187212194,-0.048,0.872,-0.743,-0.035,-0.07,0.039,120.691,0.365,1.037,0.068,1,1,3.274,16.097,2
1778187212207,-0.044,0.873,-0.735,-0.032,-0.066,0.035,120.805,0.11,1.032,0.081,1,1,3.266,16.11,2
1778187212220,-0.039,0.874,-0.726,-0.029,-0.064,0.03,120.819,-0.237,1.046,0.118,1,1,3.919,16.123,2
1778187212235,-0.035,0.876,-0.717,-0.026,-0.062,0.023,120.641,-0.451,1.068,0.161,1,1,3.926,16.138,2
1778187212248,-0.032,0.877,-0.709,-0.024,-0.061,0.015,120.637,-0.611,1.044,0.2,1,1,3.254,16.151,2
1778187212262,-0.029,0.879,-0.7,-0.021,-0.062,0.007,120.549,-0.739,1.054,0.223,1,1,3.266,16.165,2
1778187212275,-0.028,0.88,-0.693,-0.018,-0.064,-0.001,120.485,-0.647,1.058,0.236,1,1,3.273,16.178,2
1778187212289,-0.027,0.884,-0.685,-0.013,-0.067,-0.008,120.291,-0.541,1.095,0.258,5,5,3.911,16.192,2
1778187212303,-0.027,0.886,-0.678,-0.008,-0.07,-0.014,120.222,-0.319,1.066,0.265,5,5,3.286,16.206,2
1778187212316,-0.03,0.887,-0.672,-0.003,-0.073,-0.019,120.187,0.113,1.063,0.259,5,5,3.274,16.219,2
1778187212329,-0.031,0.887,-0.667,0.003,-0.075,-0.023,120.361,0.47,1.052,0.232,5,5,3.287,16.232,2
1778187212343,-0.033,0.889,-0.662,0.008,-0.077,-0.025,120.475,0.775,1.077,0.205,5,5,3.265,16.246,3
1778187212356,-0.035,0.891,-0.658,0.014,-0.077,-0.027,120.535,1.105,1.093,0.196,5,5,3.907,16.259,3
1778187212370,-0.038,0.891,-0.654,0.02,-0.077,-0.028,120.669,1.508,1.071,0.206,5,5,3.272,16.273,3
1778187212384,-0.041,0.893,-0.651,0.026,-0.075,-0.029,120.776,1.915,1.109,0.205,5,5,3.271,16.287,3
1778187212397,-0.045,0.898,-0.647,0.034,-0.073,-0.028,120.664,2.326,1.144,0.238,5,5,3.282,16.3,3
1778187212410,-0.054,0.904,-0.644,0.044,-0.069,-0.025,120.517,3.265,1.237,0.308,5,5,3.264,16.313,3
1778187212424,-0.06,0.907,-0.642,0.057,-0.062,-0.018,120.661,3.843,1.142,0.441,5,5,3.924,16.327,3
1778187212438,-0.065,0.91,-0.64,0.071,-0.054,-0.009,120.69,4.271,1.168,0.51,5,5,3.347,16.341,3
1778187212451,-0.067,0.916,-0.638,0.087,-0.044,0.002,120.58,4.406,1.206,0.624,5,5,3.251,16.354,3
1778187212465,-0.067,0.922,-0.636,0.106,-0.034,0.014,120.53,4.23,1.204,0.701,5,5,3.287,16.368,3
1778187212478,-0.066,0.93,-0.636,0.128,-0.024,0.023,120.386,4.004,1.273,0.783,5,5,3.264,16.381,3
1778187212491,-0.065,0.953,-0.636,0.152,-0.015,0.028,119.775,3.805,1.582,0.841,5,5,3.98,16.394,3
1778187212505,-0.061,0.96,-0.634,0.179,-0.006,0.035,119.645,3.358,1.271,0.931,5,5,3.275,16.408,3
1778187212519,-0.061,0.974,-0.635,0.208,0.002,0.042,119.346,3.243,1.435,0.997,5,5,3.259,16.422,3
1778187212532,-0.057,0.987,-0.634,0.239,0.008,0.05,119.013,2.781,1.426,1.095,5,5,3.276,16.435,3
1778187212545,-0.053,1.003,-0.633,0.275,0.013,0.057,118.56,2.393,1.476,1.228,5,5,3.262,16.448,3
1778187212559,-0.05,1.018,-0.631,0.316,0.017,0.066,118.076,2.173,1.464,1.427,5,5,3.913,16.462,3
1778187212573,-0.052,1.036,-0.63,0.364,0.022,0.077,117.623,2.262,1.57,1.663,5,5,3.273,16.476,4
1778187212586,-0.059,1.061,-0.628,0.42,0.028,0.091,116.923,2.741,1.716,1.928,5,5,3.261,16.489,4
1778187212600,-0.069,1.1,-0.627,0.487,0.035,0.109,115.938,3.238,2.067,2.316,5,5,3.272,16.503,4
1778187212613,-0.08,1.156,-0.628,0.562,0.046,0.13,114.95,3.653,2.484,2.61,5,5,3.263,16.516,4
1778187212626,-0.091,1.229,-0.634,0.634,0.062,0.149,114.031,3.912,2.954,2.632,4,4,3.923,16.529,4
1778187212640,-0.097,1.276,-0.648,0.703,0.081,0.163,113.874,4.025,2.486,2.611,4,4,3.29,16.543,4
1778187212654,-0.094,1.294,-0.666,0.77,0.099,0.185,114.617,3.693,2.003,2.682,4,4,3.263,16.557,4
1778187212667,-0.095,1.339,-0.693,0.834,0.116,0.216,115.048,3.621,2.653,2.756,4,4,3.264,16.57,4
1778187212680,-0.083,1.354,-0.675,0.896,0.13,0.249,113.582,2.668,1.73,2.78,4,4,3.255,16.583,4
1778187212694,-0.035,1.284,-0.596,0.955,0.123,0.276,101.595,-1.492,1.539,2.687,4,4,3.933,16.597,4
1778187212708,-0.012,1.172,-0.586,0.971,0.089,0.28,81.895,-3.239,1.413,1.637,4,4,3.272,16.611,4
1778187212721,-0.008,1.147,-0.572,0.954,0.052,0.272,85.082,-3.718,0.668,1.053,4,4,3.272,16.624,5
1778187212735,-0.013,1.135,-0.554,0.932,0.017,0.254,86.522,-2.539,0.903,0.982,4,4,3.269,16.638,5
1778187212748,-0.021,1.11,-0.536,0.907,-0.012,0.229,88.178,-0.49,0.608,0.922,4,4,3.259,16.651,5
1778187212761,-0.031,1.071,-0.517,0.874,-0.035,0.194,90.957,3.783,0.337,0.945,4,4,3.947,16.664,5
1778187212775,-0.04,1.028,-0.495,0.831,-0.049,0.151,91.144,10.083,0.266,1.094,4,4,3.255,16.678,5
1778187212789,-0.046,0.985,-0.471,0.778,-0.056,0.105,86.448,15.056,0.179,1.272,4,4,3.268,16.692,5
1778187212802,-0.046,0.944,-0.447,0.715,-0.06,0.06,80.275,16.854,0.101,1.45,4,4,3.267,16.705,5
1778187212815,-0.041,0.906,-0.425,0.643,-0.064,0.016,78.015,12.189,0.13,1.657,4,4,3.264,16.718,5
1778187212829,-0.033,0.872,-0.405,0.563,-0.071,-0.024,78.189,6.472,0.178,1.864,4,4,3.969,16.732,5
1778187212843,-0.024,0.839,-0.388,0.475,-0.081,-0.059,80.373,0.898,0.218,2.102,4,4,3.326,16.746,5
1778187212856,-0.016,0.811,-0.375,0.378,-0.095,-0.088,83.719,-3.097,0.269,2.342,4,4,3.262,16.759,5
1778187212870,-0.005,0.789,-0.366,0.275,-0.112,-0.113,86.731,-5.902,0.422,2.566,4,4,3.264,16.773,5
1778187212883,0.006,0.775,-0.359,0.172,-0.133,-0.135,89.454,-7.922,0.564,2.69,4,4,3.255,16.786,5
1778187212896,0.017,0.765,-0.358,0.073,-0.158,-0.155,92.365,-9.217,0.7,2.703,4,4,3.963,16.799,5
1778187212911,0.027,0.761,-0.362,-0.022,-0.184,-0.17,95.383,-9.966,0.841,2.704,4,4,3.27,16.814,5
1778187212924,0.037,0.761,-0.369,-0.114,-0.211,-0.178,98.239,-10.358,0.96,2.692,4,4,3.277,16.827,5
1778187212937,0.044,0.765,-0.38,-0.203,-0.236,-0.181,100.815,-10.441,1.065,2.665,4,4,3.264,16.84,5
1778187212951,0.05,0.773,-0.393,-0.288,-0.257,-0.177,103.194,-10.251,1.176,2.634,4,4,3.263,16.854,5
1778187212964,0.053,0.784,-0.408,-0.37,-0.274,-0.169,105.331,-9.792,1.285,2.597,5,5,3.903,16.867,5
1778187212978,0.057,0.802,-0.426,-0.449,-0.283,-0.159,107.16,-9.404,1.437,2.559,5,5,3.255,16.881,5
