timestamp,ax,ay,az,gx,gy,gz,roll_k,pitch_k,delay_ms,classe_prevista
1774299874496,0,-0.660213,0.00374474,-5.96732,-3.51813,-0.657815,0,0,3.86749,-1
1774299874510,-0.00900232,-0.794442,0.00478798,-7.13621,-3.70489,-0.564067,0,0,3.40758,-1
1774299874524,-0.013007,-0.854798,0.00937187,-7.79354,-3.4455,-0.312712,0,0,3.29026,-1
1774299874537,-0.0197819,-0.891636,0.0150455,-8.51895,-2.87971,-0.066198,0,0,3.26076,-1
1774299874550,-0.0232947,-0.910912,0.0193873,-9.13177,-2.08537,-0.0431124,0,0,3.25767,-1
1774299874564,-0.0200164,-0.924802,0.0242843,-9.43582,-1.35362,-0.0986684,0,0,3.26682,-1
1774299874577,-0.0131095,-0.934158,0.0279905,-9.72146,-1.08724,0.0019682,0,0,3.25791,-1
1774299874591,-0.00840095,-0.939672,0.0323006,-9.84404,-1.11515,0.265468,0,0,3.25919,-1
1774299874604,-0.00590665,-0.94618,0.036881,-9.97732,-1.19924,0.432229,0,0,3.25407,-1
1774299874617,-0.00446928,-0.950489,0.0398186,-10.1409,-1.10227,0.468361,0,0,3.3256,0
1774299874631,-0.000672107,-0.953681,0.0426476,-10.1293,-0.956732,0.437078,0,0,3.26508,0
1774299874644,0.00489991,-0.955484,0.0452088,-9.94561,-0.912523,0.325544,0,0,3.25537,0
1774299874657,0.0100166,-0.95685,0.0474645,-9.66957,-1.0529,0.204477,0,0,3.27872,0
1774299874671,0.0132094,-0.959226,0.0495729,-9.40645,-1.29585,0.129384,0,0,3.2515,5
1774299874684,0.01556,-0.960537,0.0505238,-9.13241,-1.53451,0.0635349,0,0,3.26385,5
1774299874698,0.0192005,-0.961732,0.0519997,-8.78787,-1.84775,-0.088588,0,0,3.51722,5
1774299874711,0.0237795,-0.961941,0.052592,-8.36844,-2.24662,-0.242368,0,0,3.26722,5
1774299874724,0.0296021,-0.962114,0.0525221,-7.86609,-2.84811,-0.434266,0,0,3.27667,5
1774299874738,0.0330417,-0.962239,0.0525966,-7.28844,-3.65055,-0.569589,0,0,3.27648,5
1774299874751,0.0328884,-0.964415,0.0524418,-6.82311,-4.36321,-0.786335,0,0,3.30037,5
1774299874765,0.0327051,-0.965392,0.0513202,-6.44379,-4.86742,-1.14224,0,0,3.27693,1
1774299874778,0.0342509,-0.966779,0.0499266,-5.99391,-5.32693,-1.48154,0,0,3.28987,1
1774299874791,0.0358657,-0.967836,0.0489594,-5.56986,-5.86767,-1.71096,0,0,3.27567,1
1774299874805,0.0361892,-0.968759,0.0474216,-5.15831,-6.43086,-1.94221,0,0,3.32999,1
1774299874818,0.0341326,-0.969825,0.0459573,-4.6805,-6.84351,-2.20704,0,0,3.29352,1
1774299874831,0.0312778,-0.972069,0.0451267,-4.22763,-7.04557,-2.46789,0,0,3.2798,1
1774299874845,0.0294703,-0.974135,0.044124,-3.78819,-7.06241,-2.66835,0,0,3.28443,1
1774299874858,0.0282461,-0.975988,0.043551,-3.33884,-7.03964,-2.83296,0,0,3.27596,1
1774299874872,0.0270881,-0.977698,0.0427059,-2.95938,-7.02394,-2.99316,0,0,3.27374,1
1774299874885,0.0256242,-0.978667,0.0421943,-2.57902,-6.93456,-3.15169,0,0,3.28135,1
1774299874898,0.0234771,-0.979769,0.0415689,-2.20071,-6.79451,-3.26309,0,0,3.304,1
1774299874912,0.0208842,-0.981272,0.0409449,-1.86002,-6.57043,-3.31777,0,0,3.30415,1
1774299874925,0.0179686,-0.982167,0.0400259,-1.55097,-6.24346,-3.38192,0,0,3.26348,1
1774299874938,0.0158631,-0.982871,0.0389832,-1.20799,-5.8445,-3.42021,0,0,3.27204,1
1774299874952,0.0149796,-0.983548,0.03801,-0.839844,-5.49968,-3.41841,0,0,3.25824,1
1774299874965,0.0146522,-0.984545,0.0370785,-0.497049,-5.24239,-3.37211,0,0,3.26374,1
1774299874978,0.0134594,-0.985053,0.0354974,-0.18355,-5.07433,-3.24984,0,0,3.26122,1
1774299874992,0.0120331,-0.986081,0.0343872,0.132483,-4.92829,-3.09985,0,0,3.26524,5
1774299875005,0.0104657,-0.987204,0.0329835,0.363884,-4.77876,-2.92035,0,0,3.31271,5
1774299875019,0.00817804,-0.98837,0.0314938,0.534332,-4.57657,-2.76989,0,0,3.27109,5
1774299875032,0.00654497,-0.988916,0.0301582,0.654598,-4.33319,-2.62877,0,0,3.29004,5
1774299875045,0.00587654,-0.988373,0.02823,0.819972,-4.06283,-2.46291,0,0,3.27448,5
1774299875059,0.00606501,-0.988713,0.0269984,1.05685,-3.91555,-2.20777,0,0,3.27276,5
1774299875072,0.00505731,-0.989914,0.0259602,1.12385,-3.85098,-1.90118,0,0,3.27246,5
1774299875085,0.00310344,-0.99089,0.0249836,1.10774,-3.76245,-1.60676,0,0,3.27632,5
1774299875099,6.4096e-05,-0.991666,0.024076,1.13017,-3.53376,-1.28873,0,0,3.274,5
1774299875112,-0.00239035,-0.992228,0.0230688,1.10769,-3.14331,-0.974345,0,0,3.2976,5
1774299875126,-0.0045749,-0.992851,0.0220874,1.014,-2.63851,-0.657752,0,0,3.28317,5
1774299875139,-0.00614233,-0.992865,0.0213164,0.853243,-2.08849,-0.354568,0,0,3.27215,5
1774299875152,-0.00833515,-0.99254,0.0205924,0.686172,-1.4816,-0.0527832,0,0,3.28398,5
1774299875166,-0.0114067,-0.99284,0.0200656,0.495915,-0.737138,0.277415,0,0,3.26997,5
1774299875179,-0.0153476,-0.992224,0.0199547,0.284225,0.172749,0.593965,0,0,3.27654,5
1774299875192,-0.018792,-0.992494,0.0191648,0.0665118,1.25925,0.869289,0,0,3.27309,5
1774299875206,-0.0219049,-0.993131,0.0182917,-0.263927,2.46116,1.17755,0,0,3.65134,5
1774299875220,-0.0249621,-0.994811,0.0168629,-0.671014,3.73411,1.5186,0,0,3.28339,5
1774299875233,-0.0288753,-0.996198,0.0148502,-1.17187,5.17377,1.89789,0,0,3.27206,5
1774299875246,-0.0372681,-0.997825,0.011913,-1.69677,6.9609,2.39183,0,0,3.29508,5
1774299875260,-0.0471594,-1.00155,0.0100154,-2.40489,9.54241,2.97674,0,0,3.27691,5
1774299875273,-0.050436,-1.00481,0.00821422,-3.62016,12.6407,3.4857,0,0,3.26659,5
1774299875286,-0.0471648,-1.0048,0.00581524,-5.03754,15.5872,3.98653,0,0,3.27174,5
1774299875300,-0.0419303,-1.00508,0.00215658,-6.34368,17.9335,4.36818,0,0,3.28032,5
1774299875313,-0.0387162,-1.00217,-0.00265081,-7.35918,19.8092,4.33506,0,0,3.31275,5
1774299875327,-0.0342372,-0.998455,-0.00677027,-7.76864,21.3511,4.20733,0,0,3.27345,5
1774299875340,-0.0269063,-0.999104,-0.00887925,-7.92011,22.3855,4.52151,0,0,3.29611,5
1774299875353,-0.0184521,-1.00049,-0.0111843,-8.22723,22.5838,5.00918,0,0,3.28228,5
1774299875367,-0.011619,-0.998124,-0.0150506,-8.38034,22.158,5.29069,0,0,3.27809,5
1774299875380,-0.00458504,-0.999387,-0.0177474,-8.25485,21.2611,5.50365,0,0,3.28595,5
1774299875393,0.000421047,-1.00111,-0.019724,-8.33781,19.8945,5.89789,0,0,3.27985,5
1774299875407,0.00404757,-1.00225,-0.0217739,-8.51167,18.2495,6.2387,0,0,3.64577,5
1774299875420,0.00601327,-1.00254,-0.0234116,-8.67918,16.5521,6.39282,0,0,3.26428,5
1774299875434,0.00781708,-1.00037,-0.0246876,-8.63335,14.8884,6.42861,0,0,3.31389,5
1774299875447,0.0103124,-1.00192,-0.0240759,-8.42688,13.2565,6.5922,0,0,3.26115,5
1774299875461,0.0129546,-1.00331,-0.0228272,-8.54343,11.6079,6.76887,0,0,3.26965,5
1774299875474,0.0147523,-1.00301,-0.0220618,-8.67143,10.0411,6.68289,0,0,3.27667,5
1774299875487,0.0147799,-1.00273,-0.0210947,-8.68858,8.65956,6.47195,0,0,3.26998,5
1774299875501,0.0126127,-1.0024,-0.0195067,-8.6765,7.60315,6.2947,0,0,3.2713,5
1774299875514,0.0106906,-1.00205,-0.0177747,-8.63511,6.88403,6.09442,0,0,3.30452,5
1774299875527,0.0105645,-1.00109,-0.0156375,-8.54851,6.33161,5.89254,0,0,3.30058,1
1774299875541,0.0126684,-0.999611,-0.0135194,-8.38197,5.67487,5.69514,0,0,3.27726,1
1774299875554,0.014958,-0.998366,-0.0121573,-8.11814,4.84171,5.52937,0,0,3.27641,1
1774299875568,0.0151476,-0.995893,-0.0114111,-7.68625,4.01891,5.3682,0,0,3.27935,1
1774299875581,0.0144522,-0.99417,-0.0106976,-7.03021,3.32108,5.24476,0,0,3.27283,1
1774299875594,0.014418,-0.993997,-0.00923511,-6.40842,2.72151,5.10812,0,0,3.27943,1
1774299875608,0.0150267,-0.993394,-0.00784748,-5.88019,2.18514,4.87423,0,0,3.29921,1
1774299875621,0.0161964,-0.992177,-0.00671309,-5.37902,1.63304,4.51001,0,0,3.32221,1
1774299875634,0.0172721,-0.988939,-0.00704974,-4.73126,1.09179,4.18335,0,0,3.27854,1
1774299875648,0.0199889,-0.980821,-0.00950876,-3.29338,0.57534,3.92042,0,0,3.28871,1
1774299875661,0.0253968,-0.974448,-0.0092422,-0.935845,-0.26841,3.68979,0,0,3.28037,1
1774299875675,0.02873,-0.977255,-0.00611327,1.23975,-1.48704,3.65709,0,0,3.27167,1
1774299875688,0.027366,-0.981679,-0.0039975,2.59272,-2.67413,3.64935,0,0,3.28013,1
1774299875701,0.0224829,-0.984137,-0.00344867,3.57133,-3.47518,3.5337,0,0,3.27824,1
1774299875715,0.0181448,-0.983303,-0.00501765,4.72028,-3.81421,3.36717,0,0,3.31556,1
1774299875728,0.0177355,-0.98335,-0.00447765,5.98419,-3.97922,3.17358,0,0,3.27121,1
1774299875741,0.0192774,-0.986343,-0.00276497,6.85347,-4.28184,3.00369,0,0,3.31525,1
1774299875755,0.0195769,-0.98772,-0.00135158,7.19226,-4.66083,2.81893,0,0,3.28039,2
1774299875768,0.0186884,-0.99018,-0.000363222,7.57499,-4.94106,2.5225,0,0,3.27454,2
1774299875782,0.0121782,-0.992308,0.00391417,6.65894,-4.76195,2.89484,0,0,3.30549,2
1774299875795,0.0181924,-0.991598,0.00342254,6.55218,-5.12985,2.38347,0,0,3.2778,2
1774299875808,0.0159441,-0.993866,0.00481072,6.25101,-5.60429,1.42636,0,0,3.278,2
1774299875822,0.0107291,-0.994978,0.00394883,5.68242,-5.48347,1.13568,0,0,3.28811,2
1774299875835,0.00723755,-0.990574,0.00248389,5.71222,-5.10694,1.01502,0,0,3.29197,2
1774299875848,0.00587441,-0.992545,0.00374217,5.97972,-4.71386,0.761545,0,0,3.26685,5
1774299875862,0.00457092,-0.995317,0.00491336,5.68326,-4.4366,0.380128,0,0,3.26937,5
1774299875875,0.00182943,-0.995436,0.00438876,5.34006,-4.06912,0.178108,0,0,3.27156,2
1774299875889,-0.000728032,-0.995785,0.00455987,5.05165,-3.67217,0.0550752,0,0,3.26754,2
1774299875902,-0.0027251,-0.996205,0.0048196,4.74003,-3.28206,-0.161253,0,0,3.28363,2
1774299875915,-0.00507261,-0.996349,0.0050039,4.42705,-2.86717,-0.366303,0,0,3.49511,5
1774299875929,-0.00817167,-0.997096,0.0050947,4.06911,-2.42588,-0.437388,0,0,3.28526,5
1774299875942,-0.0113487,-0.996412,0.00418848,3.72782,-1.90315,-0.512622,0,0,3.3141,5
1774299875956,-0.0129452,-0.995074,0.00366359,3.62234,-1.36778,-0.653002,0,0,3.28661,5
1774299875969,-0.0124218,-0.995375,0.00407996,3.58614,-0.976336,-0.675892,0,0,3.29624,5
1774299875982,-0.0114193,-0.996154,0.0043927,3.41282,-0.789261,-0.609719,0,0,3.27572,5
1774299875996,-0.0125536,-0.996279,0.00385889,3.23252,-0.709877,-0.527133,0,0,3.28059,5
1774299876009,-0.014407,-0.996207,0.00334844,3.06233,-0.616535,-0.531392,0,0,3.27289,5
1774299876023,-0.016094,-0.996085,0.00322335,2.87857,-0.519865,-0.541406,0,0,3.30228,5
1774299876036,-0.0166287,-0.996042,0.0028795,2.65972,-0.444032,-0.429253,0,0,3.28235,5
1774299876049,-0.0168197,-0.99582,0.00230511,2.45829,-0.381016,-0.294275,0,0,3.27789,5
1774299876063,-0.0161695,-0.994946,0.00121129,2.36579,-0.374202,-0.225529,0,0,3.27545,5
1774299876076,-0.0155371,-0.994879,0.00078461,2.28747,-0.436281,-0.116108,0,0,3.27024,5
1774299876089,-0.0147081,-0.994718,0.000590135,2.17971,-0.632753,-0.0316655,0,0,3.27363,5
1774299876103,-0.0154316,-0.994885,0.000724486,2.07671,-0.856742,0.0309132,0,0,3.30473,5
1774299876117,-0.0167747,-0.994938,0.00038316,1.9598,-0.955981,0.133657,0,0,3.92234,5
1774299876130,-0.0172903,-0.995181,0.000451821,1.8306,-0.989708,0.218648,0,0,3.27061,5
1774299876144,-0.0174203,-0.995093,0.000570865,1.6684,-1.00313,0.262048,0,0,3.28845,5
1774299876157,-0.0169254,-0.994496,0.000620639,1.5123,-1.01666,0.23536,0,0,3.27448,5
1774299876170,-0.0165802,-0.994117,0.00046537,1.39878,-1.03713,0.205887,0,0,3.3095,5
1774299876184,-0.0163142,-0.99368,0.000316893,1.2942,-1.02392,0.238013,0,0,3.29271,5
1774299876197,-0.0165724,-0.994032,0.000548607,1.15652,-0.977187,0.240077,0,0,3.27324,5
1774299876210,-0.0170221,-0.994047,0.000503261,0.967474,-0.846157,0.187217,0,0,3.27743,5
1774299876224,-0.016662,-0.99451,0.000331772,0.766338,-0.692932,0.100499,0,0,3.29195,5
1774299876237,-0.0156558,-0.99443,-0.000366069,0.635574,-0.584698,0.0207852,0,0,3.26602,5
1774299876251,-0.0152594,-0.994332,-0.00063834,0.560102,-0.552757,-0.0634489,0,0,3.32434,5
1774299876264,-0.0152433,-0.994014,-0.000396883,0.48972,-0.544874,-0.172075,0,0,3.28193,5
1774299876277,-0.0153668,-0.994126,-0.000924054,0.395453,-0.575541,-0.266472,0,0,3.28417,5
1774299876291,-0.0148976,-0.994223,-0.00125734,0.326171,-0.631892,-0.321748,0,0,3.26896,5
1774299876304,-0.0152284,-0.994262,-0.00186432,0.286894,-0.72105,-0.346947,0,0,3.27813,5
1774299876317,-0.0154699,-0.994054,-0.00242341,0.306769,-0.767955,-0.392998,0,0,3.268,5
1774299876331,-0.0156582,-0.994955,-0.00253097,0.272006,-0.823361,-0.411632,0,0,3.30463,5
1774299876344,-0.0167138,-0.99573,-0.00311428,0.213073,-0.857248,-0.423225,0,0,3.28054,5
1774299876358,-0.0180862,-0.996547,-0.00333043,0.0970722,-0.850697,-0.464998,0,0,3.26309,5
1774299876371,-0.019452,-0.996666,-0.00393217,-0.0226986,-0.788421,-0.505712,0,0,3.26298,5
1774299876384,-0.0195729,-0.997015,-0.00451826,-0.145171,-0.788728,-0.472207,0,0,3.30812,5
1774299876398,-0.0199555,-0.997252,-0.00547378,-0.307446,-0.898633,-0.3725,0,0,3.30245,5
1774299876411,-0.0213142,-0.99686,-0.00633412,-0.410093,-0.986531,-0.294657,0,0,3.27402,5
1774299876425,-0.0231261,-0.998011,-0.006292,-0.526251,-1.01597,-0.229744,0,0,3.29441,5
1774299876438,-0.0245384,-0.998301,-0.00700979,-0.702261,-0.984677,-0.108954,0,0,3.27182,5
1774299876451,-0.0245116,-0.998343,-0.00669256,-0.846562,-0.945287,0.0179059,0,0,3.28041,5
1774299876465,-0.0236318,-0.998608,-0.00656003,-1.02345,-0.974476,0.155206,0,0,3.27387,5
1774299876478,-0.0226837,-0.998327,-0.00663616,-1.15144,-1.07525,0.299791,0,0,3.30523,5
1774299876491,-0.0228021,-0.997674,-0.00677302,-1.16693,-1.18749,0.457246,0,0,3.29176,5
1774299876505,-0.0229367,-0.997456,-0.0062526,-1.152,-1.22793,0.635843,0,0,3.2741,5
1774299876518,-0.0222966,-0.997802,-0.00555208,-1.16788,-1.27167,0.795858,0,0,3.28287,1
1774299876532,-0.0211934,-0.997717,-0.00512777,-1.19614,-1.33564,0.958887,0,0,3.29908,1
1774299876545,-0.019722,-0.997688,-0.00554413,-1.12819,-1.44698,1.09179,0,0,3.34467,1
1774299876558,-0.0184538,-0.996231,-0.00706336,-0.810993,-1.53709,1.2318,0,0,3.29926,1
1774299876572,-0.0171343,-0.993651,-0.00876172,-0.0838299,-1.60374,1.40891,0,0,3.27761,1
1774299876585,-0.0156483,-0.989754,-0.00962775,1.14506,-1.72016,1.53027,0,0,3.28552,1
1774299876599,-0.0167576,-0.981778,-0.0127941,3.24017,-1.63652,1.90859,0,0,3.28058,1
1774299876612,-0.0157152,-0.975454,-0.0128005,6.48306,-1.36917,3.04713,0,0,3.29552,1
1774299876626,-0.0116967,-0.980083,-0.00993448,9.78597,-1.63406,4.66988,0,0,3.30393,1
1774299876639,-0.00977582,-0.991214,-0.00707637,11.8503,-2.27674,5.82309,0,0,3.34151,1
1774299876653,-0.0100316,-0.999595,-0.0067669,12.6495,-2.96088,6.35112,0,0,3.29613,1
1774299876666,-0.0102869,-1.00378,-0.00683398,12.9321,-3.55183,6.90348,0,0,3.286,1
1774299876679,-0.00905762,-1.00731,-0.00560622,12.8875,-4.15373,7.65565,0,0,3.28891,1
1774299876693,-0.00760449,-1.00755,-0.00461366,12.7268,-4.78653,8.01066,0,0,3.27769,1
1774299876706,-0.00694095,-1.00925,-0.00262886,12.7447,-5.26009,7.87562,0,0,3.30193,1
1774299876720,-0.00717125,-1.01414,0.000625119,12.3784,-5.50284,7.62868,0,0,3.3374,1
1774299876733,-0.00801073,-1.01939,0.00408913,11.3492,-5.39542,7.39003,0,0,3.31167,1
1774299876746,-0.00682761,-1.02202,0.00694254,9.85238,-5.08978,6.85347,0,0,3.30104,1
1774299876760,-0.00492748,-1.02255,0.0105894,8.1462,-4.70794,6.10722,0,0,3.32693,1
1774299876773,-0.00230969,-1.02387,0.0151978,6.18248,-4.36722,5.37543,0,0,3.304,1
1774299876787,0.000620695,-1.02366,0.0203734,3.84762,-4.13124,4.3066,0,0,3.27939,1
1774299876800,0.00318804,-1.02303,0.0254935,1.20012,-3.93933,2.99286,0,0,3.29058,1
1774299876813,0.00637981,-1.02113,0.0292473,-1.72619,-3.86737,1.93735,0,0,3.27519,1
1774299876827,0.00928251,-1.01603,0.0317051,-4.59884,-3.98871,1.32599,0,0,3.67164,1
1774299876841,0.0113429,-1.0072,0.0334042,-6.90143,-4.11609,1.0555,0,0,3.28858,1
1774299876854,0.0156088,-0.99984,0.0364063,-8.60686,-4.55146,1.03183,0,0,3.28082,1
1774299876867,0.0212576,-0.994455,0.038818,-9.9306,-5.46639,1.14951,0,0,3.30319,1
1774299876881,0.0256877,-0.990982,0.0404196,-11.1583,-6.78345,1.37149,0,0,3.30528,1
1774299876894,0.0258028,-0.988194,0.0399011,-12.2973,-8.26428,1.58102,0,0,3.30706,1
1774299876908,0.0221226,-0.985967,0.0382949,-13.2402,-9.58839,1.61865,0,0,3.27572,1
1774299876921,0.0165427,-0.985662,0.0368124,-14.1863,-10.5479,1.46876,0,0,3.27793,1
1774299876934,0.0102887,-0.979114,0.0315937,-14.7835,-10.8495,1.17443,0,0,3.29943,1
1774299876948,0.00478854,-0.973664,0.0272759,-14.4235,-10.6395,0.924858,0,0,3.31154,1
1774299876961,0.00164298,-0.972745,0.0243534,-13.7241,-10.2132,0.701278,0,0,3.293,1
1774299876975,-0.00303062,-0.974385,0.0218683,-13.2052,-9.45872,0.106155,0,0,3.27189,1
1774299876988,-0.0093576,-0.974865,0.0186484,-12.8096,-8.17798,-0.656833,0,0,3.29247,1
1774299877001,-0.0147886,-0.974779,0.016178,-12.3274,-6.56358,-1.33292,0,0,3.33256,1
1774299877015,-0.0199715,-0.976298,0.0147658,-11.9049,-4.79482,-1.95139,0,0,3.31751,1
1774299877029,-0.0247141,-0.978723,0.013394,-11.7128,-2.91631,-2.69959,0,0,3.67038,1
1774299877042,-0.0298152,-0.979034,0.0117192,-11.6394,-1.02328,-3.57495,0,0,3.28834,3
1774299877056,-0.033081,-0.975328,0.00877239,-11.1313,0.978082,-4.36782,0,0,3.28993,3
1774299877069,-0.0331718,-0.973812,0.00713956,-10.0346,2.70747,-4.89869,0,0,3.278,5
1774299877082,-0.0309524,-0.976484,0.006838,-8.99344,3.79691,-5.26919,0,0,3.2875,5
1774299877096,-0.029855,-0.979894,0.00627204,-8.28859,4.39449,-5.63517,0,0,3.28224,5
1774299877109,-0.0297558,-0.98199,0.00511156,-7.6541,4.67681,-5.82819,0,0,3.30406,5
1774299877123,-0.0294688,-0.983418,0.00410861,-6.91219,4.53265,-5.84083,0,0,3.27656,5
1774299877136,-0.0311589,-0.986578,0.00329899,-6.18663,4.15937,-5.70161,0,0,3.3021,5
1774299877149,-0.0345048,-0.990742,0.00268494,-5.68332,3.70126,-5.56762,0,0,3.29419,5
1774299877163,-0.0388788,-0.994072,0.00145712,-5.34183,3.30225,-5.39191,0,0,3.28776,5
1774299877176,-0.0422073,-0.995153,-2.66291e-05,-4.94157,3.0605,-5.05264,0,0,3.29275,5
1774299877190,-0.0432122,-0.995227,-0.00189392,-4.37707,2.84472,-4.61465,0,0,3.28676,5
1774299877203,-0.0418243,-0.995051,-0.0034233,-3.63571,2.52502,-4.14,0,0,3.38007,5
1774299877216,-0.0399098,-0.995726,-0.00431993,-2.88755,2.07594,-3.61404,0,0,3.31415,5
1774299877230,-0.0383673,-0.996629,-0.00566848,-2.27427,1.57413,-3.07434,0,0,3.6116,5
1774299877244,-0.0377464,-0.996979,-0.00702212,-1.65386,1.15356,-2.61072,0,0,3.30202,5
1774299877257,-0.0367469,-0.997805,-0.00820979,-1.08709,0.850784,-2.2549,0,0,3.26972,5
1774299877270,-0.0354602,-0.998253,-0.00993275,-0.62062,0.634784,-1.97513,0,0,3.2775,5
1774299877284,-0.0338667,-0.997967,-0.0117192,-0.166614,0.500266,-1.70462,0,0,3.2688,5
1774299877297,-0.032012,-0.997383,-0.0133954,0.324013,0.412687,-1.43688,0,0,3.29158,5
1774299877311,-0.0295977,-0.996184,-0.0155002,0.896308,0.32317,-1.19357,0,0,3.32056,5
1774299877324,-0.0268299,-0.996703,-0.0162637,1.44935,0.123063,-0.927938,0,0,3.28928,5
1774299877337,-0.0243967,-0.997531,-0.0173782,1.75898,-0.148031,-0.66051,0,0,3.30265,5
1774299877351,-0.0229347,-0.997212,-0.0184866,1.98574,-0.411626,-0.431633,0,0,3.27254,5
1774299877364,-0.0217822,-0.996757,-0.0195573,2.25373,-0.614619,-0.201464,0,0,3.27817,5
1774299877378,-0.0210752,-0.99597,-0.0201968,2.53494,-0.693613,0.0393444,0,0,3.27695,5
1774299877391,-0.0203457,-0.996477,-0.0199968,2.74815,-0.63501,0.275637,0,0,3.28502,5
1774299877404,-0.0186979,-0.996172,-0.0199658,2.86761,-0.536447,0.431451,0,0,3.27711,5
1774299877418,-0.0164602,-0.994856,-0.0199575,3.0446,-0.439988,0.474903,0,0,3.28393,5
1774299877431,-0.013968,-0.994098,-0.0192021,3.32727,-0.417449,0.451262,0,0,3.28382,5
1774299877445,-0.0115634,-0.994292,-0.0186934,3.60479,-0.448413,0.497457,0,0,3.34466,5
1774299877458,-0.0091572,-0.994264,-0.018399,3.84362,-0.576551,0.61428,0,0,3.29919,5
1774299877471,-0.00695234,-0.994633,-0.0181176,4.07034,-0.781854,0.730545,0,0,3.29415,5
1774299877485,-0.00562331,-0.99523,-0.0176028,4.22268,-1.04158,0.803037,0,0,3.3339,5
1774299877498,-0.00480084,-0.996357,-0.0166515,4.32965,-1.28974,0.850481,0,0,3.29802,5
1774299877512,-0.00416381,-0.996645,-0.0156991,4.3741,-1.45547,0.893122,0,0,3.30156,5
1774299877525,-0.00338381,-0.997112,-0.0152688,4.4015,-1.57336,0.908966,0,0,3.28774,5
1774299877538,-0.00193325,-0.99758,-0.0146864,4.37556,-1.72832,0.880673,0,0,3.29445,5
1774299877552,-0.00062086,-0.997664,-0.0143751,4.33651,-1.89214,0.831703,0,0,3.29754,5
1774299877565,0.000836995,-0.998215,-0.0138853,4.28252,-2.08616,0.837717,0,0,3.27687,5
1774299877579,0.00140897,-0.998432,-0.0135023,4.20202,-2.28129,0.872083,0,0,3.31758,5
1774299877592,0.00162495,-0.999023,-0.0130612,4.06951,-2.43593,0.834299,0,0,3.27893,5
1774299877605,0.000913278,-0.999386,-0.0121591,3.88706,-2.49283,0.769517,0,0,3.30862,5
1774299877619,0.000424909,-1.00027,-0.0111148,3.68315,-2.43607,0.700234,0,0,3.27613,5
1774299877632,0.000395649,-1.00038,-0.010159,3.42517,-2.31056,0.644685,0,0,3.27348,5
1774299877646,0.00118979,-0.999673,-0.00895662,3.25874,-2.17196,0.605526,0,0,3.30258,1
1774299877659,0.00220545,-0.999805,-0.0075613,3.11534,-2.13277,0.589116,0,0,3.28148,1
1774299877672,0.00239727,-0.999301,-0.00631241,2.9543,-2.1082,0.578337,0,0,3.31173,1
1774299877686,0.00228176,-0.998168,-0.00487257,2.92132,-2.07858,0.576297,0,0,3.27928,1
1774299877699,0.00216062,-0.997981,-0.00260952,2.89961,-2.03949,0.599208,0,0,3.28769,1
1774299877713,0.00169244,-0.997396,-0.000723037,2.856,-1.98161,0.576729,0,0,3.33606,1
1774299877726,0.00202414,-0.997083,0.00076064,2.84481,-1.91584,0.525539,0,0,3.30099,1
1774299877740,0.00280045,-0.99625,0.00246771,2.84453,-1.92399,0.508906,0,0,3.36621,1
1774299877753,0.00312641,-0.995005,0.00336342,2.96928,-1.92782,0.479076,0,0,3.27404,1
1774299877767,0.00372639,-0.995202,0.00435875,3.13329,-1.95457,0.433791,0,0,3.28784,1
1774299877780,0.00419336,-0.995102,0.00517176,3.22344,-1.99094,0.408174,0,0,3.27845,5
1774299877793,0.00493886,-0.994665,0.00543672,3.36848,-2.07323,0.390417,0,0,3.2878,5
1774299877807,0.0057265,-0.994845,0.00605311,3.48868,-2.19673,0.378794,0,0,3.27572,5
1774299877820,0.00623413,-0.99539,0.00594855,3.53749,-2.31457,0.333996,0,0,3.2885,5
1774299877834,0.00583337,-0.995101,0.00606209,3.62038,-2.37871,0.246752,0,0,3.28541,5
1774299877847,0.00519389,-0.995016,0.0064803,3.70976,-2.33007,0.168683,0,0,3.29489,5
1774299877860,0.00519097,-0.995448,0.00637841,3.74231,-2.2105,0.0988468,0,0,3.28254,5
1774299877874,0.00614909,-0.995743,0.0059927,3.72165,-2.10877,0.0312152,0,0,3.26971,5
1774299877887,0.00690515,-0.996217,0.00570927,3.65077,-2.04615,-0.037761,0,0,3.34023,5
1774299877901,0.00741462,-0.996094,0.00538485,3.59157,-1.97634,-0.102012,0,0,3.27748,5
1774299877914,0.0072078,-0.995742,0.0048504,3.59307,-1.87833,-0.148528,0,0,3.2905,5
1774299877927,0.00724492,-0.99611,0.00485182,3.60734,-1.74,-0.183444,0,0,3.28206,5
1774299877941,0.0070135,-0.996931,0.00537634,3.4962,-1.59187,-0.226677,0,0,3.42953,5
1774299877954,0.00681355,-0.996564,0.00546153,3.3429,-1.40324,-0.321437,0,0,3.27174,5
1774299877968,0.00643016,-0.99586,0.00545757,3.20892,-1.22262,-0.412595,0,0,3.26571,5
1774299877981,0.00644791,-0.995667,0.00579545,3.02978,-1.05427,-0.498639,0,0,3.27421,5
1774299877994,0.00657165,-0.995259,0.00589434,2.8564,-0.941183,-0.552881,0,0,3.30512,5
1774299878008,0.00645508,-0.995498,0.00629853,2.68334,-0.917507,-0.591663,0,0,3.30273,5
1774299878021,0.00575639,-0.995364,0.00678114,2.49214,-0.919993,-0.642399,0,0,3.26752,5
1774299878034,0.00466117,-0.994691,0.00693301,2.3515,-0.893651,-0.658176,0,0,3.26863,5
1774299878048,0.00367791,-0.994763,0.00735584,2.25042,-0.860652,-0.652943,0,0,3.295,5
1774299878061,0.00323947,-0.995078,0.00780289,2.0848,-0.83507,-0.655283,0,0,3.26141,5
1774299878075,0.00303374,-0.994343,0.00819836,1.88436,-0.810494,-0.699882,0,0,3.2671,5
1774299878088,0.0032534,-0.99317,0.00828825,1.67461,-0.813417,-0.741551,0,0,3.27737,5
1774299878101,0.00320721,-0.993522,0.00839557,1.46678,-0.891536,-0.775317,0,0,3.27671,5
1774299878115,0.00317372,-0.993656,0.00844481,1.21238,-1.01066,-0.866278,0,0,3.27235,5
1774299878128,0.00200995,-0.99436,0.00803279,0.947406,-1.1154,-0.961985,0,0,3.27026,5
1774299878141,0.00135617,-0.995963,0.00775623,0.678458,-1.20098,-1.02492,0,0,3.27752,5
1774299878155,-0.000112486,-0.996439,0.00741703,0.501241,-1.22782,-0.988839,0,0,3.31323,5
1774299878168,-0.000684119,-0.997363,0.00738094,0.405472,-1.25101,-0.91753,0,0,3.29478,5
1774299878182,-0.000333894,-0.999059,0.00821126,0.253844,-1.31443,-0.777,0,0,3.26693,5
1774299878195,-0.000233877,-0.999943,0.0092188,-0.00274829,-1.43553,-0.607958,0,0,3.29854,5
1774299878208,-0.000874939,-1.00035,0.0103638,-0.222254,-1.50187,-0.460387,0,0,3.28569,5
1774299878222,-0.00264107,-1.00051,0.0117256,-0.431159,-1.42833,-0.376329,0,0,3.26885,5
1774299878235,-0.00336904,-1.00161,0.0133802,-0.659605,-1.21933,-0.327388,0,0,3.27597,1
1774299878248,-0.00392638,-1.0016,0.0148984,-0.837555,-0.908581,-0.258498,0,0,3.30958,1
1774299878262,-0.00353046,-1.00109,0.0167346,-0.911751,-0.568591,-0.202036,0,0,3.29441,1
1774299878275,-0.00251123,-1.00102,0.0182663,-0.936398,-0.278072,-0.115771,0,0,3.26861,1
1774299878289,-0.00125898,-0.999846,0.0195494,-0.93183,-0.106615,-0.0253522,0,0,3.27419,5
1774299878302,-0.000424511,-0.998572,0.0206163,-0.811052,-0.0411167,0.0719836,0,0,3.3646,5
1774299878315,-0.00101453,-0.997278,0.021092,-0.580581,0.0245612,0.213529,0,0,3.27278,5
1774299878329,-0.00131182,-0.996298,0.0223477,-0.295813,0.0938343,0.341997,0,0,3.28304,5
1774299878342,-0.00131851,-0.995467,0.0231534,-0.0175987,0.159222,0.478245,0,0,3.27673,5
1774299878356,-0.000652269,-0.994939,0.0237638,0.227455,0.134876,0.611561,0,0,3.30749,5
1774299878369,0.000593422,-0.994317,0.0240805,0.448486,0.0386757,0.770797,0,0,3.26426,5
1774299878382,0.000973192,-0.993615,0.0243727,0.673818,-0.119782,0.9545,0,0,3.25965,5
1774299878396,0.00126162,-0.993125,0.0239687,0.908777,-0.290332,1.15102,0,0,3.26534,5
1774299878409,0.00192179,-0.993704,0.0235291,1.09887,-0.420486,1.33866,0,0,3.26867,5
1774299878422,0.00302288,-0.994182,0.0227777,1.20337,-0.536061,1.49522,0,0,3.26824,5
1774299878436,0.00494065,-0.99402,0.0220272,1.29002,-0.63616,1.64343,0,0,3.26524,5
1774299878449,0.00722297,-0.993182,0.0213415,1.44031,-0.757193,1.78118,0,0,3.42475,5
1774299878463,0.00933075,-0.993629,0.0206324,1.58218,-0.882141,1.90392,0,0,3.26806,5
1774299878476,0.0107057,-0.994282,0.0199009,1.59577,-1.00179,1.95813,0,0,3.38447,5
1774299878490,0.0112839,-0.9945,0.0191587,1.58205,-1.06935,1.96005,0,0,3.28197,5
1774299878503,0.0116659,-0.994367,0.0180966,1.59607,-1.04876,1.94259,0,0,3.27115,5
1774299878516,0.0127679,-0.994133,0.0170276,1.64527,-0.988217,1.90899,0,0,3.28273,5
1774299878530,0.0148147,-0.994709,0.0165178,1.68872,-0.972179,1.8914,0,0,3.26652,5
1774299878543,0.0165691,-0.994834,0.0158275,1.61755,-1.07479,1.86452,0,0,3.27921,5
1774299878556,0.0175315,-0.994249,0.0155304,1.60046,-1.20462,1.82759,0,0,3.29962,5
1774299878570,0.0173734,-0.994062,0.0153637,1.5959,-1.2912,1.77089,0,0,3.27026,5
1774299878583,0.0171581,-0.993681,0.014884,1.56376,-1.30526,1.70067,0,0,3.26519,5
1774299878596,0.0176676,-0.993776,0.0149377,1.5133,-1.32111,1.63825,0,0,3.29239,5
1774299878610,0.0181762,-0.993141,0.0146048,1.42499,-1.36904,1.57975,0,0,3.30999,5
1774299878623,0.0185664,-0.992822,0.0147028,1.3883,-1.40529,1.51512,0,0,3.26234,5
1774299878637,0.0184378,-0.992409,0.014679,1.32884,-1.42923,1.45326,0,0,3.26713,5
1774299878650,0.0180799,-0.99177,0.0150728,1.33951,-1.40472,1.37773,0,0,3.30419,5
1774299878663,0.0178017,-0.991767,0.0157055,1.33845,-1.34091,1.33128,0,0,3.29204,5
1774299878677,0.0173115,-0.99171,0.015766,1.24967,-1.23573,1.23648,0,0,3.26341,5
1774299878690,0.0174726,-0.991635,0.0158666,1.21255,-1.12316,1.11232,0,0,3.28828,5
1774299878703,0.0177975,-0.991723,0.016091,1.17279,-1.02848,1.00711,0,0,3.27184,5
1774299878717,0.0178947,-0.991989,0.0159211,1.06376,-0.954517,0.90951,0,0,3.26313,5
1774299878730,0.0178488,-0.99172,0.0156519,1.00238,-0.879566,0.774569,0,0,3.26789,5
1774299878745,0.0172284,-0.992136,0.0153411,0.932879,-0.77328,0.650622,0,0,4.7909,5
1774299878758,0.0163575,-0.992405,0.0151293,0.806903,-0.646409,0.553753,0,0,3.28374,5
1774299878772,0.0164216,-0.992812,0.0151937,0.701696,-0.538643,0.463174,0,0,3.27282,5
1774299878786,0.0168245,-0.993404,0.0153941,0.558715,-0.48231,0.375963,0,0,3.34697,5
1774299878800,0.0172738,-0.99302,0.0155536,0.419901,-0.477522,0.2778,0,0,3.30147,5
1774299878813,0.0165184,-0.99278,0.0158557,0.376223,-0.473858,0.188998,0,0,3.34227,5
1774299878826,0.0151981,-0.992989,0.0160378,0.262203,-0.453273,0.0859085,0,0,3.28404,5
1774299878840,0.0139035,-0.99305,0.0161158,0.118611,-0.370043,-0.0152523,0,0,3.26458,5
1774299878853,0.0137973,-0.992628,0.0165748,0.0233235,-0.321882,-0.0901857,0,0,3.29515,5
1774299878867,0.0135676,-0.992395,0.0168963,-0.0439255,-0.328234,-0.14807,0,0,3.25408,5
1774299878881,0.0128568,-0.992205,0.01683,-0.0889903,-0.368056,-0.220264,0,0,4.04337,5
1774299878894,0.0117714,-0.991617,0.0174286,-0.114828,-0.357687,-0.283269,0,0,3.25935,5
1774299878908,0.011374,-0.991129,0.0178729,-0.092116,-0.350041,-0.320047,0,0,3.26784,5
1774299878921,0.0113357,-0.991432,0.0180522,-0.0993664,-0.402342,-0.348339,0,0,3.27121,5
1774299878934,0.010541,-0.991412,0.0181062,-0.158021,-0.494099,-0.38789,0,0,3.25317,5
1774299878948,0.00951418,-0.991349,0.0183714,-0.157721,-0.58071,-0.432073,0,0,3.28424,5
1774299878961,0.00860696,-0.991685,0.0184755,-0.191692,-0.647475,-0.431815,0,0,3.26202,5
1774299878975,0.007654,-0.991899,0.0187672,-0.239173,-0.706643,-0.438851,0,0,4.067,5
1774299878989,0.00742604,-0.991495,0.0187579,-0.235177,-0.77448,-0.466902,0,0,3.27254,5
1774299879002,0.00726144,-0.991526,0.01908,-0.247677,-0.909163,-0.48139,0,0,3.30138,5
1774299879016,0.00644206,-0.991982,0.018961,-0.321134,-1.08767,-0.494209,0,0,4.15858,5
1774299879030,0.00480437,-0.992151,0.0191354,-0.432005,-1.24975,-0.502027,0,0,3.30947,5
1774299879043,0.00304611,-0.992259,0.0189819,-0.550359,-1.38475,-0.505553,0,0,3.38108,5
1774299879057,0.00245379,-0.99216,0.0190273,-0.671922,-1.59053,-0.490041,0,0,3.27367,1
1774299879070,0.00141759,-0.992353,0.0186863,-0.811074,-1.72569,-0.407317,0,0,3.3166,1
1774299879083,0.000362647,-0.991876,0.0184563,-0.950555,-1.87724,-0.365201,0,0,3.26015,1
1774299879098,-0.000251118,-0.991965,0.0183432,-1.12503,-1.98946,-0.318597,0,0,4.23803,1
1774299879111,-0.000560443,-0.992177,0.0182884,-1.40747,-2.10866,-0.286596,0,0,3.26248,1
1774299879125,-0.000909624,-0.9919,0.0177341,-1.77769,-2.21303,-0.297068,0,0,3.30147,1
1774299879138,-0.000581568,-0.992916,0.0173643,-2.32839,-2.33211,-0.422562,0,0,3.31734,1
1774299879151,0.000917276,-0.996429,0.0166796,-3.24042,-2.49931,-0.645923,0,0,3.28797,1
1774299879165,0.00350368,-0.999116,0.0148291,-4.63395,-2.8237,-0.958664,0,0,3.2765,1
1774299879178,0.00734361,-1.00219,0.0124616,-6.53166,-3.35983,-1.52747,0,0,3.28382,1
1774299879192,0.012094,-0.999795,0.00946097,-8.70528,-4.0727,-2.38423,0,0,4.03739,1
1774299879206,0.015964,-1.00413,-0.00127733,-11.1162,-4.75073,-3.4036,0,0,3.25954,1
1774299879219,0.015127,-0.99372,-0.0123895,-12.8126,-4.93341,-3.92262,0,0,3.22513,1
1774299879232,0.0214802,-0.989008,-0.0246279,-13.3117,-5.34778,-4.23996,0,0,3.26076,1
1774299879246,0.0231673,-0.987503,-0.0368863,-13.4269,-5.91746,-4.2736,0,0,3.24184,1
1774299879259,0.0239265,-0.986992,-0.0484485,-13.5918,-6.39224,-4.15549,0,0,3.23472,1
1774299879272,0.0230937,-0.9847,-0.0584266,-13.4297,-6.68752,-3.95408,0,0,3.21896,1
1774299879286,0.0211121,-0.981461,-0.067584,-12.5869,-6.48368,-3.37133,0,0,3.23667,3
1774299879299,0.0207868,-0.9813,-0.0724118,-11.168,-6.16152,-2.88549,0,0,3.22005,3
1774299879313,0.0201553,-0.975616,-0.0771139,-9.16749,-5.70073,-2.6821,0,0,3.72981,3
1774299879326,0.019434,-0.97949,-0.0788024,-6.59925,-5.17714,-2.18825,0,0,3.23393,3
1774299879339,0.0175271,-0.983879,-0.0783991,-4.48594,-4.63968,-1.2952,0,0,3.22746,3
1774299879353,0.0133653,-0.987595,-0.0754403,-2.54255,-3.97051,-0.377737,0,0,3.24313,3
1774299879366,0.00844603,-0.986899,-0.0758033,-0.138676,-2.91155,0.317416,0,0,3.21898,3
1774299879379,0.00615482,-0.995917,-0.0710361,2.39968,-1.87259,0.716237,0,0,3.23611,3
1774299879393,0.00348336,-1.00691,-0.0611817,3.9243,-1.02037,1.81632,0,0,3.2245,3
1774299879406,-0.000245738,-1.01688,-0.049356,4.49375,-0.5084,3.2983,0,0,3.8146,3
1774299879420,-0.0102392,-1.02265,-0.0341077,4.27894,0.107589,4.4685,0,0,3.22448,5
1774299879433,-0.0217602,-1.02055,-0.0172627,3.71051,1.38397,5.42191,0,0,3.24024,5
1774299879446,-0.0250153,-1.0137,0.00492075,3.64239,2.84824,6.11289,0,0,3.24661,5
1774299879460,-0.0247434,-1.00789,0.0305436,3.83372,3.86642,6.54331,0,0,3.22457,5
1774299879473,-0.0234371,-0.997111,0.0559428,4.28066,4.59241,6.53981,0,0,3.23919,5
1774299879487,-0.0220492,-0.985974,0.0808718,5.50023,4.73773,6.00084,0,0,3.63892,5
1774299879500,-0.0233911,-0.98079,0.104615,6.85008,4.37393,5.98495,0,0,3.27787,5
1774299879516,-0.0274931,-0.976131,0.124885,8.0193,3.79631,6.02776,0,0,5.52557,5
1774299879529,-0.0312448,-0.97015,0.140094,9.29764,3.2695,5.83652,0,0,3.29669,5
1774299879542,-0.0327505,-0.965273,0.151199,10.8991,2.67248,5.93646,0,0,3.22893,5
1774299879556,-0.0335176,-0.962179,0.158915,12.7117,1.9745,6.22777,0,0,3.32141,5
1774299879569,-0.0331622,-0.963342,0.163123,14.2937,1.4377,6.37171,0,0,3.275,5
1774299879583,-0.0285302,-0.969654,0.162459,15.2488,0.983675,6.34144,0,0,3.22987,5
1774299879596,-0.0220722,-0.974504,0.154127,15.4429,0.567109,6.17584,0,0,3.23278,5
1774299879609,-0.0137185,-0.983403,0.136774,14.7805,0.268539,5.70397,0,0,3.22385,5
1774299879623,-0.00408594,-0.993161,0.111424,12.8921,0.233351,4.84622,0,0,3.25476,5
1774299879636,0.00328897,-1.00171,0.0796564,10.031,0.564952,3.5159,0,0,3.25874,5
1774299879649,0.0111101,-1.0035,0.0406294,6.70914,1.29415,1.57511,0,0,3.2273,5
1774299879663,0.0191123,-0.993467,-0.00231749,4.33574,2.68381,-0.466624,0,0,3.23474,5
1774299879676,0.0268394,-0.991041,-0.0392863,3.10686,4.37148,-1.55673,0,0,3.23167,5
1774299879689,0.0416169,-0.994134,-0.071115,1.57823,5.43652,-2.51547,0,0,3.23207,5
1774299879702,0.058364,-0.998138,-0.0999716,-0.317242,5.57389,-4.38171,0,0,3.22511,5
1774299879716,0.0732256,-1.00251,-0.12526,-2.31663,5.14092,-5.96172,0,0,3.23772,5
1774299879729,0.084768,-1.00041,-0.137164,-4.10582,4.45348,-6.16511,0,0,3.25439,5
1774299879742,0.0934675,-0.996501,-0.135991,-5.0222,3.1225,-4.83361,0,0,3.23215,5
1774299879756,0.100505,-0.988027,-0.122538,-5.14127,0.538806,-4.5856,0,0,3.22983,5
1774299879769,0.0993236,-0.980821,-0.104196,-4.75397,-1.7394,-4.53177,0,0,3.22769,5
1774299879782,0.109415,-0.967449,-0.0831651,-3.51961,-4.77915,-4.18038,0,0,3.23193,5
1774299879796,0.108773,-0.945031,-0.0564233,-0.930339,-8.64393,-2.8827,0,0,3.22387,5
1774299879809,0.0946735,-0.954556,-0.0396274,1.28718,-11.883,0.851782,0,0,3.23232,5
1774299879822,0.0808279,-0.961113,-0.0315843,1.93262,-14.1808,3.1449,0,0,3.22846,5
1774299879836,0.0589929,-0.959974,-0.0371537,2.62022,-15.6475,3.83643,0,0,3.26308,5
1774299879849,0.0233574,-0.973928,-0.0376856,3.95006,-15.7473,7.22656,0,0,3.23446,5
1774299879862,0.00351254,-0.985072,-0.0277309,4.00681,-15.401,8.77887,0,0,3.22769,5
1774299879875,-0.00768098,-0.991277,-0.020048,3.44079,-14.4091,6.85759,0,0,3.23402,3
1774299879889,-0.00939503,-0.996666,-0.0174736,3.29489,-13.1786,5.56903,0,0,3.226,2
1774299879902,-0.00533266,-1.00233,-0.0102926,3.52499,-12.4762,5.60733,0,0,3.259,2
1774299879915,-0.00634865,-1.01326,-0.00273169,3.10803,-11.5105,4.92114,0,0,3.27106,2
1774299879929,-0.00665824,-1.01685,0.000259853,2.37534,-10.0847,3.3614,0,0,3.31884,1
1774299879942,-0.002833,-1.01959,0.00291771,1.74883,-9.00562,2.35929,0,0,3.241,2
1774299879956,-0.000103949,-1.01972,0.00665515,0.870577,-8.10569,1.65575,0,0,3.23493,2
1774299879969,0.00269794,-1.02228,0.00935363,-0.115984,-7.18687,0.675677,0,0,3.23346,2
1774299879982,0.00677597,-1.01732,0.00785553,-1.23475,-6.45746,0.00834305,0,0,3.23065,2
1774299879995,0.00777154,-1.01357,0.00551541,-1.78294,-5.89271,-0.18224,0,0,3.24363,2
1774299880009,0.00580879,-1.0076,0.00567993,-2.25498,-5.17852,-0.498295,0,0,3.23037,2
1774299880022,0.0049355,-1.00545,0.00334954,-2.51515,-4.45386,-1.04882,0,0,3.24096,5
1774299880035,0.00546704,-0.997963,0.00371554,-2.50809,-3.92229,-1.38649,0,0,3.25506,5
1774299880049,0.00373318,-0.995373,0.00302989,-2.343,-3.60893,-1.70223,0,0,3.24421,5
1774299880062,0.00171214,-0.99487,0.00505411,-2.26981,-3.26948,-2.37748,0,0,3.231,5
1774299880075,0.00102868,-0.993472,0.00569791,-2.28978,-3.09037,-3.2889,0,0,3.23391,5
1774299880089,5.48084e-05,-0.995337,0.00371907,-2.29837,-3.11699,-4.31019,0,0,3.23135,5
1774299880102,0.00103469,-0.996737,0.00616159,-2.23367,-3.1267,-5.43433,0,0,3.22248,5
1774299880115,0.004011,-0.997638,0.00957565,-2.43123,-3.24376,-6.52111,0,0,3.23306,5
1774299880129,0.0081704,-1.00114,0.0103741,-2.70892,-3.32172,-7.39878,0,0,3.22374,5
1774299880142,0.0123187,-1.00462,0.0105503,-2.90722,-3.3238,-7.99086,0,0,3.25861,5
1774299880155,0.0175455,-1.00696,0.00974725,-3.17405,-3.3172,-8.3686,0,0,3.23256,5
1774299880169,0.0219352,-1.00604,0.0102499,-3.30045,-3.39832,-8.50593,0,0,3.22461,5
1774299880182,0.0234743,-1.00623,0.0103461,-3.39621,-3.42907,-8.65525,0,0,3.23624,5
1774299880195,0.0256294,-1.00696,0.0103635,-3.43307,-3.37332,-8.88568,0,0,3.22206,5
1774299880208,0.0282134,-1.00731,0.00924827,-3.48928,-3.4089,-8.92635,0,0,3.23298,5
1774299880222,0.030866,-1.00832,0.00943105,-3.5342,-3.5324,-8.94632,0,0,3.2245,5
1774299880235,0.0325377,-1.00773,0.00831393,-3.65881,-3.64684,-8.99472,0,0,3.262,5
1774299880248,0.0338907,-1.00911,0.0057509,-3.75845,-3.74115,-9.07338,0,0,3.23983,1
1774299880262,0.0352166,-1.00761,0.00380177,-3.80582,-3.79078,-9.06369,0,0,3.22354,1
1774299880275,0.0371785,-1.00907,-8.0044e-05,-3.88865,-3.82478,-9.06055,0,0,3.22856,1
1774299880288,0.0384994,-1.00643,-0.00267103,-3.89061,-3.80892,-8.93169,0,0,3.22811,1
1774299880302,0.0409584,-1.00532,-0.00533021,-4.03505,-3.79052,-8.79037,0,0,3.22878,1
1774299880315,0.0429575,-1.0035,-0.00729654,-4.08404,-3.7556,-8.58161,0,0,3.23215,1
1774299880328,0.0450506,-1.00378,-0.00861101,-4.28871,-3.72435,-8.31006,0,0,3.25378,1
1774299880342,0.0470416,-1.00261,-0.0110638,-4.51701,-3.68671,-7.98566,0,0,3.25046,1
1774299880355,0.0489455,-1.00127,-0.0122776,-4.66742,-3.69744,-7.59339,0,0,3.2245,1
1774299880368,0.0514814,-1.00117,-0.0141963,-4.83252,-3.69343,-7.17431,0,0,3.23513,1
1774299880381,0.0545578,-1.00069,-0.0150703,-4.88045,-3.71533,-6.6901,0,0,3.22531,1
1774299880395,0.0561116,-0.998504,-0.014582,-4.894,-3.76256,-6.14913,0,0,3.22717,1
1774299880408,0.0575868,-0.999669,-0.0161331,-4.92436,-3.76517,-5.67747,0,0,3.2283,1
1774299880421,0.0582181,-1.00028,-0.0159614,-4.82926,-3.73082,-5.19372,0,0,3.23696,1
1774299880435,0.0600816,-1.00058,-0.0142597,-4.80758,-3.69239,-4.78422,0,0,3.25602,1
1774299880448,0.061522,-0.999987,-0.0121841,-4.80381,-3.60902,-4.36214,0,0,3.23209,1
1774299880461,0.0628673,-0.99892,-0.0121317,-4.94413,-3.577,-3.92092,0,0,3.22876,1
1774299880475,0.0632143,-0.99854,-0.0122524,-5.05089,-3.56605,-3.50016,0,0,3.22165,1
1774299880488,0.0630336,-0.998604,-0.0111827,-5.13795,-3.52231,-3.20278,0,0,3.22798,1
1774299880501,0.0637469,-0.998398,-0.0141317,-5.44707,-3.48444,-2.88482,0,0,3.22752,1
1774299880515,0.0666712,-1.0043,-0.0166847,-5.6044,-3.52878,-2.52604,0,0,3.29041,1
1774299880528,0.0668091,-1.00305,-0.0176206,-5.86295,-3.56634,-2.09747,0,0,3.22596,1
1774299880541,0.067667,-1.00543,-0.0202773,-6.39517,-3.63434,-1.75502,0,0,3.25508,1
1774299880555,0.0671101,-1.00548,-0.0229352,-6.77806,-3.66599,-1.38596,0,0,3.24387,1
1774299880568,0.0670579,-1.00486,-0.0247723,-7.19172,-3.71641,-1.06244,0,0,3.22744,1
1774299880581,0.0674992,-1.00363,-0.0260912,-7.53294,-3.70919,-0.78875,0,0,3.23076,1
1774299880595,0.0678251,-1.00058,-0.0260072,-7.82675,-3.79187,-0.471752,0,0,3.22217,1
1774299880608,0.0685532,-0.999537,-0.0275284,-8.17731,-3.88619,-0.128861,0,0,3.23076,1
1774299880621,0.0684486,-0.99912,-0.028588,-8.40843,-4.02445,0.225626,0,0,3.2217,1
1774299880635,0.0688611,-0.999735,-0.030007,-8.79958,-4.15882,0.526831,0,0,3.50026,1
1774299880648,0.0697253,-1.00412,-0.0326131,-9.24286,-4.35201,0.821845,0,0,3.24528,1
1774299880661,0.0703809,-1.0054,-0.031614,-9.61974,-4.53394,1.18723,0,0,3.23232,1
1774299880675,0.071499,-1.00522,-0.0297082,-10.22,-4.65,1.44135,0,0,3.22941,1
1774299880688,0.0737427,-1.00729,-0.0260601,-10.9925,-4.78225,1.81224,0,0,3.22865,1
1774299880701,0.0763153,-1.01504,-0.0254329,-12.0283,-5.03211,2.30619,0,0,3.23757,1
1774299880715,0.0779212,-1.02763,-0.0286448,-13.3781,-5.27566,2.74247,0,0,3.23046,1
1774299880728,0.0797665,-1.03549,-0.0253848,-14.6979,-5.54151,3.2155,0,0,3.25541,1
1774299880741,0.0822465,-1.04254,-0.0272429,-16.6271,-5.99285,3.67056,0,0,3.25826,1
1774299880755,0.0815645,-1.04533,-0.0240229,-18.6139,-6.52548,4.16476,0,0,3.22417,1
1774299880768,0.0844676,-1.05929,-0.0249902,-21.137,-7.16184,4.20219,0,0,3.23189,1
1774299880781,0.0827809,-1.06603,-0.0240468,-23.823,-7.7655,3.84016,0,0,3.23632,1
1774299880795,0.08262,-1.07842,-0.0220449,-26.3828,-8.45005,3.37941,0,0,3.22844,1
1774299880808,0.0843666,-1.08624,-0.0249032,-29.1557,-9.36082,2.60238,0,0,3.232,1
1774299880821,0.0791076,-1.09511,-0.0294515,-32.1862,-9.95759,2.33266,0,0,3.24326,1
1774299880835,0.0771534,-1.09253,-0.0308327,-34.7098,-9.90088,2.49598,0,0,3.22237,1
1774299880848,0.0732455,-1.09436,-0.035015,-36.8781,-10.0465,2.66683,0,0,3.24717,1
1774299880861,0.0612765,-1.09673,-0.0415234,-39.3517,-9.74883,3.16809,0,0,3.2403,1
1774299880874,0.0527351,-1.09567,-0.047288,-41.8176,-8.96007,3.3886,0,0,3.22537,1
1774299880888,0.042859,-1.09482,-0.0544555,-44.3178,-7.22216,3.68665,0,0,3.23106,1
1774299880901,0.0401732,-1.08839,-0.0608077,-46.6798,-5.65753,3.8678,0,0,3.22976,1
1774299880914,0.04226,-1.08555,-0.0679926,-48.3103,-4.53733,4.0619,0,0,3.23891,1
1774299880928,0.0378708,-1.07818,-0.0691831,-49.339,-3.07277,4.72212,0,0,3.23413,1
1774299880941,0.0397166,-1.0526,-0.0495763,-48.998,-1.67751,5.61677,0,0,3.26158,1
1774299880954,0.0398375,-1.0328,-0.0261292,-46.9719,-0.915442,7.26795,0,0,3.2385,1
1774299880968,0.0391523,-1.01674,-0.0023301,-44.5606,-0.443186,9.46407,0,0,3.23089,5
1774299880981,0.0431842,-0.996803,0.021357,-41.4916,-0.670956,11.2578,0,0,3.26456,5
1774299880994,0.0470505,-0.978632,0.0437841,-37.729,-1.54407,13.0752,0,0,3.2343,5
1774299881008,0.052424,-0.960967,0.0645043,-33.4002,-3.05246,15.1082,0,0,3.23774,5
1774299881021,0.0570286,-0.94762,0.0832186,-28.5564,-4.77682,17.0264,0,0,3.2253,5
1774299881034,0.0638342,-0.937183,0.0985414,-23.5754,-6.8472,18.3729,0,0,3.24689,5
1774299881048,0.0678437,-0.930802,0.110632,-18.3205,-9.21765,19.473,0,0,3.37151,5
1774299881061,0.0694678,-0.926376,0.119844,-13.0705,-11.5095,20.5405,0,0,3.27737,5
1774299881074,0.0697503,-0.924951,0.126668,-7.59305,-13.3812,21.3267,0,0,3.25021,5
1774299881088,0.0715793,-0.927689,0.130716,-2.05246,-15.0173,21.7785,0,0,3.2275,5
1774299881101,0.0673386,-0.933168,0.131918,3.28226,-16.2851,21.8539,0,0,3.2382,5
1774299881114,0.0613828,-0.939048,0.131338,8.43978,-16.8827,21.1864,0,0,3.22609,5
1774299881128,0.054812,-0.945781,0.129705,13.326,-16.7895,19.8045,0,0,3.27311,5
1774299881141,0.0504824,-0.952359,0.127097,18.0563,-16.1984,18.3018,0,0,3.26256,5
1774299881154,0.0486911,-0.959685,0.124859,22.4493,-15.4452,16.5862,0,0,3.22704,5
1774299881170,0.0484622,-0.967502,0.122154,26.3347,-14.6881,14.4685,0,0,3.28823,5
1774299881183,0.0507203,-0.973183,0.119022,30.1397,-13.9652,12.2927,0,0,3.23174,5
1774299881197,0.0558265,-0.980356,0.115685,33.6507,-13.5514,10.3619,0,0,3.23111,5
1774299881210,0.0594923,-0.989351,0.113007,36.9022,-13.4661,8.54708,0,0,3.23206,5
1774299881223,0.060841,-1.00251,0.110691,39.3064,-13.3385,6.5523,0,0,3.23472,5
1774299881237,0.0621734,-1.01454,0.106181,40.7035,-13.0609,4.40779,0,0,3.2362,5
1774299881250,0.0652093,-1.02335,0.0992101,41.8518,-12.7594,2.34247,0,0,3.25793,5
1774299881263,0.0661051,-1.02997,0.0902804,42.9983,-12.5276,0.365591,0,0,3.23632,5
1774299881277,0.0615806,-1.03166,0.0808122,44.4666,-12.063,-1.96669,0,0,3.26873,5
1774299881290,0.0552467,-1.02358,0.0696014,47.305,-10.8498,-4.63103,0,0,3.23826,5
1774299881303,0.0480474,-1.02585,0.0642193,51.2833,-8.90141,-6.76482,0,0,3.22743,5
1774299881317,0.0428819,-1.03756,0.0600976,54.3444,-6.42217,-8.2651,0,0,3.23722,5
1774299881330,0.0406328,-1.04549,0.0533908,56.5165,-3.85935,-10.2593,0,0,3.22374,5
1774299881344,0.0393897,-1.04969,0.0453544,58.6058,-1.26087,-12.5595,0,0,3.56806,5
1774299881357,0.0412545,-1.05409,0.0366979,60.4841,1.27964,-14.3321,0,0,3.22467,5
1774299881373,0.0424185,-1.06077,0.0285588,61.7329,3.26786,-15.7393,0,0,6.07679,5
1774299881386,0.0397413,-1.0624,0.0168251,62.4857,5.15442,-17.4834,0,0,3.23395,5
1774299881400,0.0386653,-1.06078,0.00626657,63.5687,7.26999,-18.9665,0,0,3.22932,5
1774299881413,0.0415868,-1.06429,-0.00153469,64.6312,8.98686,-19.3409,0,0,3.236,5
1774299881426,0.0449678,-1.06861,-0.0105856,64.8181,10.0011,-19.38,0,0,3.22984,5
1774299881440,0.0471652,-1.06602,-0.021942,64.6163,10.6151,-19.9393,0,0,3.22917,5
1774299881453,0.0488501,-1.06308,-0.0324921,64.5188,10.9736,-20.4522,0,0,3.25393,5
1774299881466,0.0506002,-1.06438,-0.0431574,63.8637,10.9601,-20.3335,0,0,3.25391,5
1774299881480,0.0505761,-1.06369,-0.0544667,62.5564,10.6151,-20.1316,0,0,3.256,5
1774299881493,0.0487913,-1.0618,-0.0662422,60.8698,10.2595,-20.292,0,0,3.27071,5
1774299881506,0.0479067,-1.05979,-0.0770224,58.9353,10.0043,-20.4054,0,0,3.23745,5
1774299881520,0.0494418,-1.06035,-0.086146,56.6113,9.70088,-20.0658,0,0,3.22209,5
1774299881533,0.0531305,-1.0599,-0.0939417,53.7784,9.10535,-19.7324,0,0,3.23015,5
1774299881546,0.0529744,-1.06113,-0.101172,50.749,8.49227,-19.4734,0,0,3.40338,5
1774299881560,0.0473158,-1.05755,-0.109144,47.5893,8.17949,-18.7998,0,0,3.24943,5
1774299881573,0.0389792,-1.06032,-0.113296,44.4746,8.4927,-17.6682,0,0,3.22656,5
1774299881586,0.0315945,-1.06745,-0.11542,40.3554,9.52226,-16.765,0,0,3.22287,5
1774299881600,0.0253014,-1.06968,-0.119053,35.6485,11.067,-16.2318,0,0,3.229,5
1774299881613,0.018376,-1.06952,-0.123829,30.9222,13.1296,-15.6133,0,0,3.22341,5
1774299881626,0.0160776,-1.08123,-0.124863,25.4608,15.5395,-15.0124,0,0,3.22719,5
1774299881640,0.0257631,-1.08018,-0.0938952,20.4928,17.2429,-14.4071,0,0,3.23365,5
1774299881653,0.0318006,-1.08873,-0.0583135,15.6378,16.912,-13.8294,0,0,3.27028,5
1774299881666,0.0339012,-1.10354,-0.0393743,9.30469,16.5145,-13.0524,0,0,3.22543,5
1774299881680,0.03386,-1.09946,-0.031054,3.6197,15.7089,-12.065,0,0,3.23617,5
1774299881693,0.0357852,-1.09464,-0.0232258,-0.273879,15.3433,-11.1626,0,0,3.23067,5
1774299881706,0.0389607,-1.09438,-0.0146294,-3.57482,15.5732,-10.2826,0,0,3.22289,5
1774299881719,0.0441542,-1.08625,-0.00872596,-6.27912,15.7098,-9.19067,0,0,3.23119,5
1774299881733,0.0481702,-1.08092,-0.00203431,-8.35772,15.518,-7.9498,0,0,3.22546,5
1774299881746,0.0497792,-1.07413,0.00511208,-10.3052,15.205,-6.85731,0,0,3.47133,5
1774299881760,0.0527805,-1.06669,0.00770722,-11.8317,14.7294,-6.01066,0,0,3.22704,5
1774299881773,0.0572201,-1.05967,0.0109149,-12.8092,14.0025,-4.91219,0,0,3.23483,5
1774299881786,0.0555825,-1.05223,0.0149325,-13.6005,13.1464,-3.77942,0,0,3.22994,5
1774299881800,0.0538137,-1.04731,0.018689,-14.1847,12.4291,-3.39444,0,0,3.23263,5
1774299881813,0.0540014,-1.04374,0.0227297,-14.5439,11.6219,-3.34748,0,0,3.22983,5
1774299881826,0.0550777,-1.03972,0.0273624,-14.7018,10.4917,-3.19397,0,0,3.22978,5
1774299881839,0.0546763,-1.03801,0.0323477,-14.8568,9.42021,-3.11158,0,0,3.23376,5
1774299881853,0.0550718,-1.0351,0.037841,-15.0567,8.59508,-3.07535,0,0,3.25193,5
1774299881866,0.0587706,-1.03341,0.0434571,-15.4144,7.86333,-2.92254,0,0,3.32916,5
1774299881879,0.0615388,-1.02752,0.0490945,-15.7462,7.16277,-2.50384,0,0,3.22728,5
1774299881893,0.0638017,-1.02847,0.0526275,-16.1535,6.66851,-2.01099,0,0,3.23252,5
1774299881906,0.0644815,-1.02167,0.0584404,-16.2451,6.35526,-1.44731,0,0,3.23085,5
1774299881919,0.0661031,-1.02388,0.0612018,-16.3289,5.8776,-1.05783,0,0,3.23924,5
1774299881933,0.0639383,-1.01561,0.0635648,-16.2446,5.33981,-0.535629,0,0,3.23467,1
1774299881946,0.0640142,-1.02572,0.0629737,-16.1765,4.84504,-0.464478,0,0,3.27015,1
1774299881959,0.0618126,-1.01509,0.0682487,-15.8411,4.42982,-0.341226,0,0,3.27258,1
1774299881973,0.0608177,-1.02082,0.0686806,-16.1181,3.8829,-0.340498,0,0,3.2322,1
1774299881986,0.0623113,-1.02192,0.0652927,-16.0023,3.49339,-0.389908,0,0,3.23259,1
1774299881999,0.0627146,-1.02955,0.0626401,-16.1644,3.2315,-0.425843,0,0,3.23359,1
1774299882013,0.0622461,-1.0235,0.0611713,-16.2918,2.99671,-0.579653,0,0,3.23306,1
1774299882026,0.0629405,-1.02672,0.06187,-16.4651,2.78366,-0.899537,0,0,3.23226,1
1774299882039,0.063028,-1.01914,0.0604028,-16.6454,2.54103,-1.09828,0,0,3.25258,1
1774299882053,0.0652471,-1.02653,0.0589677,-16.6289,2.17198,-1.35225,0,0,3.28634,1
1774299882066,0.0646358,-1.02101,0.0519366,-16.7641,1.88402,-1.57913,0,0,3.22739,1
1774299882079,0.0666991,-1.02824,0.0539361,-16.2382,1.45977,-1.76459,0,0,3.22872,1
1774299882093,0.0638142,-1.01078,0.0569371,-16.1323,1.1351,-1.87799,0,0,3.23519,1
1774299882108,0.0653262,-1.01431,0.0572551,-15.7879,0.504085,-2.03213,0,0,5.30068,1
1774299882121,0.064893,-1.01281,0.0575379,-15.3374,0.0163655,-2.24314,0,0,3.25061,1
1774299882135,0.066486,-1.01328,0.0560359,-15.2761,-0.483818,-2.47699,0,0,3.24324,1
1774299882148,0.0686926,-1.01297,0.0542259,-15.151,-0.988915,-2.51618,0,0,3.24276,1
1774299882161,0.0693187,-1.01345,0.0535308,-15.0727,-1.4477,-2.49279,0,0,3.25369,1
1774299882175,0.0706754,-1.01202,0.0515634,-14.9924,-1.95011,-2.43432,0,0,3.26963,1
1774299882188,0.0697199,-1.00809,0.051337,-14.9564,-2.42648,-2.27208,0,0,3.27658,1
1774299882201,0.0703544,-1.01179,0.0478748,-14.9675,-2.84873,-2.19987,0,0,3.24015,1
1774299882215,0.0709292,-1.00832,0.049582,-14.9766,-3.17707,-2.00368,0,0,3.25267,1
1774299882228,0.0706993,-1.01046,0.0482358,-15.2934,-3.48785,-1.87459,0,0,3.23761,1
1774299882241,0.0703301,-1.01108,0.0470339,-15.4962,-3.66173,-1.787,0,0,3.24043,1
1774299882255,0.0706283,-1.01095,0.0469308,-15.8383,-3.79418,-1.67605,0,0,3.25313,1
1774299882268,0.0713191,-1.00905,0.0474622,-16.0902,-3.99926,-1.47028,0,0,3.25263,1
1774299882282,0.0728873,-1.01014,0.0441588,-16.5026,-4.28662,-1.35441,0,0,3.23593,1
1774299882295,0.0720273,-1.0085,0.0419713,-16.7784,-4.68331,-1.2125,0,0,3.27982,3
1774299882308,0.0734257,-1.01466,0.0364416,-17.2019,-5.07146,-1.23569,0,0,3.24771,3
1774299882322,0.0726703,-1.00993,0.0391721,-17.358,-5.36332,-1.12485,0,0,3.23358,3
1774299882335,0.0714141,-1.00626,0.0390178,-17.898,-5.68335,-1.06989,0,0,3.24461,3
1774299882348,0.0720172,-1.00557,0.0353789,-18.272,-5.8437,-0.985038,0,0,3.23843,3
1774299882362,0.0731278,-1.00608,0.030255,-18.5834,-6.02203,-0.818029,0,0,3.26702,3
1774299882375,0.0741258,-1.00517,0.0257715,-18.8076,-6.10172,-0.52979,0,0,3.23911,3
1774299882388,0.075048,-1.00532,0.0217723,-18.9931,-6.22361,-0.235882,0,0,3.24735,3
1774299882402,0.0772432,-1.00547,0.0203504,-19.1797,-6.35194,0.158864,0,0,3.2425,3
1774299882415,0.0797909,-1.00716,0.0167805,-19.564,-6.57413,0.635944,0,0,3.23071,3
1774299882428,0.0804013,-1.00552,0.0172638,-19.6737,-6.83566,1.23142,0,0,3.24085,3
1774299882442,0.0790206,-1.0064,0.0118537,-20.1925,-7.16902,1.64363,0,0,3.23883,3
1774299882455,0.0778176,-1.00867,0.013759,-20.2554,-7.57316,1.97833,0,0,3.3926,3
1774299882468,0.0774894,-1.01981,0.00586496,-21.1051,-8.03471,1.89562,0,0,3.23491,3
1774299882482,0.0782539,-1.0171,0.0122068,-20.8916,-8.44083,1.70537,0,0,3.30226,3
1774299882495,0.0801594,-1.01714,0.0122709,-21.7078,-9.20225,1.22648,0,0,3.24308,3
1774299882508,0.0871172,-1.03883,0.00718587,-22.3403,-10.1381,0.915335,0,0,3.23622,3
1774299882522,0.0885177,-1.04989,0.00955151,-23.1425,-11.2427,0.469632,0,0,3.24272,3
1774299882535,0.0884262,-1.06523,0.00978509,-24.4739,-12.3497,-0.628033,0,0,3.24046,3
1774299882548,0.0849968,-1.07698,0.00838556,-26.4247,-13.2395,-2.14241,0,0,3.25189,3
1774299882562,0.0841625,-1.08976,0.00742094,-27.8567,-13.853,-3.63265,0,0,3.25406,3
1774299882575,0.0826599,-1.10072,0.00428838,-29.7594,-14.2149,-5.19001,0,0,3.27099,3
1774299882589,0.0837962,-1.11472,0.00554222,-31.8492,-13.9669,-6.32775,0,0,3.24278,3
1774299882602,0.0911715,-1.12548,0.00280145,-35.3285,-13.9683,-7.02016,0,0,3.24271,3
1774299882615,0.0960568,-1.12443,0.00617028,-38.3335,-14.3825,-6.99248,0,0,3.24724,3
1774299882628,0.102907,-1.12316,0.00329527,-41.8893,-15.5389,-6.90127,0,0,3.23624,3
1774299882642,0.105293,-1.11947,0.0046566,-44.4831,-17.3144,-6.57111,0,0,3.24528,3
1774299882655,0.110532,-1.10671,0.0130372,-46.9634,-18.8977,-5.78247,0,0,3.26884,3
1774299882668,0.117934,-1.09107,0.0169086,-48.0454,-20.6569,-4.19454,0,0,3.26395,3
1774299882682,0.127094,-1.06414,0.043865,-46.9428,-22.1585,-1.68687,0,0,3.24313,3
1774299882695,0.126309,-1.04409,0.0675178,-45.4525,-24.4134,2.0422,0,0,3.27873,3
1774299882709,0.12182,-1.02255,0.0896131,-42.6435,-26.7329,5.18785,0,0,3.25576,3
1774299882722,0.110493,-1.00886,0.111692,-39.6735,-28.1758,7.45527,0,0,3.24471,3
1774299882735,0.0990194,-0.997089,0.131333,-36.62,-28.8558,8.99989,0,0,3.24919,3
1774299882749,0.0907706,-0.985483,0.148822,-33.3759,-29.1028,10.1663,0,0,3.24089,3
1774299882762,0.0822526,-0.974939,0.165365,-29.9216,-28.7729,11.4214,0,0,3.27306,3
1774299882775,0.078506,-0.965369,0.180512,-26.4111,-28.2149,12.508,0,0,3.2516,3
1774299882789,0.0742934,-0.954295,0.192413,-22.6161,-27.5503,13.1535,0,0,3.24778,2
1774299882802,0.0703717,-0.945265,0.200718,-18.4641,-26.6562,13.7405,0,0,3.2525,2
1774299882815,0.065415,-0.935583,0.206044,-13.9725,-25.5763,14.3177,0,0,3.23922,2
1774299882829,0.0625863,-0.925556,0.209643,-8.99083,-24.3395,14.5564,0,0,3.24791,2
1774299882842,0.0605966,-0.919618,0.212497,-3.55424,-22.9644,14.7123,0,0,3.24432,4
1774299882855,0.0599325,-0.916162,0.213379,1.96492,-21.5838,14.7186,0,0,3.25058,4
1774299882869,0.0592547,-0.915728,0.212728,7.60439,-20.0935,14.4222,0,0,3.26317,4
1774299882882,0.0560334,-0.918346,0.209927,13.3022,-18.5134,13.8924,0,0,3.25428,4
1774299882895,0.0488957,-0.926124,0.206362,18.8071,-16.4965,13.2536,0,0,3.23922,4
1774299882909,0.0461595,-0.936145,0.203028,23.6787,-14.2258,12.2498,0,0,3.23415,4
1774299882922,0.0473759,-0.948077,0.199915,27.7919,-12.0718,11.0159,0,0,3.30932,4
1774299882935,0.0503115,-0.960181,0.196318,31.182,-10.2522,9.85249,0,0,3.25721,4
1774299882949,0.0507164,-0.968745,0.189622,34.3845,-8.62983,8.95429,0,0,3.25541,5
1774299882962,0.0517336,-0.973774,0.178703,38.181,-7.18448,7.97888,0,0,3.2636,5
1774299882975,0.0493537,-0.984402,0.166884,42.4956,-5.9431,6.86078,0,0,3.28671,5
1774299882989,0.0417501,-0.999711,0.153821,46.4178,-4.23226,5.61743,0,0,3.23817,5
1774299883002,0.0353866,-1.01497,0.14025,49.7423,-1.92886,4.32436,0,0,3.23652,5
1774299883015,0.0333906,-1.03025,0.127828,52.4368,0.565185,3.16334,0,0,3.24504,5
1774299883029,0.0343006,-1.04945,0.116995,53.9589,3.02681,2.13295,0,0,3.23865,5
1774299883042,0.0380963,-1.06727,0.106615,53.9467,5.49851,1.17577,0,0,3.24506,5
1774299883055,0.0443098,-1.07811,0.0935281,52.8145,7.83114,0.159677,0,0,3.27949,5
1774299883069,0.0534973,-1.07386,0.0774905,52.4147,9.8047,-1.0679,0,0,3.28126,5
1774299883082,0.0596779,-1.07019,0.064706,53.2534,11.6693,-1.98169,0,0,3.24048,5
1774299883096,0.066421,-1.06949,0.0523951,54.4274,13.1484,-3.0883,0,0,3.23733,5
1774299883109,0.068812,-1.06936,0.0407401,55.7916,14.7963,-4.39188,0,0,3.24617,5
1774299883122,0.0743442,-1.07107,0.0296802,56.9457,16.2126,-5.61292,0,0,3.23993,5
1774299883136,0.0845992,-1.07235,0.0201397,57.8385,16.8545,-6.97143,0,0,3.24843,5
1774299883149,0.0960286,-1.07381,0.0107708,58.3794,16.4696,-8.61556,0,0,3.27275,5
1774299883163,0.10478,-1.07252,0.00107493,58.4485,15.0923,-10.2236,0,0,3.58942,5
1774299883176,0.109583,-1.06213,-0.0116562,58.9966,13.1757,-11.3423,0,0,3.23209,5
1774299883189,0.111997,-1.05605,-0.0196773,60.549,10.7419,-11.5946,0,0,3.23841,5
1774299883203,0.110185,-1.05647,-0.0241872,61.7758,7.83229,-11.2932,0,0,3.24421,5
1774299883216,0.104576,-1.05632,-0.0289484,62.2285,5.02252,-11.0528,0,0,3.24993,5
1774299883229,0.0955827,-1.05555,-0.0350281,62.2795,2.75401,-10.5968,0,0,3.27039,5
1774299883243,0.0868222,-1.05589,-0.0403935,61.8678,0.959574,-9.57934,0,0,3.24171,5
1774299883256,0.0801105,-1.05873,-0.0457591,60.5577,-0.516258,-8.42928,0,0,3.25099,5
1774299883269,0.0738844,-1.05929,-0.052513,58.3799,-1.66139,-7.57923,0,0,3.25517,5
1774299883283,0.067984,-1.05536,-0.0625056,55.8969,-2.45839,-6.89418,0,0,3.24878,5
1774299883296,0.0623203,-1.05301,-0.0740257,53.4548,-3.11692,-5.90587,0,0,3.24335,5
1774299883309,0.0566695,-1.05622,-0.0889284,50.2594,-3.75907,-4.69467,0,0,3.23889,5
1774299883323,0.0495254,-1.06429,-0.106489,46.0747,-4.00808,-3.62035,0,0,3.28632,5
1774299883336,0.0423413,-1.06741,-0.125076,41.0847,-3.95839,-2.84222,0,0,3.25191,5
1774299883349,0.0389949,-1.07218,-0.143116,35.7422,-3.68925,-2.03581,0,0,3.25184,5
1774299883363,0.0380262,-1.06817,-0.159792,30.0965,-3.46604,-1.04983,0,0,3.31638,5
1774299883376,0.0276402,-1.06064,-0.116011,26.1483,-3.08536,0.912777,0,0,3.29782,5
1774299883389,0.0327522,-1.06486,-0.0592506,22.4555,-2.96796,0.549001,0,0,3.24178,2
1774299883403,0.0249457,-1.09978,-0.0319317,15.0377,-2.15235,-1.74561,0,0,3.2373,2
1774299883416,0.0280935,-1.1021,-0.0223354,6.48643,-1.80725,-2.71174,0,0,3.24341,2
1774299883430,0.0343708,-1.09084,-0.0215295,1.1188,-1.92982,-2.02354,0,0,3.24063,2
1774299883443,0.0348429,-1.09469,-0.0132422,-3.03827,-1.44819,-1.02027,0,0,3.24634,2
1774299883456,0.0334045,-1.08849,-0.00907569,-6.98015,-0.412105,-0.184168,0,0,3.24021,2
1774299883470,0.030214,-1.0828,-0.00555046,-9.51527,1.13364,0.125893,0,0,3.30458,2
1774299883483,0.030601,-1.07676,0.00402388,-11.4839,2.57127,-0.0199008,0,0,3.24865,5
1774299883496,0.0318465,-1.06833,0.0107025,-13.0843,3.2907,-0.439692,0,0,3.2435,5
1774299883510,0.0333579,-1.06266,0.0114516,-14.2862,3.48078,-0.921573,0,0,3.24809,5
1774299883523,0.0339811,-1.05174,0.0163853,-14.6191,3.44054,-1.37214,0,0,3.24165,5
1774299883536,0.038805,-1.0493,0.0213809,-14.7051,3.12295,-1.9777,0,0,3.2481,5
1774299883550,0.0422756,-1.03787,0.0259444,-14.9118,2.56925,-2.19305,0,0,3.24648,5
1774299883563,0.0481462,-1.03999,0.026753,-14.5271,1.98582,-2.24645,0,0,3.24947,5
1774299883576,0.048838,-1.0278,0.0359183,-14.1879,1.62608,-2.30413,0,0,3.264,5
1774299883590,0.0505886,-1.02625,0.0423231,-14.0733,1.30365,-2.38812,0,0,3.24152,5
1774299883603,0.0551667,-1.02635,0.0456932,-14.0367,0.908102,-2.20064,0,0,3.24591,5
1774299883616,0.0577295,-1.03078,0.0439725,-14.1631,0.363465,-1.80531,0,0,3.23717,5
1774299883630,0.0602444,-1.02462,0.051285,-13.8645,-0.0491411,-1.29341,0,0,3.24593,5
1774299883643,0.0605352,-1.03176,0.051263,-14.1273,-0.437747,-0.881738,0,0,3.23667,5
1774299883656,0.0623188,-1.01922,0.0600717,-13.6954,-0.833672,-0.191284,0,0,3.25174,1
1774299883670,0.0617928,-1.02644,0.0598789,-13.9963,-1.37352,0.419335,0,0,3.2708,1
1774299883683,0.0619199,-1.01389,0.0663463,-13.3812,-1.87153,1.03381,0,0,3.25052,1
1774299883696,0.059671,-1.03099,0.0635409,-13.9186,-2.31549,1.41514,0,0,3.24061,1
1774299883710,0.0612255,-1.03278,0.0619793,-13.6654,-2.41169,1.77251,0,0,3.23893,1
1774299883723,0.0589643,-1.02873,0.0653119,-14.0002,-2.49008,2.36547,0,0,3.24595,1
1774299883736,0.0592257,-1.02678,0.0655092,-14.2999,-2.44932,2.85879,0,0,3.23802,1
1774299883750,0.0591554,-1.02577,0.0659115,-14.7541,-2.3085,3.37154,0,0,3.24613,1
1774299883763,0.0586824,-1.02143,0.0672464,-15.3387,-2.26893,3.92447,0,0,3.23926,1
1774299883776,0.057771,-1.01867,0.0690247,-16.0553,-2.17934,4.42797,0,0,3.29877,1
1774299883790,0.0572731,-1.01852,0.0650024,-16.7484,-2.18598,4.95033,0,0,3.23339,1
1774299883803,0.0582064,-1.01677,0.0642737,-16.9826,-2.35025,5.42584,0,0,3.23632,1
1774299883816,0.0562374,-1.01474,0.0614415,-17.357,-2.58024,5.7612,0,0,3.24472,1
1774299883830,0.0550592,-1.01565,0.0625128,-17.4153,-2.81488,5.94844,0,0,3.2383,1
1774299883843,0.0521816,-1.01186,0.0634411,-17.8116,-2.87236,6.07379,0,0,3.24885,1
1774299883856,0.0493443,-1.01056,0.0632719,-17.946,-2.99513,6.07393,0,0,3.24015,1
1774299883870,0.0465992,-1.00864,0.0630459,-18.0603,-2.98427,5.97259,0,0,3.44087,1
1774299883883,0.0440701,-1.00985,0.0625736,-18.1289,-2.89309,5.78273,0,0,3.23563,1
1774299883896,0.0429863,-1.00977,0.0599439,-18.3546,-2.71069,5.59795,0,0,3.23834,1
1774299883910,0.0429855,-1.00841,0.0597247,-18.2563,-2.61516,5.43081,0,0,3.24308,1
1774299883923,0.0404864,-1.00426,0.0602091,-18.3057,-2.55967,5.25764,0,0,3.23824,1
1774299883936,0.0389187,-1.00977,0.0542982,-18.3815,-2.65203,4.88565,0,0,3.27045,1
1774299883950,0.0379747,-1.01181,0.050952,-18.307,-2.77688,4.50884,0,0,3.23769,1
1774299883963,0.0379689,-1.01287,0.0488412,-18.5249,-3.03218,4.09493,0,0,3.25324,1
1774299883976,0.0382303,-1.01507,0.0465344,-18.8842,-3.3134,3.73421,0,0,3.25434,1
1774299883990,0.0379143,-1.01447,0.0460688,-19.4709,-3.5219,3.4845,0,0,3.25608,1
1774299884003,0.0371638,-1.01373,0.0457838,-20.172,-3.65877,3.25008,0,0,3.24726,1
1774299884016,0.0369265,-1.01746,0.0424042,-21.0465,-3.892,2.8661,0,0,3.2343,1
1774299884030,0.0359416,-1.01909,0.0388415,-21.9431,-4.04578,2.64325,0,0,3.24163,1
1774299884043,0.0366332,-1.02642,0.0325731,-23.0716,-4.27229,2.49541,0,0,3.23685,1
1774299884056,0.0354476,-1.02325,0.036391,-23.9698,-4.54519,2.46505,0,0,3.24293,1
1774299884070,0.0374314,-1.02476,0.0372659,-25.3023,-5.00745,2.16278,0,0,3.24856,1
1774299884083,0.0356129,-1.02512,0.0419889,-26.8298,-5.54912,2.10142,0,0,3.25502,1
1774299884096,0.0393726,-1.03956,0.0340241,-28.9708,-6.02015,1.90476,0,0,3.23895,1
1774299884110,0.0465873,-1.05156,0.0344046,-30.5289,-6.31832,1.80262,0,0,3.23698,1
1774299884123,0.0546929,-1.05222,0.0374376,-32.5473,-6.87638,2.20677,0,0,3.24028,1
1774299884136,0.0603728,-1.06016,0.039612,-34.8129,-7.71999,3.08195,0,0,3.2345,1
1774299884150,0.0613841,-1.0739,0.039919,-37.5617,-8.49144,3.76073,0,0,3.24074,3
1774299884163,0.0604292,-1.09059,0.043138,-40.858,-8.97941,3.75446,0,0,3.28271,3
1774299884176,0.0553522,-1.09655,0.036575,-44.6328,-9.41304,3.48135,0,0,3.32164,3
1774299884190,0.0564015,-1.10762,0.0352104,-46.8842,-9.86173,3.15076,0,0,3.29064,3
1774299884203,0.0535612,-1.12292,0.0258764,-49.9852,-10.4377,2.27865,0,0,3.28304,3
1774299884217,0.0483681,-1.12648,0.0289087,-52.619,-10.5373,1.79759,0,0,3.29358,3
1774299884230,0.040797,-1.1368,0.0239182,-56.2358,-10.9889,1.89372,0,0,3.28751,3
1774299884243,0.0290513,-1.14561,0.0181424,-59.7714,-10.6174,2.21825,0,0,3.32869,3
1774299884257,0.017595,-1.15215,0.0169539,-63.977,-9.76965,1.84762,0,0,3.32756,3
1774299884270,0.00818794,-1.15591,0.0121232,-68.4075,-8.01117,1.2764,0,0,3.2988,3
1774299884284,0.00942072,-1.16269,0.00526166,-73.3499,-6.09098,0.696548,0,0,3.29454,3
1774299884297,0.0164932,-1.16207,-0.00730025,-77.6309,-4.38684,0.0785686,0,0,3.27141,3
1774299884310,0.0284027,-1.15476,-0.0105684,-81.176,-3.31137,-0.0397361,0,0,3.28213,3
1774299884324,0.0469021,-1.13519,-0.00456494,-83.3178,-3.34229,0.686984,0,0,3.27176,3
1774299884337,0.0719062,-1.10283,0.0166361,-83.2499,-4.9031,1.73048,0,0,3.28165,2
1774299884350,0.0867415,-1.07099,0.0383728,-80.8102,-7.16679,4.02312,0,0,3.27015,2
1774299884365,0.0915536,-1.04278,0.0618387,-76.2675,-9.82246,7.3681,0,0,4.11142,2
1774299884378,0.0986751,-1.02419,0.0862963,-71.1588,-13.1629,9.83179,0,0,3.30082,2
1774299884391,0.106104,-1.0044,0.108478,-65.6447,-16.9564,11.1189,0,0,3.27426,2
1774299884405,0.109301,-0.980352,0.127746,-59.527,-21.1273,12.3484,0,0,3.29486,2
1774299884418,0.109646,-0.955704,0.145232,-52.3382,-25.5557,14.0421,0,0,3.26989,2
1774299884432,0.105256,-0.933308,0.161153,-44.2376,-29.8355,15.1534,0,0,3.27671,5
1774299884445,0.0975998,-0.916622,0.174552,-35.8691,-33.3636,15.6826,0,0,3.28184,5
1774299884459,0.0876193,-0.900954,0.184674,-27.0819,-35.8468,16.1817,0,0,4.09265,2
1774299884472,0.0797623,-0.889964,0.192922,-17.9839,-37.3746,16.0409,0,0,3.27223,5
1774299884486,0.0742348,-0.884484,0.19923,-8.72871,-38.1081,14.8697,0,0,3.29947,5
1774299884499,0.0689811,-0.883834,0.202561,0.536154,-37.9778,13.2434,0,0,3.32695,5
1774299884513,0.0642774,-0.885316,0.203632,9.72707,-37.0747,11.3248,0,0,3.41038,5
1774299884528,0.0597154,-0.888677,0.202809,18.9334,-35.273,8.81281,0,0,5.14628,5
1774299884542,0.0575523,-0.891463,0.198744,28.7143,-32.8671,5.80631,0,0,3.30912,5
1774299884555,0.0541599,-0.90505,0.194985,38.6904,-29.9758,2.92992,0,0,3.30849,5
1774299884568,0.0483854,-0.924823,0.191241,47.7202,-26.728,-0.126401,0,0,3.26578,5
1774299884582,0.0407068,-0.945877,0.18607,55.895,-23.2142,-4.12285,0,0,3.3647,5
1774299884595,0.0337803,-0.969576,0.17962,63.3287,-19.7861,-8.45991,0,0,3.25624,5
1774299884609,0.0300929,-0.994812,0.172085,69.5468,-16.8415,-12.1187,0,0,3.30108,5
1774299884622,0.0317984,-1.01687,0.162776,74.8196,-14.8422,-15.0177,0,0,3.29514,5
1774299884635,0.0318278,-1.0408,0.153245,79.2632,-14.1321,-17.2411,0,0,3.27217,5
1774299884649,0.0201007,-1.06572,0.143308,82.4448,-13.9586,-18.8072,0,0,3.28132,5
1774299884662,0.00554452,-1.07837,0.127944,85.1264,-13.1709,-20.234,0,0,3.2988,5
1774299884676,-0.00414701,-1.09418,0.112259,88.1355,-11.5967,-20.7972,0,0,3.31327,5
1774299884689,-0.00890905,-1.11444,0.0954127,90.0684,-10.1001,-20.6908,0,0,3.31321,5
1774299884703,-0.0128863,-1.13745,0.0771893,90.566,-8.55945,-21.4399,0,0,3.61921,5
1774299884716,-0.0218892,-1.15408,0.0555882,89.3816,-6.26468,-22.8047,0,0,3.28221,5
1774299884730,-0.0275303,-1.14288,0.0260379,89.2437,-2.74299,-24.039,0,0,3.28019,5
1774299884743,-0.0228883,-1.14342,0.0041326,90.8426,0.965677,-23.9362,0,0,3.2868,5
1774299884757,-0.0162179,-1.15811,-0.0144231,90.7585,3.98203,-23.0247,0,0,3.33268,5
1774299884770,-0.016822,-1.16684,-0.0376551,88.8923,6.86003,-23.4451,0,0,3.33247,5
1774299884784,-0.018243,-1.16577,-0.0623376,86.7069,10.0981,-24.7193,0,0,3.32032,5
1774299884798,-0.0138471,-1.16516,-0.0827055,84.3015,13.1507,-25.0579,0,0,3.89807,5
1774299884811,-0.0108926,-1.16512,-0.101681,81.1721,15.6078,-24.5224,0,0,3.27388,5
1774299884824,-0.0130641,-1.16504,-0.119549,77.2467,18.2408,-24.2653,0,0,3.27076,5
1774299884838,-0.0170198,-1.15806,-0.135792,73.1561,21.5098,-24.3613,0,0,3.29138,5
1774299884851,-0.0138091,-1.15184,-0.144566,69.3806,24.9782,-24.1368,0,0,3.28399,5
1774299884865,-0.00604101,-1.14947,-0.146422,65.0778,28.0213,-23.757,0,0,3.29893,5
1774299884878,-0.0026912,-1.14524,-0.146201,60.2439,30.7425,-24.0079,0,0,3.27621,5
1774299884892,-0.000790466,-1.14138,-0.143106,55.2808,33.6164,-24.6608,0,0,3.99237,5
1774299884906,0.000279761,-1.13394,-0.138567,50.2878,36.4305,-24.7642,0,0,3.31065,5
1774299884919,0.00310758,-1.12991,-0.132742,45.1446,38.8894,-24.375,0,0,3.2768,5
1774299884932,0.00375109,-1.12167,-0.126584,39.9931,41.1975,-24.055,0,0,3.29845,5
1774299884946,0.0105911,-1.10815,-0.1165,35.8945,42.772,-23.6388,0,0,3.28145,5
1774299884959,0.0107792,-1.10331,-0.0959772,32.3661,43.0332,-22.3214,0,0,3.28808,5
1774299884973,-0.00351877,-1.10679,-0.0590446,28.1147,42.5428,-20.9049,0,0,3.27791,5
1774299884987,-0.0170527,-1.1071,-0.0237804,23.656,41.5754,-21.4031,0,0,3.94451,5
1774299885000,-0.0201079,-1.11543,-0.00223016,18.6535,39.1342,-22.1846,0,0,3.27976,5
1774299885014,-0.0183957,-1.11742,0.00968669,13.1827,35.1719,-22.3892,0,0,3.26089,5
1774299885027,-0.0177621,-1.11326,0.0174736,8.86236,31.0251,-22.5009,0,0,3.31756,5
1774299885040,-0.0151061,-1.11082,0.025016,5.20994,27.2377,-22.8972,0,0,3.27028,5
1774299885054,-0.0102922,-1.10657,0.031524,2.27536,23.944,-23.0665,0,0,3.2874,5
1774299885067,-0.00710881,-1.10421,0.0409077,-0.318619,21.3451,-22.8328,0,0,3.26123,5
1774299885081,-0.00105376,-1.10059,0.0499344,-2.97905,19.5432,-22.7039,0,0,3.28119,5
1774299885094,0.0077367,-1.09244,0.055438,-5.41961,18.1862,-22.2632,0,0,3.28775,5
1774299885107,0.0189507,-1.08327,0.059804,-7.382,16.9426,-20.9969,0,0,3.29812,5
1774299885121,0.030315,-1.07362,0.0671608,-8.99282,15.4206,-19.1948,0,0,3.28506,5
1774299885134,0.0379685,-1.06993,0.0714093,-10.6297,13.5575,-17.0768,0,0,3.26247,5
1774299885147,0.0388598,-1.06025,0.0758243,-11.8687,11.8679,-14.878,0,0,3.27969,3
1774299885161,0.0385377,-1.05635,0.0772168,-12.8117,10.33,-13.0762,0,0,3.26008,3
1774299885174,0.0342792,-1.04338,0.0833957,-13.5557,9.02476,-11.4739,0,0,3.28645,3
1774299885188,0.0326627,-1.04364,0.082247,-14.4593,7.83173,-10.3717,0,0,3.28084,3
1774299885202,0.0274119,-1.04116,0.0838925,-14.9794,7.08114,-9.58358,0,0,4.30152,3
1774299885215,0.0224869,-1.0357,0.0869287,-15.5689,6.56919,-9.23356,0,0,3.27395,3
1774299885229,0.0183431,-1.02993,0.0903447,-15.9956,6.34629,-9.18835,0,0,3.27836,3
1774299885242,0.0152988,-1.02858,0.0914866,-16.6416,6.3821,-9.39445,0,0,3.38011,3
1774299885256,0.0159537,-1.0261,0.0965396,-16.8556,6.58161,-9.86045,0,0,3.30599,3
1774299885269,0.0179145,-1.02602,0.0963536,-17.5951,6.73268,-10.5225,0,0,3.32253,3
1774299885282,0.0256192,-1.0292,0.09719,-17.5908,6.59781,-10.9655,0,0,3.26647,3
1774299885296,0.0286308,-1.02771,0.0928542,-18.2496,6.30351,-11.1948,0,0,3.3071,5
1774299885309,0.0355892,-1.02955,0.0951569,-17.8357,5.97048,-11.4652,0,0,3.26471,5
1774299885325,0.0380473,-1.01852,0.102516,-18.2037,5.70452,-11.4498,0,0,5.58678,5
1774299885338,0.0428963,-1.00942,0.105218,-18.4282,5.23553,-11.0705,0,0,3.28784,5
1774299885352,0.0470528,-1.01144,0.105923,-18.5986,4.89048,-10.5651,0,0,3.26439,5
1774299885365,0.0487426,-1.00987,0.103213,-18.9517,4.62772,-10.0611,0,0,3.26426,5
1774299885378,0.0516184,-1.01172,0.100215,-19.2015,4.3493,-9.66763,0,0,3.27078,5
1774299885392,0.0516245,-1.01217,0.0986723,-19.4736,4.13745,-9.34629,0,0,3.29682,5
1774299885405,0.0539686,-1.01231,0.0945493,-19.5644,3.84157,-9.18043,0,0,3.26111,5
1774299885419,0.0541602,-1.00718,0.0950802,-19.5498,3.41671,-8.99989,0,0,3.28541,5
1774299885432,0.0548559,-1.0124,0.0925664,-19.6123,2.83712,-9.04828,0,0,3.275,5
1774299885445,0.0555212,-1.00932,0.0937179,-19.5878,2.3684,-9.11194,0,0,3.2701,5
1774299885459,0.0581006,-1.00925,0.0896087,-19.8096,1.7988,-9.16946,0,0,3.26587,5
1774299885472,0.0615174,-1.0088,0.0860208,-19.7861,1.21962,-9.01694,0,0,3.29721,5
1774299885485,0.0646673,-1.00692,0.0838818,-19.7993,0.719593,-8.77792,0,0,3.28134,5
1774299885499,0.0683201,-1.00328,0.083566,-19.6907,0.2352,-8.38403,0,0,3.30049,5
1774299885512,0.0722403,-1.00137,0.0796338,-19.6854,-0.388158,-7.85509,0,0,3.29647,5
1774299885526,0.0729781,-0.9974,0.0767919,-19.4906,-1.02751,-7.23764,0,0,3.28802,1
1774299885539,0.0751357,-1.00154,0.0705722,-19.3167,-1.58004,-6.80554,0,0,3.27373,1
1774299885552,0.0759604,-0.998012,0.0706035,-18.8382,-2.05619,-6.28464,0,0,3.29306,1
1774299885566,0.0754358,-0.994992,0.0702171,-18.6704,-2.6495,-5.7754,0,0,3.2881,1
1774299885579,0.0744003,-0.996663,0.0679791,-18.5339,-3.10034,-5.39364,0,0,3.29067,1
1774299885593,0.0754067,-0.998624,0.063725,-18.5224,-3.4257,-5.11893,0,0,3.30041,1
1774299885606,0.0773833,-0.998097,0.0616855,-18.4468,-3.73281,-4.63826,0,0,3.29277,1
1774299885620,0.0784835,-0.99928,0.0594576,-18.5738,-4.01199,-4.04282,0,0,3.28002,1
1774299885633,0.0804644,-1.00108,0.0570603,-18.7351,-4.21299,-3.55785,0,0,3.28426,3
1774299885646,0.082017,-1.00073,0.0535399,-18.9457,-4.43055,-3.02644,0,0,3.28929,3
1774299885660,0.0826475,-1.0011,0.0529601,-18.9341,-4.63077,-2.39167,0,0,3.27858,3
1774299885673,0.0812326,-1.00008,0.0485087,-19.2714,-4.76538,-1.94065,0,0,3.29401,3
1774299885687,0.0826448,-1.00454,0.0461097,-19.2382,-4.80766,-1.54877,0,0,3.2836,3
1774299885700,0.0836857,-1.00925,0.0357545,-19.9493,-4.88781,-1.29961,0,0,3.31762,3
1774299885713,0.0860583,-1.01518,0.0316284,-19.9102,-4.89882,-0.896152,0,0,3.28789,3
1774299885727,0.0829034,-1.00049,0.0375909,-20.3413,-5.05264,-0.675466,0,0,3.29854,3
1774299885740,0.0840717,-1.00693,0.0313132,-21.0235,-5.3931,-0.709941,0,0,3.28919,3
1774299885754,0.0848687,-1.01431,0.0253741,-21.4354,-5.86731,-0.748049,0,0,3.27758,3
1774299885767,0.0878836,-1.02102,0.015755,-22.0687,-6.51532,-0.895776,0,0,3.2991,3
1774299885781,0.0878839,-1.01778,0.0161016,-22.4275,-7.26486,-0.802283,0,0,3.30608,3
1774299885794,0.0918026,-1.02879,0.00352475,-23.3485,-8.27508,-0.957672,0,0,3.31071,3
1774299885807,0.0909696,-1.02839,0.00978741,-23.5482,-9.15499,-1.03755,0,0,3.27267,3
1774299885821,0.0949669,-1.03433,-0.000559445,-25.1861,-10.266,-1.58395,0,0,3.2969,3
1774299885834,0.0921056,-1.03216,0.0111776,-25.8111,-11.0813,-1.77513,0,0,3.28121,3
1774299885848,0.0891773,-1.03159,0.0133366,-28.056,-12.0149,-2.49211,0,0,3.29106,3
1774299885861,0.0923989,-1.04757,0.0105539,-30.234,-12.4037,-3.35856,0,0,3.28093,3
1774299885875,0.0965045,-1.05969,0.00904604,-32.5917,-12.6902,-4.04753,0,0,3.29655,3
1774299885888,0.0990319,-1.06766,0.00851164,-35.1174,-12.9543,-4.56939,0,0,3.28488,3
1774299885901,0.101737,-1.0826,0.00520326,-37.8589,-13.361,-5.48246,0,0,3.31836,3
1774299885915,0.100427,-1.09609,0.00370516,-40.7763,-13.6131,-6.56269,0,0,3.30014,3
1774299885928,0.100904,-1.10982,0.00093796,-43.99,-13.7042,-7.52837,0,0,3.28715,3
1774299885942,0.0999501,-1.11965,0.00228494,-47.3822,-14.1883,-8.86722,0,0,3.29365,3
1774299885955,0.0969457,-1.13157,-0.000324058,-50.8715,-14.6946,-10.2427,0,0,3.28908,3
1774299885969,0.0912967,-1.13827,-0.00334212,-54.5864,-14.8385,-11.0367,0,0,3.28652,3
1774299885982,0.087667,-1.14032,-0.007755,-58.3583,-14.499,-11.1755,0,0,3.28384,3
1774299885996,0.0830217,-1.13846,-0.0119642,-62.0759,-14.1743,-11.2547,0,0,3.58747,3
1774299886009,0.0791881,-1.13291,-0.0182849,-65.2582,-13.6421,-11.4391,0,0,3.28249,3
1774299886022,0.0757357,-1.12727,-0.0265499,-68.2684,-12.6624,-11.6388,0,0,3.27734,3
1774299886036,0.0800575,-1.1179,-0.0380943,-70.852,-11.6173,-11.6702,0,0,3.28436,3
1774299886049,0.0918564,-1.10629,-0.0535327,-72.8325,-10.8393,-11.4751,0,0,3.27371,3
1774299886063,0.104356,-1.08437,-0.0657976,-73.2547,-11.6255,-11.1919,0,0,3.27676,3
1774299886076,0.115701,-1.06187,-0.0763943,-71.4433,-11.7818,-10.1034,0,0,3.30734,3
1774299886089,0.134163,-1.02942,-0.0601878,-66.7769,-12.3507,-8.33049,0,0,3.28988,3
1774299886103,0.150856,-1.02612,-0.043003,-61.4298,-15.0204,-5.18705,0,0,3.3188,3
1774299886116,0.164459,-1.01899,-0.0288333,-57.3696,-18.7865,-1.01844,0,0,3.28516,3
1774299886129,0.178386,-1.00714,-0.0125392,-52.4945,-24.2133,2.73394,0,0,3.2963,3
1774299886143,0.183236,-0.995471,0.00595698,-47.4634,-30.3711,6.30281,0,0,3.29395,3
1774299886156,0.184384,-0.980625,0.0232066,-42.1605,-35.8032,9.93012,0,0,3.2934,3
1774299886170,0.18609,-0.966802,0.0401716,-36.5632,-41.146,12.802,0,0,3.2926,3
1774299886183,0.179158,-0.95195,0.0542486,-31.0414,-45.6603,15.3133,0,0,3.29634,3
1774299886196,0.16717,-0.93825,0.0669733,-25.1875,-48.6523,17.2847,0,0,3.31317,3
1774299886210,0.154531,-0.926078,0.0798889,-19.4183,-50.0677,18.1161,0,0,3.30529,3
1774299886223,0.144367,-0.914267,0.0907876,-13.2654,-50.0408,17.5765,0,0,3.31716,3
1774299886237,0.133633,-0.908022,0.101284,-6.94243,-48.7017,16.2801,0,0,3.30708,4
1774299886250,0.126337,-0.900738,0.108984,-0.671019,-46.5967,14.3423,0,0,3.28954,5
1774299886264,0.12015,-0.896121,0.115589,5.95941,-43.9625,11.9047,0,0,3.29699,5
1774299886277,0.115793,-0.895806,0.12183,12.4671,-41.0088,9.43641,0,0,3.29878,4
1774299886290,0.113227,-0.896498,0.126463,18.8808,-38.0504,6.99225,0,0,3.2931,4
1774299886304,0.111094,-0.899743,0.13035,25.1532,-35.2592,4.57771,0,0,3.30612,5
1774299886317,0.110218,-0.904992,0.134077,31.2728,-32.7501,2.4382,0,0,3.30586,5
1774299886331,0.110822,-0.911005,0.13588,37.3848,-30.7396,0.540734,0,0,3.2878,5
1774299886344,0.111399,-0.92031,0.136728,43.5672,-29.1014,-1.06318,0,0,3.28854,5
1774299886357,0.110296,-0.931215,0.136578,49.6949,-27.7029,-2.15622,0,0,3.29556,5
1774299886371,0.106722,-0.941527,0.134363,56.1451,-26.2915,-2.99227,0,0,3.28506,5
1774299886384,0.103154,-0.957259,0.133591,62.6154,-24.8356,-4.00365,0,0,3.31167,5
1774299886398,0.100779,-0.974588,0.133471,68.2946,-23.2361,-5.22635,0,0,3.36168,5
1774299886416,0.100503,-0.99416,0.130506,73.004,-21.6198,-6.87116,0,0,3.32814,5
1774299886430,0.0979765,-1.01514,0.125044,76.8805,-19.9104,-8.72087,0,0,3.28108,5
1774299886443,0.0958591,-1.04052,0.118765,79.4906,-17.9573,-10.7653,0,0,3.30516,5
1774299886456,0.0917737,-1.05531,0.105339,81.1441,-15.5743,-13.2512,0,0,3.29178,5
1774299886471,0.0908672,-1.0559,0.0890835,84.1192,-12.5649,-15.6418,0,0,3.92992,5
1774299886484,0.0945487,-1.06523,0.0770733,88.2595,-10,-17.2937,0,0,3.32695,5
1774299886497,0.0980585,-1.07718,0.0631859,91.9252,-7.99269,-18.498,0,0,3.28577,5
1774299886511,0.100251,-1.09097,0.0480695,95.2307,-6.49231,-19.5106,0,0,3.31464,5
1774299886524,0.0999454,-1.10778,0.0309129,97.5634,-5.49913,-20.0356,0,0,3.27464,5
1774299886538,0.102781,-1.1247,0.0116238,98.2824,-5.03952,-20.4536,0,0,3.2898,5
1774299886551,0.107159,-1.13282,-0.0114448,97.8941,-5.3623,-21.0255,0,0,3.2821,5
1774299886565,0.110406,-1.13669,-0.0366329,97.1335,-6.59442,-21.597,0,0,3.28995,5
1774299886578,0.107627,-1.13971,-0.0619366,95.9344,-8.23871,-21.4941,0,0,3.27736,5
1774299886592,0.0991194,-1.14246,-0.0889204,94.1187,-9.71456,-20.5424,0,0,3.66544,5
1774299886605,0.0893075,-1.15049,-0.113678,91.4376,-11.1543,-19.4021,0,0,3.3879,5
1774299886619,0.0776077,-1.15897,-0.13684,87.2639,-12.2504,-18.3648,0,0,3.27012,5
1774299886632,0.067231,-1.16485,-0.158103,81.9272,-12.8071,-17.1278,0,0,3.28806,5
1774299886645,0.0573188,-1.16778,-0.174966,76.0853,-12.5644,-15.2705,0,0,3.27975,5
1774299886659,0.0504773,-1.17184,-0.184899,69.6508,-11.7415,-13.0026,0,0,3.28914,5
1774299886672,0.0430915,-1.1747,-0.188729,62.5762,-10.4997,-10.7673,0,0,3.27888,5
1774299886686,0.0285015,-1.17356,-0.188387,55.2215,-8.44161,-8.62103,0,0,3.78163,5
1774299886699,0.0222476,-1.15545,-0.175504,49.05,-5.70428,-7.20272,0,0,3.27795,5
1774299886713,0.0131389,-1.15055,-0.128559,44.4588,-3.16588,-6.50839,0,0,3.29416,5
1774299886726,0.0208175,-1.15536,-0.0778267,37.9503,-1.13853,-7.54435,0,0,3.29208,5
1774299886739,0.032666,-1.16228,-0.0496421,30.4333,-0.799775,-8.63609,0,0,3.27273,1
1774299886753,0.03743,-1.16314,-0.0388869,22.9281,-1.80526,-7.89305,0,0,3.28679,2
1774299886766,0.0412704,-1.15188,-0.032371,17.1885,-2.44861,-7.14672,0,0,3.27952,2
1774299886780,0.0423056,-1.14919,-0.0216771,12.6528,-2.46455,-7.1235,0,0,3.32264,2
1774299886793,0.0470965,-1.14477,-0.0127641,8.57199,-1.82533,-6.87979,0,0,3.27954,2
1774299886807,0.0536637,-1.13077,-0.00190272,5.59099,-1.12948,-6.27551,0,0,3.40572,2
1774299886820,0.0601146,-1.12399,0.0118362,3.00371,-0.745411,-5.74709,0,0,3.29788,5
1774299886834,0.0634754,-1.11508,0.0245366,0.379146,-0.36362,-5.36178,0,0,3.27558,5
1774299886847,0.0636463,-1.1069,0.0305744,-2.10976,0.209994,-5.04946,0,0,3.28675,5
1774299886860,0.0659451,-1.09307,0.0377254,-4.048,0.927844,-4.97689,0,0,3.27728,5
1774299886874,0.0666059,-1.09052,0.0411578,-5.73664,1.29671,-5.37812,0,0,3.28719,5
1774299886887,0.0728751,-1.07699,0.0493727,-7.00471,1.54982,-5.73671,0,0,3.27751,5
1774299886901,0.0778666,-1.07403,0.0483133,-8.0822,1.2428,-5.62345,0,0,3.6795,5
1774299886915,0.0792125,-1.0585,0.0593437,-8.22103,1.108,-5.26905,0,0,3.31036,5
1774299886928,0.0808306,-1.05419,0.0676175,-8.86461,1.11565,-5.38027,0,0,3.27317,5
1774299886942,0.0888907,-1.05356,0.0707249,-9.43655,1.19094,-5.18424,0,0,3.2944,5
1774299886955,0.0962354,-1.04903,0.0772518,-9.56322,1.05692,-4.56417,0,0,3.27943,5
1774299886968,0.0994579,-1.04693,0.0810696,-10.0891,0.870888,-3.95447,0,0,3.28951,5
1774299886982,0.102657,-1.0447,0.0847311,-10.4691,0.843875,-3.28306,0,0,3.27691,5
1774299886996,0.105257,-1.04025,0.0899622,-10.8889,0.858627,-2.58466,0,0,3.92927,5
1774299887009,0.108138,-1.03674,0.0940676,-11.1829,0.798904,-1.91943,0,0,3.44296,5
1774299887023,0.107338,-1.03388,0.0967549,-11.5422,0.638053,-1.24142,0,0,3.27806,5
1774299887036,0.109253,-1.03285,0.100659,-11.6368,0.617249,-0.752163,0,0,3.28667,5
1774299887050,0.110913,-1.03035,0.102364,-12.1958,0.474723,-0.127211,0,0,3.27191,5
1774299887063,0.112448,-1.03121,0.102778,-12.3189,0.180907,0.661793,0,0,3.28602,5
1774299887077,0.112367,-1.02976,0.106067,-12.7163,0.0932575,1.29778,0,0,3.28004,5
1774299887090,0.113528,-1.02757,0.107311,-13.1882,0.0953056,1.80561,0,0,3.29934,5
1774299887103,0.115567,-1.02601,0.109302,-13.5262,0.0972389,2.63435,0,0,3.27991,5
1774299887117,0.116545,-1.02669,0.110714,-14.085,0.210392,3.55533,0,0,3.77363,5
1774299887131,0.116093,-1.0237,0.108777,-14.8108,0.447367,4.32318,0,0,3.29088,5
1774299887144,0.115084,-1.01776,0.107297,-15.0778,0.66848,5.13702,0,0,3.27906,5
1774299887158,0.113275,-1.01413,0.10473,-15.2499,0.699493,5.70096,0,0,3.28317,5
1774299887171,0.113243,-1.01931,0.102135,-15.2419,0.878204,6.28722,0,0,3.27938,5
1774299887184,0.111612,-1.01511,0.100071,-15.376,0.955687,6.94593,0,0,3.28895,5
1774299887198,0.109912,-1.00997,0.100852,-15.2582,0.927771,7.32662,0,0,3.27917,5
1774299887212,0.107967,-1.00773,0.101107,-15.2869,0.835052,7.59776,0,0,4.1128,5
1774299887225,0.105306,-1.00769,0.101351,-15.2225,0.708998,7.80101,0,0,3.27712,5
1774299887239,0.102996,-1.00686,0.10261,-15.3491,0.639255,7.80533,0,0,3.27043,5
1774299887252,0.101898,-1.00777,0.101464,-15.4923,0.538314,7.75202,0,0,3.29215,5
1774299887266,0.101691,-1.00974,0.0984254,-15.6954,0.391223,7.76165,0,0,3.27721,5
1774299887279,0.101461,-1.01346,0.095509,-15.8461,0.225408,7.61873,0,0,3.28373,5
1774299887292,0.0997145,-1.00879,0.0935209,-16.1151,0.123274,7.51594,0,0,3.27684,5
1774299887306,0.0986956,-1.01101,0.0945453,-16.2067,0.00845587,7.3063,0,0,3.28499,5
1774299887319,0.0958421,-1.01061,0.0899194,-16.8057,-0.0669511,7.12213,0,0,3.29479,5
1774299887333,0.0975443,-1.01915,0.0840545,-16.9258,-0.209635,6.70551,0,0,3.76958,5
1774299887347,0.0940899,-1.00352,0.0903188,-16.8756,-0.248402,6.57173,0,0,3.28219,5
1774299887360,0.0910321,-1.00318,0.0910454,-17.1142,-0.483245,6.07037,0,0,3.27851,5
1774299887373,0.0899232,-1.00419,0.0872025,-17.1155,-0.635549,5.63781,0,0,3.28447,5
1774299887387,0.0885424,-1.00844,0.0794171,-17.2071,-0.872226,5.20639,0,0,3.27682,1
1774299887400,0.0875529,-1.00168,0.0812184,-16.7852,-1.11704,4.86168,0,0,3.28323,1
1774299887414,0.0853896,-1.00942,0.0729367,-16.9172,-1.37423,4.41257,0,0,3.30455,1
1774299887428,0.0866628,-1.00084,0.0793668,-16.262,-1.57247,4.1248,0,0,3.88809,1
1774299887441,0.0832572,-1.00352,0.0693937,-16.7217,-1.90389,3.91356,0,0,3.27247,1
1774299887454,0.0837481,-0.996738,0.0762991,-15.8908,-1.96109,3.83277,0,0,3.27288,1
1774299887468,0.0802457,-0.988926,0.0798383,-16.2699,-1.9864,3.76807,0,0,3.28519,1
1774299887481,0.0828115,-0.997205,0.0737416,-16.3532,-1.96661,3.82476,0,0,3.27967,1
1774299887495,0.0843896,-1.00132,0.0700255,-16.5124,-2.04042,4.02941,0,0,3.28364,1
1774299887508,0.0821191,-0.998497,0.0690665,-16.7479,-2.15076,4.26926,0,0,3.27506,1
1774299887522,0.0797236,-1.00381,0.0670924,-17.3619,-2.37181,4.14069,0,0,3.81758,1
1774299887535,0.0789704,-1.01017,0.0662189,-18.0597,-2.36809,3.92256,0,0,3.27015,1
1774299887549,0.0825956,-1.01435,0.065106,-18.8433,-2.39582,3.68455,0,0,3.27178,1
1774299887562,0.084749,-1.01638,0.0671061,-19.589,-2.51792,3.92747,0,0,3.28403,1
1774299887575,0.0874061,-1.02365,0.0657836,-20.6675,-2.8387,4.3807,0,0,3.27945,1
1774299887589,0.0875875,-1.02946,0.0688537,-21.7387,-3.03315,4.69077,0,0,3.29058,1
1774299887602,0.0877395,-1.03612,0.0707539,-23.4395,-3.34173,4.65416,0,0,3.27975,1
1774299887616,0.0900096,-1.04359,0.0715354,-25.4201,-3.93187,4.8003,0,0,3.47939,1
1774299887629,0.0944333,-1.05749,0.0706384,-27.8325,-4.95563,5.31719,0,0,3.27651,1
1774299887643,0.0969018,-1.07312,0.0707096,-30.882,-6.10009,6.36473,0,0,3.74432,1
1774299887657,0.0955575,-1.08988,0.0663147,-34.7303,-7.10457,7.03279,0,0,3.27941,1
1774299887670,0.085282,-1.09375,0.0661479,-39.3026,-7.22459,7.50538,0,0,3.26577,1
1774299887684,0.0869335,-1.09682,0.061077,-42.4405,-7.66929,7.04243,0,0,3.28715,1
1774299887697,0.0857689,-1.10987,0.0580216,-44.8098,-8.20895,6.25732,0,0,3.27641,1
1774299887710,0.0822102,-1.11933,0.0555375,-47.9651,-8.4764,6.09217,0,0,3.28449,1
1774299887724,0.0756895,-1.12492,0.0513577,-51.4576,-8.55844,6.29766,0,0,3.29454,1
1774299887738,0.0685037,-1.13182,0.0471792,-54.9859,-7.89297,6.32636,0,0,3.90744,1
1774299887751,0.0648565,-1.13929,0.0467175,-59.4334,-7.12952,5.98648,0,0,3.27684,1
1774299887765,0.0690242,-1.14226,0.0408093,-63.8836,-6.92401,5.39334,0,0,3.27706,1
1774299887778,0.0668918,-1.14122,0.0336755,-67.6612,-6.75528,5.63504,0,0,3.28317,1
1774299887791,0.0740454,-1.13219,0.0347332,-70.8312,-5.74436,6.04688,0,0,3.27725,1
1774299887805,0.0891288,-1.11529,0.039898,-72.4104,-5.22004,6.04553,0,0,3.28688,1
1774299887818,0.0986625,-1.09311,0.0564961,-71.9224,-5.48602,7.17425,0,0,3.31419,1
1774299887832,0.102847,-1.07332,0.0745036,-70.4628,-5.84241,9.35379,0,0,3.83617,3
1774299887846,0.0998542,-1.0523,0.0871219,-67.8887,-6.24476,10.9649,0,0,3.27756,2
1774299887859,0.102032,-1.03155,0.103502,-64.1568,-6.7076,12.3306,0,0,3.27554,3
1774299887872,0.105161,-1.01067,0.118301,-59.8795,-7.50073,13.872,0,0,3.30236,2
1774299887886,0.110161,-0.990037,0.133306,-54.7056,-8.70411,15.4446,0,0,3.28178,2
1774299887899,0.111504,-0.969952,0.146973,-49.0362,-9.92819,16.9997,0,0,3.28902,2
1774299887913,0.112991,-0.950681,0.160105,-42.8469,-11.2425,18.1939,0,0,3.28125,2
1774299887926,0.112844,-0.933416,0.172332,-36.118,-12.6183,18.854,0,0,3.32114,2
1774299887940,0.112916,-0.920494,0.181815,-28.8896,-13.95,19.2274,0,0,3.27262,2
1774299887953,0.113562,-0.912355,0.188833,-21.3605,-15.2579,19.5564,0,0,3.26069,4
1774299887966,0.113208,-0.908832,0.193376,-13.7717,-16.5104,19.7739,0,0,3.26552,4
1774299887980,0.111204,-0.908217,0.195212,-6.32635,-17.4487,19.5233,0,0,3.25825,4
1774299887993,0.109448,-0.909092,0.195195,1.04263,-18.0795,18.5498,0,0,3.26954,4
1774299888006,0.106861,-0.912971,0.19378,8.19138,-18.3178,16.9239,0,0,3.25565,4
1774299888020,0.102348,-0.920429,0.191893,14.8544,-17.933,14.8374,0,0,3.37033,4
1774299888033,0.0960032,-0.927891,0.188765,20.9543,-16.8766,12.1237,0,0,3.2974,5
1774299888047,0.089616,-0.933351,0.184706,26.8663,-15.2607,8.74262,0,0,3.28432,5
1774299888060,0.0842768,-0.941625,0.18013,32.6406,-13.2212,5.48486,0,0,3.26988,5
1774299888073,0.0812532,-0.949485,0.174847,38.2704,-11.21,2.55584,0,0,3.26186,5
1774299888087,0.0772727,-0.958207,0.169432,43.7125,-9.13349,-0.151073,0,0,3.27038,5
1774299888100,0.0736051,-0.967305,0.16388,48.7877,-6.99535,-2.89156,0,0,3.27243,5
1774299888113,0.0713898,-0.977213,0.158827,53.507,-4.8748,-5.59821,0,0,3.28436,5
1774299888127,0.0695383,-0.99005,0.153942,57.6393,-2.91345,-8.08111,0,0,3.30319,5
1774299888140,0.068088,-1.0036,0.147989,60.9942,-1.07839,-10.5296,0,0,3.31112,5
1774299888154,0.067502,-1.00853,0.138367,64.3139,0.815165,-12.986,0,0,3.28488,5
1774299888167,0.0695894,-1.01905,0.130085,68.2279,2.63162,-15.0335,0,0,3.26895,5
1774299888180,0.0728882,-1.03742,0.12178,71.2963,4.12867,-16.8865,0,0,3.28177,5
1774299888194,0.0738112,-1.05744,0.110272,73.0674,5.37047,-19.4029,0,0,3.27471,5
1774299888207,0.0713093,-1.07387,0.0923493,73.9628,6.89288,-22.4778,0,0,3.27854,5
1774299888220,0.0715967,-1.08659,0.0735872,74.465,8.52557,-24.9893,0,0,3.2788,5
1774299888234,0.0703767,-1.09973,0.0531045,74.319,9.70314,-26.3862,0,0,3.34864,5
1774299888247,0.0655373,-1.09961,0.025937,74.3367,10.8639,-27.1229,0,0,3.27471,5
1774299888261,0.0616782,-1.09622,-0.00144108,75.6524,12.5008,-26.9032,0,0,3.27154,5
1774299888274,0.0676398,-1.10239,-0.024942,77.1594,13.3205,-26.009,0,0,3.28075,5
1774299888287,0.075017,-1.11442,-0.0498708,77.2755,12.8422,-25.308,0,0,3.27001,5
1774299888301,0.0755693,-1.12184,-0.0785567,76.1798,11.9643,-24.788,0,0,3.28308,5
1774299888314,0.0715064,-1.12738,-0.108006,74.519,11.1442,-24.1221,0,0,3.27038,5
1774299888328,0.0634999,-1.13606,-0.135943,71.8013,10.6634,-23.2075,0,0,3.65464,5
1774299888341,0.0520746,-1.14397,-0.165072,67.7327,10.7906,-22.1596,0,0,3.27377,5
1774299888354,0.0393873,-1.1529,-0.193919,62.5949,11.7709,-21.1127,0,0,3.2768,5
1774299888368,0.02844,-1.1617,-0.22111,56.1739,13.4764,-20.1974,0,0,3.27912,5
1774299888381,0.0219005,-1.17077,-0.246012,48.7188,15.657,-19.5475,0,0,3.27062,5
1774299888395,0.0324311,-1.15174,-0.250756,41.9945,17.5427,-19.092,0,0,3.27508,5
1774299888408,0.0404725,-1.14559,-0.196602,38.2687,18.3613,-17.2623,0,0,3.27956,5
1774299888421,0.0480341,-1.15309,-0.122875,33.4057,18.1214,-16.3891,0,0,3.28971,5
1774299888435,0.0441291,-1.17733,-0.0956032,24.2138,18.3077,-17.3178,0,0,3.30108,5
1774299888448,0.0485092,-1.16615,-0.0951911,16.2983,17.8618,-17.2692,0,0,3.28043,5
1774299888461,0.0576946,-1.15285,-0.0937722,11.5411,16.8659,-14.7813,0,0,3.28428,5
1774299888475,0.0579475,-1.14841,-0.0794215,8.14182,16.1087,-12.1893,0,0,3.27615,5
1774299888488,0.0486121,-1.14328,-0.0701826,4.36839,16.0696,-11.703,0,0,3.28073,5
1774299888502,0.0495505,-1.13502,-0.0638676,1.83856,16.5954,-12.5058,0,0,3.27151,5
1774299888515,0.058039,-1.1246,-0.0562913,-0.183703,15.7793,-12.1739,0,0,3.28828,5
1774299888529,0.0630708,-1.11982,-0.0489822,-1.38645,14.3311,-11.2611,0,0,3.6137,5
1774299888542,0.0605474,-1.10723,-0.040829,-2.90496,13.3855,-10.957,0,0,3.28984,5
1774299888555,0.0633661,-1.09046,-0.034399,-3.70201,12.7833,-10.9097,0,0,3.28714,5
1774299888569,0.0708447,-1.08557,-0.0270437,-4.12636,11.9296,-10.2027,0,0,3.27601,5
1774299888582,0.0744943,-1.07871,-0.0201275,-4.73543,11.0909,-9.14485,0,0,3.27325,5
1774299888595,0.0765536,-1.07089,-0.0149765,-4.85603,10.524,-8.55781,0,0,3.27236,5
1774299888609,0.0799001,-1.06669,-0.00470169,-4.75706,10.1217,-8.04524,0,0,3.28212,5
1774299888622,0.0857802,-1.06609,0.00278557,-5.1582,9.33598,-7.31821,0,0,3.27273,5
1774299888636,0.0876662,-1.0579,0.010191,-5.33301,8.36056,-6.46155,0,0,3.34021,5
1774299888649,0.0890426,-1.05641,0.0161728,-5.30577,7.35851,-6.05286,0,0,3.27995,5
1774299888662,0.0894087,-1.05202,0.0237508,-5.34557,6.50215,-5.81439,0,0,3.27058,5
1774299888676,0.0903566,-1.04969,0.0295987,-5.51673,5.73108,-5.56832,0,0,3.28223,5
1774299888689,0.0924268,-1.04968,0.0355966,-5.75236,4.84269,-5.27696,0,0,3.27501,5
1774299888702,0.0933815,-1.04818,0.040809,-6.10666,4.0401,-4.98053,0,0,3.28086,5
1774299888716,0.0948711,-1.04472,0.04779,-6.34688,3.34034,-4.69431,0,0,3.27515,5
1774299888729,0.0967759,-1.0439,0.0514869,-6.91747,2.6901,-4.3445,0,0,3.30927,5
1774299888743,0.0983199,-1.04148,0.0540505,-7.3794,2.16197,-3.78909,0,0,3.29277,1
1774299888756,0.100138,-1.04038,0.0574309,-7.73963,1.73455,-3.21217,0,0,3.28052,1
1774299888769,0.0997518,-1.03121,0.0626174,-8.24794,1.41631,-2.56526,0,0,3.31642,1
1774299888783,0.101721,-1.03351,0.0637547,-8.67849,1.07396,-1.91483,0,0,3.27523,1
1774299888796,0.103764,-1.03488,0.063892,-9.18594,0.847154,-1.11247,0,0,3.28547,1
1774299888810,0.103401,-1.03346,0.0635749,-9.578,0.573125,-0.263494,0,0,3.27228,1
1774299888823,0.10158,-1.02954,0.0642112,-9.9682,0.403957,0.363164,0,0,3.2954,1
1774299888836,0.100704,-1.0254,0.0641577,-10.2813,0.195037,0.958954,0,0,3.29642,3
1774299888850,0.0990116,-1.02321,0.0657294,-10.4205,-0.0171505,1.45795,0,0,3.26004,3
1774299888863,0.0966247,-1.02325,0.0670296,-10.6774,-0.217008,1.59027,0,0,3.27895,3
1774299888876,0.0959011,-1.02509,0.066319,-11.0243,-0.474165,1.6565,0,0,3.26495,3
1774299888890,0.0961487,-1.02762,0.0645398,-11.4156,-0.725461,1.68989,0,0,3.27875,3
1774299888903,0.0951363,-1.02458,0.0663724,-11.9935,-0.803375,1.66832,0,0,3.26602,1
1774299888916,0.097211,-1.02667,0.0681463,-12.5766,-0.905608,1.54862,0,0,3.27499,1
1774299888930,0.0971024,-1.0242,0.0661056,-13.5865,-0.998253,1.69255,0,0,3.26597,1
1774299888943,0.0998812,-1.03002,0.0616131,-14.1667,-1.08013,1.67297,0,0,3.31936,1
1774299888957,0.0963246,-1.0151,0.0685065,-14.6374,-1.02126,1.8309,0,0,3.31125,1
1774299888970,0.0939912,-1.01517,0.0698453,-15.2537,-1.19562,1.77787,0,0,3.27486,1
1774299888983,0.0935643,-1.01778,0.0681361,-15.6921,-1.25958,1.72182,0,0,3.28932,1
1774299888997,0.092857,-1.02232,0.0614194,-16.1461,-1.33537,1.57043,0,0,3.2733,1
1774299889010,0.0919352,-1.01664,0.0643067,-16.1949,-1.36623,1.58254,0,0,3.28662,1
1774299889023,0.0930502,-1.02359,0.0568713,-16.6717,-1.49084,1.38373,0,0,3.27304,1
1774299889037,0.0926537,-1.01263,0.0624987,-16.4049,-1.53824,1.4898,0,0,3.31038,1
1774299889050,0.0926056,-1.01702,0.0540853,-17.1191,-1.7427,1.33773,0,0,3.26571,1
1774299889064,0.0927731,-1.0054,0.0628133,-16.6594,-1.76569,1.4421,0,0,3.27245,1
1774299889077,0.0931681,-1.00638,0.060803,-17.4813,-2.12738,1.30683,0,0,3.27923,1
1774299889090,0.0944535,-1.01475,0.0522076,-17.5318,-2.50218,1.37868,0,0,3.25764,1
1774299889104,0.0919563,-1.01302,0.0505757,-17.6917,-2.93045,1.30135,0,0,3.27997,1
1774299889117,0.089451,-1.0124,0.0465702,-18.0528,-3.2555,1.08619,0,0,3.26265,1
1774299889130,0.0889023,-1.01682,0.0407967,-18.4442,-3.56188,0.9255,0,0,3.28364,1
1774299889144,0.0890182,-1.01539,0.0414362,-18.6946,-3.77528,0.830768,0,0,3.30749,1
1774299889157,0.0901754,-1.01467,0.0403608,-19.2303,-4.01482,0.654428,0,0,3.29958,1
1774299889171,0.0912499,-1.01211,0.0418521,-19.6704,-4.30602,0.627996,0,0,3.28321,1
1774299889184,0.0925657,-1.01531,0.0378865,-20.4429,-4.70034,0.770895,0,0,3.30408,1
1774299889197,0.0923079,-1.01639,0.0394967,-21.1306,-5.00189,1.14856,0,0,3.29184,1
1774299889211,0.0966417,-1.0205,0.0393283,-22.0892,-5.1084,1.26569,0,0,3.27349,1
1774299889224,0.102964,-1.02588,0.038644,-23.2588,-5.13315,1.51583,0,0,3.30173,1
1774299889238,0.108658,-1.03301,0.038011,-24.5237,-5.38987,2.2936,0,0,3.72146,1
1774299889251,0.110867,-1.03981,0.0420074,-25.8118,-5.69685,3.19131,0,0,3.27027,1
1774299889265,0.111902,-1.05022,0.0387503,-28.0708,-6.24738,3.50215,0,0,3.28593,1
1774299889278,0.109431,-1.05646,0.03807,-30.3482,-6.88177,3.53093,0,0,3.27506,3
1774299889291,0.109109,-1.07044,0.0346647,-33.0288,-7.56451,3.16074,0,0,3.29349,3
1774299889305,0.104134,-1.08099,0.0364159,-36.1521,-8.09035,2.12793,0,0,3.27004,3
1774299889318,0.099089,-1.07882,0.0331684,-39.2757,-8.38544,0.974927,0,0,3.29456,3
1774299889332,0.0970725,-1.08433,0.0290807,-41.0013,-8.96542,-0.206318,0,0,3.27262,3
1774299889345,0.0952723,-1.09701,0.0261433,-43.6191,-9.57324,-1.29476,0,0,3.29501,3
1774299889358,0.0946505,-1.10367,0.0211243,-46.5997,-10.1213,-2.18469,0,0,3.27464,3
1774299889372,0.093757,-1.11012,0.0183641,-49.5205,-10.5315,-2.56313,0,0,3.26745,3
1774299889385,0.0918669,-1.11707,0.0154683,-52.922,-10.4191,-2.41464,0,0,3.28415,3
1774299889398,0.0933693,-1.12105,0.0112257,-56.7261,-10.1819,-2.52626,0,0,3.27267,3
1774299889412,0.0929482,-1.12695,0.0052362,-60.7968,-10.0852,-2.63248,0,0,3.28371,3
1774299889425,0.0911788,-1.12958,-0.000683574,-64.709,-9.68007,-2.27158,0,0,3.27299,3
1774299889439,0.0897965,-1.13269,-0.00824495,-68.7344,-8.91615,-2.01014,0,0,3.29088,3
1774299889452,0.0912293,-1.12832,-0.0141517,-72.2681,-7.95572,-2.09735,0,0,3.28338,3
1774299889465,0.104429,-1.1236,-0.0208251,-75.2487,-7.88541,-2.55947,0,0,3.26645,3
1774299889479,0.11844,-1.1036,-0.0193699,-76.9042,-8.72124,-2.62015,0,0,3.29506,3
1774299889492,0.133707,-1.07529,-0.00845448,-76.2215,-9.9131,-2.04756,0,0,3.28397,3
1774299889505,0.139636,-1.04814,0.00832564,-72.9767,-11.4153,-0.64515,0,0,3.32234,3
1774299889519,0.137982,-1.03529,0.0236886,-69.0087,-12.9399,1.75249,0,0,3.30277,3
1774299889532,0.137329,-1.01656,0.0406539,-64.6793,-14.6188,3.55062,0,0,3.29786,3
1774299889546,0.134633,-0.996749,0.0564928,-59.6708,-16.2622,5.00683,0,0,3.28969,3
1774299889559,0.128489,-0.976989,0.0713295,-53.9486,-17.5718,6.96069,0,0,3.27006,3
1774299889572,0.124578,-0.957806,0.0853785,-47.5145,-18.5931,9.06315,0,0,3.27567,3
1774299889586,0.123475,-0.940827,0.0974785,-40.4416,-19.5344,10.6773,0,0,3.31775,3
1774299889599,0.122314,-0.929621,0.108345,-33.0601,-20.2383,12.3041,0,0,3.29714,3
1774299889613,0.121801,-0.918851,0.115981,-25.4119,-20.6677,13.9488,0,0,3.27564,3
1774299889626,0.12334,-0.914157,0.123177,-17.4699,-20.9796,15.2559,0,0,3.27512,3
1774299889639,0.122825,-0.912199,0.128445,-9.88351,-21.021,15.9267,0,0,3.28262,3
1774299889653,0.12133,-0.909323,0.131572,-2.15272,-20.5125,15.9269,0,0,3.30077,4
1774299889666,0.120625,-0.912392,0.134296,5.466,-19.6813,15.3693,0,0,3.28014,4
1774299889679,0.117955,-0.917397,0.134605,12.5542,-18.394,14.2819,0,0,3.26725,5
1774299889693,0.114623,-0.922932,0.134356,19.3291,-16.7303,12.5906,0,0,3.2931,5
1774299889706,0.112791,-0.931128,0.134267,25.6555,-14.8978,10.4859,0,0,3.26326,5
1774299889720,0.111831,-0.94029,0.13368,31.3372,-13.1017,8.19786,0,0,3.28204,5
1774299889733,0.113101,-0.947215,0.130845,36.5541,-11.567,5.69771,0,0,3.26708,5
1774299889746,0.112596,-0.952406,0.126382,41.8625,-10.2116,3.3378,0,0,3.29829,5
1774299889760,0.115381,-0.959238,0.123322,47.1194,-9.1477,1.3766,0,0,3.29121,5
1774299889773,0.117606,-0.968239,0.119893,52.2077,-8.50142,-0.486151,0,0,3.32384,5
1774299889786,0.1192,-0.977518,0.116155,56.9296,-8.15943,-2.47692,0,0,3.29486,5
1774299889800,0.120756,-0.989157,0.111577,61.2124,-8.02246,-4.35003,0,0,3.32779,5
1774299889813,0.124753,-1.00209,0.107862,64.7874,-8.26441,-6.11294,0,0,3.28775,5
1774299889827,0.127743,-1.01608,0.102942,67.5106,-8.99034,-7.97778,0,0,3.27953,5
1774299889840,0.125562,-1.02498,0.0951299,69.7899,-9.92091,-9.99707,0,0,3.29747,5
1774299889853,0.122751,-1.0286,0.0865067,72.6872,-10.4593,-11.9729,0,0,3.30169,5
1774299889867,0.120714,-1.03494,0.0778015,76.1684,-10.967,-13.679,0,0,3.28288,5
1774299889880,0.116236,-1.04452,0.0659536,79.897,-11.4022,-15.2081,0,0,3.2911,5
1774299889894,0.107127,-1.0615,0.0494883,83.2593,-11.2786,-16.728,0,0,3.26441,5
1774299889907,0.100595,-1.07719,0.0282124,85.7445,-10.8459,-17.8544,0,0,3.26753,5
1774299889920,0.0963986,-1.09691,0.00519775,87.0447,-10.4846,-18.2411,0,0,3.27234,5
1774299889934,0.0932505,-1.11091,-0.019832,87.0957,-10.5602,-18.4413,0,0,3.26764,5
1774299889947,0.0865246,-1.11837,-0.0465538,86.5371,-10.492,-18.5968,0,0,3.69455,5
1774299889961,0.0786834,-1.12186,-0.0735269,85.7016,-10.079,-18.2914,0,0,3.26567,5
1774299889974,0.0711532,-1.12832,-0.0988721,84.3768,-9.33465,-17.6829,0,0,3.29001,5
1774299889988,0.0648491,-1.13718,-0.122041,81.9686,-8.18119,-17.3191,0,0,3.42183,3
1774299890001,0.0597175,-1.14263,-0.145105,78.4382,-6.79783,-17.3449,0,0,3.27982,3
1774299890015,0.0556752,-1.14627,-0.165739,74.1694,-5.17821,-17.3731,0,0,3.27214,3
1774299890028,0.0520339,-1.15225,-0.18418,69.0217,-3.40879,-17.1942,0,0,3.29079,3
1774299890041,0.044185,-1.15778,-0.201269,62.8593,-1.42948,-16.7431,0,0,3.3071,3
1774299890055,0.0340742,-1.15908,-0.218412,56.1395,1.20526,-16.1092,0,0,3.28382,5
1774299890068,0.0261459,-1.16937,-0.233236,48.9018,4.22445,-15.5096,0,0,3.33934,5
1774299890081,0.0238066,-1.1522,-0.216362,42.258,7.07814,-14.6504,0,0,3.28921,5
1774299890095,0.0326309,-1.15142,-0.157349,37.3669,8.48249,-13.6363,0,0,3.29919,5
1774299890108,0.0378343,-1.16442,-0.1147,30.2367,7.63588,-13.8015,0,0,3.27345,5
1774299890122,0.0388809,-1.17201,-0.108424,21.5732,7.03971,-13.029,0,0,3.25547,5
1774299890135,0.0465122,-1.14796,-0.101323,16.7938,6.34511,-10.7533,0,0,3.26871,5
1774299890148,0.0431755,-1.1523,-0.0896315,13.0082,6.98387,-8.95977,0,0,3.33821,5
1774299890162,0.0453872,-1.14952,-0.075323,8.74641,9.01952,-8.50429,0,0,3.29397,5
1774299890175,0.0562787,-1.13559,-0.0653773,5.91833,10.3792,-7.86498,0,0,3.26519,5
1774299890188,0.0630209,-1.12713,-0.0541795,3.3752,10.6131,-6.29255,0,0,3.28114,5
1774299890202,0.0649307,-1.1196,-0.0453186,0.896367,10.8065,-5.19625,0,0,3.27227,5
1774299890215,0.0717644,-1.10765,-0.0350834,-0.948013,10.8482,-4.75791,0,0,3.2646,5
1774299890229,0.0788971,-1.10004,-0.0277409,-2.59474,10.4041,-3.5456,0,0,3.27449,5
1774299890242,0.0824828,-1.092,-0.0204099,-3.9213,9.76531,-2.14266,0,0,3.34199,5
1774299890255,0.0852284,-1.08819,-0.0131539,-4.96278,9.24752,-1.45341,0,0,3.33427,5
1774299890269,0.086594,-1.08141,-0.00606572,-6.04775,8.72324,-0.887605,0,0,3.29329,5
1774299890282,0.0882522,-1.07813,-0.00100652,-6.94426,8.04339,-0.319712,0,0,3.31482,5
1774299890296,0.0887382,-1.07484,0.00627642,-7.9198,7.45905,0.0103696,0,0,3.26484,5
1774299890309,0.0893418,-1.0726,0.0122372,-8.95409,7.00383,0.128396,0,0,3.26656,5
1774299890322,0.0908905,-1.06813,0.0176491,-9.93293,6.60112,0.330577,0,0,3.27641,5
1774299890336,0.0919551,-1.06447,0.0207316,-10.7789,6.21115,0.436208,0,0,3.26428,5
1774299890349,0.093443,-1.06137,0.0212664,-11.4833,5.7891,0.600998,0,0,3.27995,5
1774299890363,0.0958801,-1.05685,0.0267852,-11.7992,5.19847,0.750122,0,0,3.28916,5
1774299890376,0.0959043,-1.05513,0.0290838,-12.4497,4.40376,0.805245,0,0,3.3003,5
1774299890389,0.0989385,-1.05683,0.0291785,-12.74,3.55172,0.762217,0,0,3.26802,5
1774299890403,0.0987222,-1.05575,0.0308386,-13.0377,2.76117,0.776412,0,0,3.26475,5
1774299890416,0.0986863,-1.05335,0.0346896,-13.3918,2.05864,0.684048,0,0,3.26871,1
1774299890429,0.0986199,-1.05211,0.0363222,-13.9235,1.49571,0.596864,0,0,3.26041,1
1774299890443,0.0988981,-1.04837,0.0374243,-14.4356,1.03543,0.57623,0,0,3.31044,1
1774299890456,0.0991641,-1.04571,0.0380085,-14.8449,0.674625,0.585871,0,0,3.29347,1
1774299890470,0.0994932,-1.04158,0.0376488,-15.2017,0.327634,0.508904,0,0,3.33079,1
1774299890483,0.0992847,-1.03778,0.0367177,-15.333,-0.0714019,0.429405,0,0,3.26808,1
1774299890496,0.0995765,-1.02979,0.0389556,-15.1863,-0.450195,0.356933,0,0,3.27373,1
1774299890510,0.0998769,-1.02768,0.0369744,-15.2328,-1.00556,0.165637,0,0,3.27656,1
1774299890523,0.101595,-1.02378,0.039767,-14.7676,-1.61028,0.0317442,0,0,3.27025,1
1774299890536,0.102074,-1.02621,0.0338959,-14.7785,-2.30439,-0.15801,0,0,3.27321,1
1774299890550,0.103226,-1.01636,0.0383819,-14.0013,-2.954,-0.221082,0,0,3.29495,3
1774299890563,0.101413,-1.01438,0.0379846,-14.1006,-3.63911,-0.26092,0,0,3.31299,3
1774299890577,0.104537,-1.02437,0.0322662,-13.8496,-4.1158,-0.317792,0,0,3.36144,3
1774299890590,0.106051,-1.02248,0.0309619,-13.8948,-4.451,-0.13597,0,0,3.29851,3
1774299890603,0.107019,-1.02092,0.0316258,-13.9093,-4.73999,0.157685,0,0,3.2916,3
1774299890617,0.106353,-1.01898,0.0338729,-14.2184,-4.8689,0.587303,0,0,3.27051,3
1774299890630,0.109144,-1.02491,0.0322634,-14.4447,-4.92421,0.858372,0,0,3.2744,3
1774299890644,0.107841,-1.01361,0.037739,-14.7199,-4.92932,1.41525,0,0,3.2889,3
1774299890657,0.108057,-1.02368,0.0303017,-15.1753,-5.07887,1.70582,0,0,3.31064,3
1774299890671,0.104346,-1.01176,0.0367921,-15.2413,-5.1087,2.0349,0,0,3.26345,3
1774299890684,0.105495,-1.02782,0.0241218,-15.8756,-5.23534,1.85396,0,0,3.29175,3
1774299890697,0.104853,-1.02718,0.0202802,-15.8201,-5.1395,1.94051,0,0,3.27217,3
1774299890711,0.103567,-1.01873,0.0257994,-15.9381,-5.18263,1.85478,0,0,3.26988,3
1774299890724,0.102219,-1.02329,0.0228668,-16.5393,-5.18523,1.6604,0,0,3.2744,3
1774299890737,0.10407,-1.02608,0.0181192,-16.9556,-5.24035,1.49704,0,0,3.27325,3
1774299890751,0.104472,-1.02292,0.0182877,-17.2514,-5.29153,1.51626,0,0,3.30588,3
1774299890764,0.105092,-1.02124,0.0172637,-17.6814,-5.43146,1.43934,0,0,3.2976,3
1774299890778,0.103668,-1.02265,0.0128572,-18.1338,-5.65689,1.32949,0,0,3.30903,3
1774299890791,0.104195,-1.0241,0.00987129,-18.2629,-5.93947,1.15643,0,0,3.27069,3
1774299890804,0.10361,-1.02258,0.00514748,-18.2803,-6.30554,0.963109,0,0,3.28327,3
1774299890818,0.103328,-1.02515,-0.00171866,-18.3772,-7.01247,0.544272,0,0,3.28619,1
1774299890831,0.100678,-1.02501,-0.00106694,-18.3269,-7.94007,-0.292961,0,0,3.26391,1
1774299890844,0.0977376,-1.03211,0.000826818,-18.9247,-8.63453,-1.28662,0,0,3.28834,1
1774299890858,0.101161,-1.03641,0.0059476,-19.7686,-9.00443,-2.27464,0,0,3.64633,1
1774299890872,0.1094,-1.04589,0.00544192,-21.2293,-9.32275,-2.92506,0,0,3.28306,3
1774299890885,0.113809,-1.04997,0.00823617,-22.9275,-9.36759,-2.71046,0,0,3.2606,3
1774299890898,0.118537,-1.06179,0.0100861,-25.1491,-9.156,-2.54387,0,0,3.26113,3
1774299890912,0.119428,-1.06982,0.0156454,-28.0695,-8.54051,-2.64225,0,0,3.26717,3
1774299890925,0.123451,-1.07514,0.0135412,-31.7994,-8.20489,-2.65632,0,0,3.27034,3
1774299890938,0.126103,-1.08116,0.0116251,-34.9754,-8.09578,-2.13437,0,0,3.27571,3
1774299890952,0.128553,-1.09076,0.00952581,-38.2413,-8.16833,-1.86221,0,0,3.29466,3
1774299890965,0.128547,-1.09953,0.00760378,-41.6708,-8.17902,-2.12685,0,0,3.31549,3
1774299890979,0.128477,-1.10501,0.00731395,-44.8339,-8.42118,-2.28288,0,0,3.27225,3
1774299890992,0.130578,-1.114,0.00450638,-48.0182,-9.09036,-2.03707,0,0,3.27123,3
1774299891005,0.128338,-1.12224,0.00110624,-51.3228,-9.71001,-1.28781,0,0,3.2779,3
1774299891019,0.124892,-1.13052,-0.00179287,-54.9764,-9.86886,-0.447835,0,0,3.27245,3
1774299891032,0.123232,-1.13846,-0.00438369,-58.9924,-9.77517,-0.0180786,0,0,3.28216,3
1774299891045,0.122497,-1.14203,-0.00378625,-63.317,-9.65675,0.264682,0,0,3.28421,3
1774299891059,0.127145,-1.14618,-0.00547845,-67.668,-9.67601,0.838164,0,0,3.3361,3
1774299891072,0.135272,-1.14941,-0.0140687,-71.9394,-10.2662,1.60299,0,0,3.29027,1
1774299891086,0.136019,-1.14555,-0.01892,-74.9196,-9.90747,3.15431,0,0,3.2833,1
1774299891099,0.153591,-1.13267,-0.0160426,-77.3031,-9.85357,3.83033,0,0,3.32005,1
1774299891112,0.173022,-1.10088,0.00055689,-76.5757,-10.6706,4.49197,0,0,3.31653,1
1774299891126,0.176495,-1.08062,0.0158005,-73.8142,-11.6213,7.51735,0,0,3.30449,1
1774299891139,0.186383,-1.06104,0.0331107,-70.0488,-13.5723,10.7494,0,0,3.27073,1
1774299891153,0.186859,-1.04202,0.0512655,-65.2684,-16.0314,12.6993,0,0,3.32621,3
1774299891166,0.187303,-1.02422,0.067612,-60.4153,-18.5924,14.4272,0,0,3.29445,3
1774299891179,0.187696,-1.0017,0.0820051,-54.6538,-21.586,16.6345,0,0,3.29777,3
1774299891193,0.186086,-0.982056,0.0960997,-48.2856,-24.6459,18.9758,0,0,3.27354,3
1774299891206,0.180617,-0.96263,0.109087,-41.7718,-27.5265,20.6436,0,0,3.27171,3
1774299891219,0.172323,-0.945163,0.119712,-34.8788,-29.9993,21.7538,0,0,3.27469,3
1774299891233,0.160613,-0.931076,0.128955,-27.8779,-31.6881,22.6681,0,0,3.27525,3
1774299891246,0.153226,-0.917093,0.136405,-20.6245,-32.6056,22.834,0,0,3.29219,4
1774299891260,0.146642,-0.905354,0.141853,-13.073,-32.9759,22.1389,0,0,3.38926,4
1774299891273,0.139791,-0.897664,0.144928,-5.3967,-32.773,20.9532,0,0,3.35303,4
1774299891287,0.131991,-0.89364,0.145893,2.25668,-31.8839,19.2037,0,0,3.29619,4
1774299891300,0.123624,-0.893359,0.144018,9.68716,-30.1987,16.809,0,0,3.28504,4
1774299891313,0.115399,-0.893592,0.13977,17.0528,-27.7392,13.884,0,0,3.27803,4
1774299891327,0.10684,-0.897743,0.136498,24.7225,-24.6024,10.653,0,0,3.27212,5
1774299891340,0.0987614,-0.904425,0.133197,32.4185,-20.8759,7.21574,0,0,3.2848,5
1774299891354,0.0911431,-0.916869,0.130308,40,-16.7046,3.72292,0,0,3.29238,5
1774299891367,0.0861429,-0.932345,0.125966,46.9469,-12.1135,0.391754,0,0,3.33097,5
1774299891380,0.0844683,-0.949632,0.120179,53.341,-7.5482,-2.82749,0,0,3.26873,5
1774299891394,0.0848529,-0.969708,0.114731,58.8523,-3.11912,-5.69488,0,0,3.27425,5
1774299891407,0.0884878,-0.984881,0.107557,63.2988,0.953622,-8.29867,0,0,3.27862,5
1774299891420,0.0941951,-0.995546,0.100238,67.6983,4.39199,-10.9773,0,0,3.27888,5
1774299891434,0.0999519,-1.0101,0.0943058,71.8057,7.39428,-13.0793,0,0,3.2818,5
1774299891447,0.107902,-1.02766,0.0892099,74.9595,9.86764,-14.6437,0,0,3.29906,5
1774299891461,0.114735,-1.03986,0.0807922,77.5553,11.5844,-16.254,0,0,3.29169,5
1774299891474,0.120832,-1.04751,0.0714508,80.7026,12.6302,-18.0206,0,0,3.28962,5
1774299891487,0.127197,-1.06186,0.0622722,84.0814,12.9648,-19.3699,0,0,3.26143,5
1774299891501,0.1282,-1.08282,0.0468541,86.4173,12.8088,-19.8253,0,0,3.26997,5
1774299891514,0.125978,-1.09792,0.0233018,88.0128,12.3404,-19.5731,0,0,3.2588,5
1774299891527,0.127804,-1.10903,-0.00112099,89.6255,11.187,-19.4608,0,0,3.28369,5
1774299891541,0.128578,-1.12193,-0.0252658,90.2665,9.65474,-19.0573,0,0,3.25951,5
1774299891554,0.126713,-1.13326,-0.0483974,89.7635,7.93653,-18.2847,0,0,3.30782,5
1774299891568,0.121001,-1.13727,-0.0738059,88.4245,6.25261,-17.8427,0,0,3.45861,5
1774299891581,0.112859,-1.13907,-0.0980284,86.8267,5.02753,-17.9444,0,0,3.27262,5
1774299891595,0.0999368,-1.14235,-0.120743,84.6578,4.63376,-17.7797,0,0,3.28704,5
1774299891608,0.0851243,-1.14743,-0.14144,81.4386,5.10048,-17.2534,0,0,3.27575,5
1774299891621,0.0714721,-1.15106,-0.160494,77.2803,6.45476,-16.9617,0,0,3.28516,5
1774299891635,0.0599117,-1.15313,-0.178022,72.3019,8.66653,-17.0636,0,0,3.2738,5
1774299891648,0.0518037,-1.15282,-0.195348,66.7061,11.4607,-17.2168,0,0,3.30903,5
1774299891661,0.0470504,-1.15464,-0.210273,60.7379,14.4956,-17.1434,0,0,3.27077,5
1774299891675,0.0437222,-1.15871,-0.225111,53.9119,17.4017,-16.9585,0,0,3.29431,5
1774299891688,0.0455471,-1.14705,-0.237677,46.9326,19.9115,-17.1946,0,0,3.27758,5
1774299891702,0.0550649,-1.13574,-0.20641,42.6374,21.5217,-16.562,0,0,3.27599,5
1774299891715,0.0710851,-1.13021,-0.135489,38.5052,21.7451,-15.573,0,0,3.28204,5
1774299891728,0.0766033,-1.14844,-0.0923226,32.1958,20.0333,-16.1408,0,0,3.28206,5
1774299891742,0.073392,-1.16046,-0.0704547,23.8519,17.7193,-16.7182,0,0,3.35518,5
1774299891755,0.0737378,-1.14812,-0.069242,16.7951,15.571,-16.4244,0,0,3.27888,5
1774299891769,0.0803892,-1.144,-0.0618897,12.7744,13.9859,-15.3057,0,0,3.46315,5
1774299891782,0.083632,-1.14592,-0.0499583,8.55742,12.7432,-13.5309,0,0,3.28817,5
1774299891795,0.0830495,-1.13274,-0.0480191,5.42609,12.201,-12.0628,0,0,3.26223,5
1774299891809,0.0833146,-1.12451,-0.0387442,3.51688,11.6579,-10.9602,0,0,3.28184,5
1774299891822,0.0833012,-1.1188,-0.0265865,1.39448,11.1556,-10.0641,0,0,3.27301,5
1774299891836,0.0838115,-1.10814,-0.0202668,-0.621707,10.8244,-9.40662,0,0,3.92524,5
1774299891849,0.0835628,-1.09581,-0.0134335,-2.01826,10.8082,-8.85929,0,0,3.27221,5
1774299891863,0.087852,-1.08954,-0.0088742,-3.09113,10.7012,-8.69933,0,0,3.28593,5
1774299891876,0.0941958,-1.08143,-0.00106567,-3.84391,10.306,-8.1831,0,0,3.30293,5
1774299891890,0.0991624,-1.07765,0.0030168,-4.45384,9.55879,-7.40338,0,0,3.27215,5
1774299891903,0.0998973,-1.07013,0.00921626,-4.62834,8.74943,-6.8892,0,0,3.28219,5
1774299891916,0.099511,-1.06636,0.0170237,-4.7117,7.88913,-6.67875,0,0,3.28658,5
1774299891930,0.102238,-1.06148,0.0241695,-4.93383,7.00643,-6.40046,0,0,3.28141,5
1774299891943,0.105742,-1.05807,0.0304048,-5.12295,6.09575,-5.88687,0,0,3.26967,5
1774299891956,0.106884,-1.05394,0.0365383,-5.56693,5.41384,-5.43078,0,0,3.29519,5
1774299891970,0.108712,-1.05107,0.0438235,-5.91879,5.02282,-5.03623,0,0,3.30327,5
1774299891983,0.107961,-1.04421,0.0522743,-6.63285,4.76206,-4.43431,0,0,3.30431,5
1774299891997,0.107671,-1.04459,0.0541949,-7.37622,4.51978,-3.9094,0,0,3.29575,5
1774299892010,0.110147,-1.04509,0.0569604,-7.8364,4.28081,-3.45718,0,0,3.27927,5
1774299892023,0.11147,-1.04399,0.0608648,-8.43476,4.02271,-2.98965,0,0,3.29325,5
1774299892037,0.113492,-1.0409,0.0634134,-9.05265,3.67674,-2.44943,0,0,3.28706,5
1774299892050,0.1147,-1.03859,0.0665017,-9.58664,3.15493,-1.8603,0,0,3.29651,5
1774299892064,0.114296,-1.03763,0.0705014,-10.1515,2.68937,-1.41211,0,0,3.28062,3
1774299892077,0.113985,-1.03837,0.0726072,-10.9647,2.4062,-1.12181,0,0,3.30177,3
1774299892090,0.114371,-1.03894,0.0707238,-11.9776,2.14278,-0.794693,0,0,3.29273,3
1774299892104,0.115807,-1.03903,0.0688053,-12.7008,1.92025,-0.502625,0,0,3.2811,3
1774299892117,0.113956,-1.03248,0.0688499,-13.5311,1.69693,-0.257769,0,0,3.28567,3
1774299892130,0.1143,-1.02993,0.0703766,-13.9299,1.37908,-0.128128,0,0,3.27441,3
1774299892144,0.112772,-1.03049,0.0649179,-14.8729,1.06494,-0.0194611,0,0,3.28284,1
1774299892157,0.115549,-1.03122,0.062634,-14.9494,0.778267,-0.031215,0,0,3.28325,1
1774299892171,0.111392,-1.01749,0.0692799,-15.2665,0.4306,0.0814361,0,0,3.29106,1
1774299892184,0.111422,-1.02172,0.0686951,-15.5975,-0.0435773,-0.0562978,0,0,3.30475,1
1774299892197,0.11398,-1.02664,0.0642282,-15.9361,-0.471888,-0.103666,0,0,3.27254,1
1774299892211,0.115882,-1.0282,0.0581735,-16.1003,-0.924131,-0.0430431,0,0,3.27832,1
1774299892224,0.114818,-1.02076,0.0609359,-16.0069,-1.27008,0.113518,0,0,3.30001,1
1774299892238,0.116288,-1.0256,0.0564559,-16.0848,-1.651,-0.0243024,0,0,3.32699,1
1774299892251,0.114662,-1.01458,0.06271,-15.8086,-2.02726,0.164178,0,0,3.29149,1
1774299892264,0.114804,-1.0214,0.0561986,-15.9833,-2.519,0.056058,0,0,3.27834,1
1774299892278,0.111609,-1.01005,0.0622824,-15.5574,-2.77335,0.19079,0,0,3.31499,1
1774299892291,0.113551,-1.0231,0.0531845,-15.8768,-3.21939,-0.10851,0,0,3.27847,1
1774299892305,0.115162,-1.02652,0.0489047,-15.5994,-3.56847,-0.0480436,0,0,3.28051,1
1774299892318,0.114738,-1.01956,0.0513357,-15.4609,-4.00802,-0.0791754,0,0,3.26469,1
1774299892331,0.113575,-1.01854,0.0500943,-15.554,-4.32528,-0.151808,0,0,3.29662,3
1774299892345,0.114758,-1.0194,0.0466116,-15.6176,-4.65215,-0.142436,0,0,3.31377,3
1774299892358,0.114127,-1.01648,0.0458224,-15.6262,-4.93157,-0.0693623,0,0,3.28356,3
1774299892372,0.114528,-1.01555,0.046082,-15.7011,-5.17091,-0.111288,0,0,3.28193,3
1774299892385,0.114548,-1.01666,0.0417818,-15.95,-5.46363,-0.0386763,0,0,3.29077,3
1774299892398,0.115475,-1.01581,0.0404137,-15.9018,-5.67441,0.161315,0,0,3.28154,3
1774299892412,0.114055,-1.01436,0.0372156,-16.2113,-5.86138,0.30727,0,0,3.27003,3
1774299892425,0.115452,-1.01666,0.0332926,-16.2954,-6.06355,0.417634,0,0,3.28221,3
1774299892438,0.115048,-1.01472,0.0328722,-16.5297,-6.32803,0.600166,0,0,3.26619,3
1774299892452,0.114757,-1.01552,0.0319685,-16.8182,-6.5674,0.778025,0,0,3.27838,3
1774299892465,0.113721,-1.01646,0.0323428,-17.2193,-6.73468,0.941198,0,0,3.27071,3
1774299892479,0.114694,-1.02,0.0296898,-17.8116,-6.87587,0.99074,0,0,3.3104,1
1774299892492,0.11443,-1.0212,0.0277295,-18.5544,-7.0661,1.0709,0,0,3.29732,1
1774299892505,0.117241,-1.02525,0.0275418,-19.2756,-7.26021,1.16327,0,0,3.26675,1
1774299892519,0.115541,-1.02261,0.032594,-20.3036,-7.34924,1.33523,0,0,3.29416,1
1774299892532,0.114417,-1.01934,0.0343182,-21.712,-7.33821,1.35197,0,0,3.2681,1
1774299892545,0.120058,-1.02814,0.0319739,-23.1361,-7.25844,1.20805,0,0,3.27769,1
1774299892559,0.127268,-1.03756,0.0295827,-24.8099,-7.35741,1.3638,0,0,3.27047,1
1774299892572,0.129699,-1.04461,0.0312037,-26.6635,-7.72916,1.59517,0,0,3.26528,1
1774299892586,0.128148,-1.05528,0.0333305,-28.9954,-8.02609,1.32543,0,0,3.29851,1
1774299892599,0.126473,-1.06732,0.0334103,-32.0529,-8.18991,0.479059,0,0,3.26001,1
1774299892612,0.123504,-1.08221,0.0300914,-35.6891,-8.11974,-0.231626,0,0,3.27088,3
1774299892626,0.121648,-1.08487,0.0298965,-39.0066,-7.95545,-0.474689,0,0,3.25643,3
1774299892639,0.121517,-1.09318,0.0258878,-42.3182,-8.03674,-1.28046,0,0,3.26938,3
1774299892652,0.117132,-1.09685,0.0267095,-45.7225,-8.05566,-2.26454,0,0,3.26347,3
1774299892666,0.120455,-1.10442,0.0199895,-49.3305,-8.49871,-3.12791,0,0,3.26797,3
1774299892679,0.118635,-1.10601,0.0173856,-52.9323,-9.23419,-3.43845,0,0,3.25838,3
1774299892692,0.117248,-1.11897,0.00787027,-56.6339,-9.91043,-3.46824,0,0,3.29586,3
1774299892706,0.114117,-1.12188,0.00985364,-60.4058,-10.0863,-3.61796,0,0,3.27964,3
1774299892719,0.115042,-1.12872,0.00967896,-64.4615,-10.6582,-3.98964,0,0,3.26651,3
1774299892732,0.115605,-1.13414,0.00822002,-68.5929,-11.4601,-4.11697,0,0,3.26693,3
1774299892746,0.113518,-1.14454,-6.17151e-05,-72.9759,-11.809,-3.95626,0,0,3.2728,3
1774299892759,0.111169,-1.1474,-0.00501309,-77.3088,-11.4266,-3.95229,0,0,3.27017,3
1774299892773,0.114166,-1.15004,-0.012951,-81.5001,-10.7334,-4.21488,0,0,3.27351,3
1774299892786,0.133377,-1.14001,-0.0195488,-85.0342,-10.724,-4.66569,0,0,3.30477,3
1774299892799,0.153938,-1.11255,-0.0179252,-86.3583,-12.8761,-4.67802,0,0,3.28508,3
1774299892813,0.177314,-1.07259,-0.00170246,-83.8312,-14.2815,-3.01973,0,0,3.27347,3
1774299892826,0.19023,-1.04833,0.0118035,-78.523,-16.9368,0.253575,0,0,3.2794,3
1774299892839,0.196432,-1.04103,0.0318403,-72.7539,-20.1474,5.54758,0,0,3.27673,3
1774299892853,0.197002,-1.02335,0.0495275,-68.0191,-24.3987,9.23823,0,0,3.29132,3
1774299892866,0.189337,-1.00337,0.0654909,-62.306,-28.096,11.5636,0,0,3.27621,3
1774299892879,0.184356,-0.984092,0.0814074,-56.2227,-31.7307,13.729,0,0,3.27454,3
1774299892893,0.175632,-0.962858,0.0948342,-49.5005,-34.6878,16.2444,0,0,3.3147,3
1774299892906,0.167396,-0.943929,0.107781,-42.365,-36.7362,18.2273,0,0,3.27306,3
1774299892920,0.159669,-0.927889,0.119552,-34.9827,-37.9568,19.1373,0,0,3.26941,3
1774299892933,0.156028,-0.913575,0.129058,-27.323,-38.7531,19.2705,0,0,3.30021,3
1774299892946,0.152355,-0.902012,0.136333,-19.3111,-39.1112,19.2155,0,0,3.2873,3
1774299892960,0.149567,-0.893805,0.142105,-11.1786,-38.8716,18.9315,0,0,3.2798,4
1774299892973,0.147425,-0.888829,0.145788,-2.97613,-38.1796,18.112,0,0,3.27245,4
1774299892987,0.143306,-0.887178,0.146843,5.26126,-37.0331,16.6961,0,0,3.37674,4
1774299893000,0.136569,-0.889507,0.14639,13.3654,-35.1314,14.8248,0,0,3.26499,4
1774299893013,0.127777,-0.894275,0.144547,21.179,-32.3357,12.3567,0,0,3.26264,5
1774299893027,0.120823,-0.902091,0.141941,28.759,-28.7937,9.20112,0,0,3.27771,5
1774299893040,0.114033,-0.912277,0.138392,36.095,-24.6741,5.73052,0,0,3.25971,5
1774299893053,0.106708,-0.922765,0.134699,43.1774,-19.8843,2.32571,0,0,3.26717,5
1774299893067,0.100536,-0.934343,0.131435,50.2638,-14.4918,-1.08893,0,0,3.26171,5
1774299893080,0.0999832,-0.949482,0.126883,57.0687,-9.08833,-4.66743,0,0,3.27441,5
1774299893094,0.103287,-0.965582,0.119925,63.5245,-4.02778,-7.82298,0,0,3.30412,5
1774299893107,0.110718,-0.982611,0.112865,69.479,0.413641,-10.0813,0,0,3.27045,5
1774299893120,0.120642,-0.998992,0.105537,74.8965,3.99106,-11.9342,0,0,3.27925,5
1774299893134,0.130346,-1.01678,0.0984556,79.6787,6.76835,-13.7479,0,0,3.28401,5
1774299893147,0.139636,-1.03522,0.0895375,83.7273,8.77712,-15.5227,0,0,3.27675,5
1774299893160,0.145786,-1.05762,0.0788313,86.7184,10.2369,-16.8807,0,0,3.27382,5
1774299893174,0.150226,-1.07322,0.0631695,88.9398,11.366,-18.1047,0,0,3.28275,5
1774299893187,0.151803,-1.0859,0.0440179,91.088,12.2061,-19.4172,0,0,3.34214,5
1774299893201,0.15015,-1.09586,0.022394,93.176,13.2667,-20.4056,0,0,3.28091,5
1774299893214,0.14968,-1.10785,0.000594718,95.0151,14.1394,-21.178,0,0,3.27358,5
1774299893227,0.14417,-1.12376,-0.0211588,95.9781,14.5298,-21.8895,0,0,3.29458,5
1774299893241,0.13479,-1.13534,-0.0441924,95.6089,14.9642,-22.6087,0,0,3.2789,5
1774299893254,0.120204,-1.14039,-0.0676707,94.8892,15.74,-22.8657,0,0,3.26991,5
1774299893267,0.105723,-1.14577,-0.0902291,93.7368,17.0956,-22.5016,0,0,3.27682,5
1774299893281,0.0940632,-1.15223,-0.112612,91.7224,18.8711,-22.0414,0,0,3.27034,5
1774299893294,0.0878783,-1.1562,-0.13502,88.8421,20.6673,-22.0027,0,0,3.3074,5
1774299893308,0.0852523,-1.15807,-0.158039,85.3638,22.269,-22.2483,0,0,3.27193,5
1774299893321,0.0848125,-1.16211,-0.17987,81.2298,23.5269,-22.2134,0,0,3.26334,5
1774299893334,0.0840289,-1.16945,-0.199187,76.0718,24.334,-21.7064,0,0,3.26708,5
1774299893348,0.0826176,-1.17285,-0.216784,70.1995,24.764,-21.0147,0,0,3.25865,5
1774299893361,0.0817164,-1.1792,-0.230045,63.6992,24.9258,-20.1793,0,0,3.26714,5
1774299893374,0.0795308,-1.18459,-0.238189,56.4523,24.87,-19.0658,0,0,3.26919,5
1774299893388,0.080238,-1.16597,-0.242571,49.5717,24.4992,-18.1026,0,0,3.28362,5
1774299893401,0.0855908,-1.15348,-0.203092,45.4607,23.6585,-16.4033,0,0,3.30566,5
1774299893414,0.101568,-1.14526,-0.145171,40.4401,21.7834,-15.0152,0,0,3.26432,5
1774299893428,0.100233,-1.14999,-0.110102,34.7577,18.9965,-14.8834,0,0,3.26879,5
1774299893441,0.094814,-1.16076,-0.0940546,28.1464,16.893,-14.4095,0,0,3.26497,5
1774299893454,0.0885428,-1.15618,-0.0836954,21.9235,15.355,-13.9356,0,0,3.27567,5
1774299893468,0.0884182,-1.14937,-0.0731913,17.5517,14.739,-13.7949,0,0,3.26065,5
1774299893481,0.0923776,-1.14578,-0.0632213,13.5361,13.7817,-13.0918,0,0,3.28979,5
1774299893495,0.0933772,-1.1365,-0.0547444,10.6577,12.7787,-11.7212,0,0,3.30218,5
1774299893508,0.0911727,-1.1287,-0.0417908,8.33132,12.1266,-11.014,0,0,3.30482,5
1774299893521,0.0896198,-1.12212,-0.0289767,5.90462,11.7748,-11.0248,0,0,3.28716,5
1774299893535,0.0898432,-1.11154,-0.0180789,3.83027,11.3656,-10.9617,0,0,3.27151,5
1774299893548,0.0884552,-1.10408,-0.0084478,1.87955,10.7363,-10.9827,0,0,3.28116,5
1774299893561,0.0888469,-1.09526,-0.00320969,-0.00927336,10.513,-11.5455,0,0,3.27612,5
1774299893575,0.0967487,-1.0859,0.00441518,-1.13446,10.0385,-11.7127,0,0,3.29755,5
1774299893588,0.103066,-1.07675,0.0124219,-2.16655,9.08787,-11.0296,0,0,3.27178,5
1774299893602,0.107645,-1.07169,0.017719,-2.80334,8.13922,-10.5115,0,0,3.29608,5
1774299893615,0.110155,-1.06703,0.0254215,-3.33804,7.24378,-10.1236,0,0,3.27743,5
1774299893628,0.114595,-1.06249,0.0321146,-3.84404,6.28724,-9.43628,0,0,3.26365,5
1774299893642,0.117473,-1.05901,0.0383227,-4.26128,5.32483,-8.58112,0,0,3.26795,5
1774299893655,0.118753,-1.05514,0.045263,-4.78614,4.57784,-7.81119,0,0,3.28023,5
1774299893668,0.12051,-1.0525,0.0519212,-5.30896,4.04702,-7.09857,0,0,3.26762,5
1774299893682,0.122212,-1.05034,0.0570389,-5.86583,3.59736,-6.34714,0,0,3.26284,5
1774299893695,0.123092,-1.04983,0.0609079,-6.44669,3.08428,-5.56464,0,0,3.39883,5
1774299893709,0.123004,-1.04299,0.0667858,-6.8297,2.6458,-4.91767,0,0,3.2761,5
1774299893722,0.121757,-1.03952,0.0671215,-7.35993,2.09018,-4.45899,0,0,3.26128,5
1774299893735,0.122774,-1.03386,0.0727169,-7.08111,1.43942,-4.05515,0,0,3.26634,3
1774299893749,0.123448,-1.03928,0.0705832,-7.47007,0.606785,-3.8491,0,0,3.26593,3
1774299893762,0.123046,-1.02769,0.0786644,-7.16067,-0.061823,-3.45036,0,0,3.28834,3
