timestamp,ax,ay,az,gx,gy,gz,roll_k,pitch_k,delay_ms,classe_prevista
1774389180948,0.0374474,0.656631,-0.189516,3.3713,-24.5506,21.0736,0,0,3.28544,-1
1774389180961,0.0435744,0.787795,-0.2255,1.83187,-14.4645,10.9791,0,0,3.27889,-1
1774389180975,0.0460644,0.845853,-0.2427,1.26582,-10.36,7.80318,0,0,3.42922,-1
1774389180989,0.0482175,0.87632,-0.252934,0.91337,-8.20711,6.10375,0,0,3.28439,-1
1774389181003,0.049952,0.89671,-0.258114,0.715021,-6.85171,5.06143,0,0,3.63421,-1
1774389181016,0.0514641,0.910683,-0.261828,0.586419,-5.85892,4.34614,0,0,3.24368,-1
1774389181030,0.0523427,0.921508,-0.264294,0.500129,-5.14676,3.8148,0,0,3.2682,-1
1774389181043,0.0510768,0.929794,-0.266726,0.421475,-4.61513,3.39696,0,0,3.24539,-1
1774389181056,0.051557,0.935586,-0.268143,0.376988,-4.19289,3.07358,0,0,3.27065,-1
1774389181070,0.0519972,0.941213,-0.269593,0.322937,-3.86292,2.80763,0,0,3.33183,3
1774389181084,0.0525685,0.946049,-0.271094,0.293205,-3.61023,2.57328,0,0,3.91065,1
1774389181097,0.0528384,0.949667,-0.272299,0.282985,-3.36559,2.38455,0,0,3.29609,1
1774389181111,0.05255,0.95255,-0.273272,0.260821,-3.16996,2.22547,0,0,3.28991,1
1774389181124,0.0528855,0.955353,-0.27404,0.243501,-2.99384,2.09889,0,0,3.32322,1
1774389181138,0.0527307,0.958332,-0.275253,0.236852,-2.84122,1.97875,0,0,3.29439,1
1774389181151,0.0525251,0.960178,-0.27588,0.228624,-2.70735,1.86189,0,0,3.30474,1
1774389181164,0.0525721,0.962072,-0.276341,0.228085,-2.57269,1.76391,0,0,3.30966,1
1774389181178,0.0529945,0.963756,-0.276643,0.238042,-2.45234,1.67761,0,0,3.57065,1
1774389181192,0.0532843,0.96537,-0.276901,0.230994,-2.35811,1.59861,0,0,3.30387,1
1774389181207,0.0533992,0.966718,-0.276928,0.236598,-2.25849,1.53003,0,0,3.33589,1
1774389181221,0.0535041,0.967487,-0.277169,0.235069,-2.17686,1.46547,0,0,3.28592,5
1774389181234,0.0533755,0.968177,-0.277558,0.240181,-2.08862,1.4219,0,0,3.30724,1
1774389181247,0.0535316,0.968964,-0.278219,0.234536,-2.01544,1.36711,0,0,3.28666,5
1774389181261,0.053622,0.969744,-0.278788,0.23079,-1.94851,1.31712,0,0,3.82878,5
1774389181275,0.0535346,0.970902,-0.279066,0.216805,-1.88093,1.27859,0,0,3.31661,5
1774389181288,0.0534793,0.971939,-0.279065,0.214252,-1.82875,1.2481,0,0,3.29631,5
1774389181302,0.0537076,0.972828,-0.278874,0.203466,-1.78921,1.22122,0,0,3.83437,5
1774389181316,0.0536952,0.973446,-0.279259,0.192974,-1.74781,1.17769,0,0,3.29622,5
1774389181329,0.0538938,0.974197,-0.279693,0.185499,-1.70742,1.14956,0,0,3.29294,5
1774389181342,0.0538114,0.97462,-0.279954,0.183084,-1.65653,1.12103,0,0,3.29779,5
1774389181356,0.0537823,0.975211,-0.279922,0.17947,-1.62168,1.08534,0,0,3.35905,5
1774389181370,0.0539102,0.975241,-0.280512,0.175192,-1.57919,1.05737,0,0,3.30852,5
1774389181383,0.0540188,0.975719,-0.280749,0.158658,-1.53584,1.03119,0,0,3.29202,1
1774389181396,0.0540157,0.976017,-0.280831,0.155191,-1.50325,1.00755,0,0,3.40583,1
1774389181410,0.0543733,0.976485,-0.280851,0.146176,-1.47756,0.980058,0,0,3.44565,5
1774389181424,0.0543767,0.97672,-0.280766,0.142577,-1.44507,0.957359,0,0,3.2937,1
1774389181437,0.0542536,0.977378,-0.281133,0.138757,-1.41192,0.932963,0,0,3.2997,1
1774389181450,0.0543993,0.977784,-0.281446,0.139557,-1.38077,0.913995,0,0,3.30431,5
1774389181464,0.0544127,0.978056,-0.281596,0.139871,-1.36025,0.888723,0,0,3.30204,5
1774389181477,0.0544705,0.978709,-0.281478,0.141477,-1.33659,0.861028,0,0,3.32393,5
1774389181492,0.0541662,0.978666,-0.281771,0.14473,-1.32652,0.841509,0,0,4.22677,5
1774389181507,0.0539889,0.978771,-0.281468,0.155185,-1.31357,0.834447,0,0,5.12291,1
1774389181522,0.0541098,0.979227,-0.28148,0.161121,-1.28879,0.818681,0,0,4.16458,5
1774389181535,0.0542359,0.979494,-0.28198,0.152838,-1.26069,0.812071,0,0,3.26466,1
1774389181548,0.0544664,0.979616,-0.282113,0.138542,-1.25673,0.795888,0,0,3.30543,5
1774389181562,0.0551709,0.97993,-0.281897,0.138045,-1.2478,0.7841,0,0,3.29652,5
1774389181575,0.0562814,0.979196,-0.282253,0.119435,-1.23767,0.777743,0,0,3.29902,5
1774389181589,0.0567252,0.979637,-0.282043,0.123471,-1.23459,0.765278,0,0,3.29879,5
1774389181602,0.0572138,0.98056,-0.281811,0.126414,-1.22824,0.76517,0,0,3.32907,5
1774389181616,0.057079,0.979977,-0.282332,0.110232,-1.22268,0.755589,0,0,3.34526,5
1774389181629,0.0573318,0.979781,-0.282218,0.1165,-1.20926,0.759902,0,0,3.32196,5
1774389181643,0.0563546,0.980258,-0.282349,0.132739,-1.18413,0.76526,0,0,3.86732,5
1774389181657,0.0563131,0.981375,-0.282387,0.129131,-1.17117,0.747521,0,0,3.30835,1
1774389181670,0.0565011,0.981248,-0.282738,0.110683,-1.17314,0.746263,0,0,3.27365,1
1774389181684,0.0566914,0.980889,-0.282715,0.0984377,-1.15867,0.744218,0,0,3.33804,5
1774389181697,0.0567433,0.981173,-0.282704,0.10106,-1.15103,0.747013,0,0,3.28515,1
1774389181711,0.0565875,0.981628,-0.282726,0.0919405,-1.14425,0.738486,0,0,3.41563,5
1774389181724,0.0562984,0.981685,-0.282898,0.080332,-1.13657,0.730441,0,0,3.29318,5
1774389181738,0.0566262,0.981987,-0.282912,0.0886899,-1.13275,0.730146,0,0,3.86562,1
1774389181752,0.0581353,0.980821,-0.282785,0.0656864,-1.12915,0.742309,0,0,3.29248,5
1774389181765,0.0583817,0.980805,-0.282825,0.0894471,-1.12962,0.735342,0,0,3.27196,5
1774389181778,0.0581435,0.981608,-0.283024,0.0882816,-1.11676,0.737345,0,0,3.32766,5
1774389181792,0.0580344,0.982053,-0.28315,0.0717459,-1.1162,0.734947,0,0,3.28068,1
1774389181806,0.058016,0.981746,-0.283206,0.0672878,-1.11139,0.734828,0,0,3.32705,1
1774389181819,0.0577944,0.982012,-0.283443,0.0810842,-1.12271,0.727429,0,0,3.30707,5
1774389181833,0.058012,0.982449,-0.283786,0.078246,-1.11968,0.721302,0,0,3.31061,1
1774389181846,0.0580054,0.982501,-0.283965,0.0738532,-1.12839,0.711664,0,0,3.31485,1
1774389181860,0.0578597,0.982541,-0.284006,0.0671362,-1.12204,0.695282,0,0,3.86356,1
1774389181874,0.0577204,0.982857,-0.284496,0.0770792,-1.11905,0.688392,0,0,3.29422,1
1774389181887,0.0577051,0.982977,-0.284622,0.0890341,-1.11408,0.690886,0,0,3.28839,5
1774389181900,0.0576155,0.983157,-0.284559,0.0853225,-1.09911,0.688098,0,0,3.337,1
1774389181914,0.0573586,0.983232,-0.284586,0.0908157,-1.10383,0.67947,0,0,3.3507,1
1774389181927,0.0570808,0.983314,-0.284546,0.092145,-1.10485,0.67561,0,0,3.29705,1
1774389181941,0.0571793,0.983425,-0.284669,0.0925429,-1.10625,0.670254,0,0,3.30046,1
1774389181955,0.0572948,0.983306,-0.284659,0.0967736,-1.10929,0.665198,0,0,3.82787,1
1774389181968,0.0570735,0.98332,-0.284231,0.0926286,-1.10786,0.655286,0,0,3.30944,1
1774389181982,0.0571294,0.983377,-0.28424,0.0959975,-1.10138,0.647644,0,0,3.27942,1
1774389181995,0.0569155,0.983517,-0.284162,0.0918963,-1.08799,0.647712,0,0,3.32772,5
1774389182009,0.0568927,0.983534,-0.284045,0.0940212,-1.07791,0.653344,0,0,3.29318,5
1774389182022,0.0569459,0.983399,-0.283826,0.0874615,-1.07226,0.660801,0,0,3.31689,1
1774389182036,0.056879,0.983356,-0.283767,0.0881221,-1.06435,0.656705,0,0,3.26952,1
1774389182049,0.0569648,0.983583,-0.283839,0.0874609,-1.06416,0.655408,0,0,3.31637,5
1774389182062,0.0569827,0.983404,-0.283736,0.0821261,-1.05714,0.656753,0,0,3.27248,1
1774389182076,0.0571815,0.983607,-0.283702,0.0822295,-1.05607,0.650315,0,0,3.7508,5
1774389182090,0.057083,0.98364,-0.283744,0.0887506,-1.05378,0.65323,0,0,3.28094,1
1774389182103,0.0570209,0.983598,-0.283368,0.0871977,-1.05205,0.652128,0,0,3.25285,1
1774389182117,0.0569508,0.983642,-0.283435,0.0861602,-1.05684,0.64595,0,0,3.34381,1
1774389182130,0.0571082,0.983803,-0.283329,0.093317,-1.05322,0.634551,0,0,3.27507,1
1774389182143,0.0570236,0.983742,-0.283623,0.091508,-1.0481,0.628074,0,0,3.27161,1
1774389182157,0.0571244,0.983823,-0.283679,0.0983647,-1.0484,0.62667,0,0,3.28442,5
1774389182170,0.057178,0.983847,-0.283819,0.0954162,-1.03712,0.630056,0,0,3.38748,1
1774389182184,0.0571224,0.983956,-0.284069,0.0994844,-1.03803,0.625972,0,0,3.25046,1
1774389182197,0.05708,0.984038,-0.284042,0.0998987,-1.03419,0.621689,0,0,3.239,5
1774389182210,0.0567617,0.984053,-0.284048,0.107141,-1.02927,0.611651,0,0,3.28178,5
1774389182224,0.0569166,0.984163,-0.284118,0.106698,-1.0135,0.60132,0,0,3.28133,1
1774389182237,0.0567443,0.984162,-0.28411,0.106707,-1.01188,0.591141,0,0,3.35872,5
1774389182251,0.0567825,0.984299,-0.284487,0.114852,-1.0155,0.584101,0,0,3.25974,5
1774389182264,0.0568404,0.984217,-0.28442,0.118258,-1.01634,0.586021,0,0,3.30922,5
1774389182278,0.0570559,0.984342,-0.284388,0.119332,-1.02014,0.580553,0,0,3.27461,5
1774389182291,0.0568989,0.98445,-0.284219,0.116492,-1.02286,0.575821,0,0,3.28229,5
1774389182305,0.0568129,0.984521,-0.284057,0.117665,-1.02286,0.567928,0,0,3.26742,5
1774389182318,0.0566345,0.984739,-0.283913,0.111921,-1.01687,0.559622,0,0,3.2527,5
1774389182331,0.0566241,0.984755,-0.283593,0.111638,-1.01378,0.563342,0,0,3.29904,5
1774389182345,0.0565287,0.984749,-0.283608,0.103235,-1.01387,0.555293,0,0,3.25115,5
1774389182358,0.0563093,0.984519,-0.283751,0.0957315,-1.01009,0.554547,0,0,3.29148,1
1774389182372,0.0563131,0.984588,-0.284133,0.0869361,-1.00225,0.551273,0,0,3.26694,1
1774389182385,0.0562954,0.984557,-0.284338,0.0816314,-1.00469,0.561457,0,0,3.27109,5
1774389182398,0.05646,0.984485,-0.28448,0.0723424,-1.00271,0.564646,0,0,3.27211,1
1774389182412,0.0563291,0.984438,-0.284585,0.0601489,-0.999992,0.572367,0,0,3.25427,1
1774389182426,0.0565776,0.984189,-0.284652,0.0520649,-0.996139,0.571091,0,0,4.2159,1
1774389182439,0.0565697,0.984208,-0.284632,0.0440062,-0.989933,0.57631,0,0,3.25163,1
1774389182453,0.0565301,0.984279,-0.284494,0.0346867,-0.988785,0.586802,0,0,3.29216,1
1774389182466,0.0562787,0.984316,-0.284705,0.012188,-0.982563,0.595849,0,0,3.26465,1
1774389182480,0.0563586,0.983934,-0.285098,-0.0107614,-0.976262,0.600963,0,0,3.6288,1
1774389182493,0.0565845,0.98391,-0.284898,-0.024288,-0.964748,0.589947,0,0,3.27024,1
1774389182507,0.0564054,0.983675,-0.285101,-0.0396249,-0.96544,0.575696,0,0,3.24796,1
1774389182520,0.0563196,0.984079,-0.285307,-0.0579553,-0.953249,0.578943,0,0,3.31076,1
1774389182533,0.0559919,0.984295,-0.285204,-0.0756856,-0.952874,0.586718,0,0,3.27591,1
1774389182547,0.0560417,0.984608,-0.284636,-0.0842858,-0.945669,0.585922,0,0,3.29372,1
1774389182560,0.0559611,0.984555,-0.284285,-0.0919754,-0.938012,0.583029,0,0,3.26085,1
1774389182574,0.055852,0.984729,-0.284547,-0.09538,-0.934638,0.589291,0,0,3.32657,1
1774389182587,0.056068,0.984596,-0.284606,-0.0951682,-0.940873,0.58364,0,0,3.26959,1
1774389182601,0.0559649,0.984469,-0.284641,-0.101819,-0.940336,0.588154,0,0,3.63541,1
1774389182614,0.0569768,0.984881,-0.284428,-0.0896851,-0.940686,0.589846,0,0,3.28355,1
1774389182628,0.0568126,0.984763,-0.284588,-0.0983564,-0.932452,0.588875,0,0,3.2654,1
1774389182641,0.0570827,0.984703,-0.28456,-0.0847038,-0.946945,0.592667,0,0,3.31098,1
1774389182655,0.05701,0.984913,-0.284436,-0.0722452,-0.943498,0.608664,0,0,3.26665,1
1774389182668,0.057154,0.984868,-0.284137,-0.0763283,-0.941101,0.61777,0,0,3.3102,1
1774389182681,0.0574625,0.984857,-0.284043,-0.0690496,-0.937982,0.612234,0,0,3.27224,1
1774389182695,0.0574159,0.984889,-0.284038,-0.0536154,-0.940605,0.626278,0,0,3.72539,1
1774389182709,0.0579906,0.985091,-0.284066,-0.0377624,-0.944364,0.627116,0,0,3.27446,1
1774389182722,0.0578141,0.985049,-0.284103,-0.0309341,-0.951767,0.625338,0,0,3.26628,1
1774389182735,0.0576026,0.985361,-0.283743,-0.00650509,-0.949334,0.616381,0,0,3.30046,5
1774389182749,0.057646,0.985628,-0.283634,0.0114154,-0.955602,0.610495,0,0,3.25527,1
1774389182762,0.0576661,0.985509,-0.283711,0.0142006,-0.964087,0.607508,0,0,3.31139,5
1774389182776,0.0584433,0.985459,-0.283913,0.0258215,-0.976378,0.604689,0,0,3.27105,5
1774389182790,0.0583111,0.985604,-0.283957,0.0235167,-0.970852,0.603741,0,0,3.86061,1
1774389182803,0.0575761,0.985582,-0.284244,0.0384687,-0.9742,0.613979,0,0,3.27287,5
1774389182816,0.0571401,0.985935,-0.28406,0.0491565,-0.961088,0.604374,0,0,3.25063,5
1774389182830,0.0574386,0.985814,-0.284311,0.0476837,-0.967125,0.614577,0,0,3.32741,5
1774389182843,0.0571154,0.985964,-0.284198,0.0548573,-0.953982,0.614359,0,0,3.2512,5
1774389182856,0.0572441,0.985959,-0.284229,0.0573467,-0.959133,0.612868,0,0,3.29157,5
1774389182870,0.0571537,0.98589,-0.283693,0.05884,-0.971273,0.617456,0,0,3.26944,5
1774389182883,0.0569711,0.986005,-0.283683,0.0641033,-0.978879,0.605515,0,0,3.31333,5
1774389182897,0.0570848,0.985859,-0.28395,0.0673585,-0.986059,0.602808,0,0,3.271,5
1774389182911,0.0569479,0.985677,-0.283875,0.0755694,-0.988981,0.601109,0,0,3.60658,1
1774389182924,0.0569878,0.985395,-0.283738,0.0687615,-0.995594,0.591798,0,0,3.28642,5
1774389182937,0.0570474,0.985415,-0.283726,0.0713273,-0.988562,0.592001,0,0,3.27157,1
1774389182951,0.057051,0.985444,-0.283991,0.0763183,-0.990488,0.589624,0,0,3.29805,1
1774389182964,0.0571398,0.985472,-0.284031,0.0853112,-0.993163,0.592518,0,0,3.25707,5
1774389182978,0.0574703,0.985456,-0.284038,0.0925151,-0.989264,0.588399,0,0,3.30604,5
1774389182991,0.0572098,0.985377,-0.28413,0.0877539,-0.996289,0.596072,0,0,3.26944,5
1774389183005,0.0571849,0.98592,-0.284036,0.0991026,-1.00121,0.580621,0,0,3.71689,5
1774389183018,0.0562215,0.985949,-0.284117,0.0892618,-1.00585,0.596009,0,0,3.27944,5
1774389183031,0.0556099,0.986232,-0.28365,0.108233,-1.0158,0.592122,0,0,3.2832,5
1774389183045,0.0553987,0.986087,-0.283651,0.0888885,-1.00207,0.608578,0,0,3.29504,1
1774389183058,0.0544494,0.985361,-0.28344,0.075767,-0.989105,0.627537,0,0,3.2522,5
1774389183072,0.054588,0.985713,-0.283141,0.0685198,-0.98886,0.625735,0,0,3.29972,5
1774389183085,0.0545069,0.985846,-0.283347,0.0668172,-0.989913,0.641162,0,0,3.26294,5
1774389183098,0.0542158,0.985985,-0.283543,0.04637,-0.978061,0.672423,0,0,3.3492,5
1774389183112,0.0539589,0.985434,-0.283603,0.0356335,-0.973297,0.68566,0,0,3.26711,1
1774389183125,0.05461,0.985975,-0.283917,0.0314938,-0.995348,0.66347,0,0,3.25194,5
1774389183139,0.0549444,0.986268,-0.284184,0.0155971,-0.98833,0.676781,0,0,3.28485,1
1774389183152,0.0549545,0.985694,-0.284013,0.000592049,-0.978708,0.677355,0,0,3.25277,5
1774389183165,0.0552311,0.986149,-0.284159,0.00826619,-1.00388,0.659057,0,0,3.28744,3
1774389183179,0.0552607,0.986584,-0.284566,0.00480522,-1.00794,0.657629,0,0,3.27446,1
1774389183192,0.0549367,0.98621,-0.284549,-0.00659716,-1.00065,0.654996,0,0,3.28326,1
1774389183206,0.0558013,0.986386,-0.284159,-0.00708349,-1.01346,0.650797,0,0,3.27159,3
1774389183219,0.0561476,0.986308,-0.284331,-0.00326066,-1.01399,0.63142,0,0,3.60295,1
1774389183233,0.0560411,0.985957,-0.284356,0.00591415,-1.0192,0.622978,0,0,3.3973,3
1774389183246,0.0566011,0.985824,-0.284199,0.0107206,-1.02883,0.618435,0,0,3.25435,3
1774389183260,0.0573716,0.985974,-0.283664,0.00198376,-1.02978,0.600445,0,0,3.28829,3
1774389183273,0.0578841,0.985658,-0.283922,0.00957984,-1.04352,0.582179,0,0,3.27024,1
1774389183286,0.0585344,0.985656,-0.28341,0.0133243,-1.05136,0.595339,0,0,3.30881,3
1774389183300,0.0589214,0.985429,-0.283465,0.0117206,-1.04933,0.587208,0,0,3.27616,1
1774389183314,0.0594943,0.985799,-0.283325,0.029047,-1.05855,0.583387,0,0,3.71482,1
1774389183327,0.0589958,0.98578,-0.283149,0.0287022,-1.05313,0.575498,0,0,3.27268,1
1774389183340,0.0579105,0.986156,-0.283621,0.0467888,-1.05828,0.575759,0,0,3.26778,5
1774389183354,0.0583568,0.986687,-0.283689,0.0437361,-1.07771,0.57258,0,0,3.28885,5
1774389183367,0.0574596,0.985518,-0.283731,0.0262963,-1.07892,0.565297,0,0,3.24959,5
1774389183381,0.057221,0.985799,-0.283719,0.0552225,-1.07492,0.562705,0,0,3.29822,1
1774389183394,0.0576013,0.986676,-0.283857,0.0731061,-1.0857,0.537993,0,0,3.27174,5
1774389183407,0.0575806,0.985828,-0.283753,0.0441706,-1.08047,0.554488,0,0,3.35059,5
1774389183421,0.0571658,0.985177,-0.284231,0.0643868,-1.07767,0.540084,0,0,3.26978,1
1774389183434,0.0573671,0.986402,-0.283983,0.0997402,-1.08187,0.542332,0,0,3.26991,5
1774389183448,0.0578798,0.986217,-0.284056,0.0586061,-1.09655,0.553874,0,0,3.29218,3
1774389183461,0.0575053,0.984994,-0.283858,0.0458986,-1.1074,0.553635,0,0,3.25779,5
1774389183474,0.0577238,0.985693,-0.284129,0.0621642,-1.11679,0.564542,0,0,3.28924,3
1774389183488,0.0577191,0.986127,-0.284056,0.0389807,-1.10425,0.599673,0,0,3.28072,1
1774389183501,0.0578001,0.985698,-0.284136,0.0209513,-1.10568,0.609283,0,0,3.32368,5
1774389183515,0.0579949,0.985555,-0.283658,0.017207,-1.10361,0.614928,0,0,3.27446,5
1774389183528,0.0580745,0.985567,-0.283584,0.0141009,-1.0948,0.636099,0,0,3.61746,1
1774389183542,0.0583428,0.985793,-0.283856,0.004318,-1.10233,0.628251,0,0,3.28437,5
1774389183555,0.05861,0.985752,-0.283828,-0.0203308,-1.10387,0.629835,0,0,3.25026,5
1774389183569,0.05657,0.985062,-0.284142,-0.0042039,-1.09633,0.636896,0,0,3.30002,5
1774389183582,0.0559752,0.98674,-0.284058,0.0242922,-1.08022,0.647844,0,0,3.2549,5
1774389183596,0.0561644,0.987309,-0.283551,0.00665851,-1.09884,0.635911,0,0,3.30196,5
1774389183609,0.0582139,0.985601,-0.283707,-0.0660785,-1.12841,0.621223,0,0,3.26802,3
1774389183623,0.0586576,0.984693,-0.283866,-0.0752176,-1.11307,0.633905,0,0,3.83669,3
1774389183636,0.0578754,0.985555,-0.284915,-0.0268952,-1.10972,0.637741,0,0,3.27426,5
1774389183650,0.0582698,0.987105,-0.284285,-0.0519342,-1.1147,0.670479,0,0,3.26822,3
1774389183663,0.0546858,0.985031,-0.284249,-0.094837,-1.07487,0.709943,0,0,3.29324,5
1774389183677,0.0545685,0.985472,-0.284299,-0.0728181,-1.07667,0.721931,0,0,3.2555,3
1774389183690,0.0551823,0.984987,-0.283963,-0.0897147,-1.04453,0.7538,0,0,3.28803,5
1774389183703,0.0561643,0.986198,-0.283385,-0.0761186,-1.04032,0.753908,0,0,3.2682,5
1774389183717,0.0570179,0.98645,-0.283922,-0.132651,-1.08388,0.722752,0,0,3.32359,3
1774389183730,0.057343,0.984288,-0.283954,-0.171883,-1.06633,0.766992,0,0,3.27789,3
1774389183744,0.0586683,0.985199,-0.283292,-0.144686,-1.06946,0.759938,0,0,3.66396,3
1774389183757,0.0612061,0.984565,-0.283512,-0.155839,-1.0677,0.728016,0,0,3.28274,5
1774389183771,0.0606221,0.984525,-0.283317,-0.165081,-1.05919,0.735993,0,0,3.25305,3
1774389183784,0.0586756,0.984123,-0.282586,-0.149398,-1.04603,0.759793,0,0,3.29915,5
1774389183798,0.0578926,0.985917,-0.282047,-0.144016,-1.05929,0.74886,0,0,3.2664,5
1774389183811,0.0598665,0.985241,-0.28182,-0.187748,-1.0748,0.735115,0,0,3.29907,3
1774389183825,0.0594478,0.984093,-0.281977,-0.185352,-1.07874,0.726423,0,0,3.26533,5
1774389183838,0.0595493,0.984265,-0.282041,-0.136847,-1.04949,0.725926,0,0,3.72778,3
1774389183852,0.0600306,0.986128,-0.281964,-0.105192,-1.04971,0.704903,0,0,3.28642,3
1774389183865,0.0607045,0.985678,-0.281516,-0.124983,-1.04093,0.723169,0,0,3.25498,5
1774389183879,0.0614023,0.985012,-0.280853,-0.128677,-1.04291,0.701445,0,0,3.28313,3
1774389183892,0.0616852,0.984813,-0.280433,-0.100906,-1.06834,0.693357,0,0,3.25583,3
1774389183905,0.060824,0.985787,-0.280735,-0.0772625,-1.04866,0.702422,0,0,3.29387,5
1774389183919,0.0599363,0.985736,-0.280534,-0.0754977,-1.02923,0.704555,0,0,3.26596,3
1774389183933,0.0591089,0.986029,-0.280426,-0.05542,-1.06399,0.668032,0,0,3.62311,3
1774389183946,0.0593746,0.986287,-0.280046,-0.0604469,-1.05441,0.655395,0,0,3.33041,3
1774389183959,0.0605149,0.985478,-0.280248,-0.0664764,-1.08732,0.619917,0,0,3.2465,5
1774389183973,0.0607833,0.985013,-0.27964,-0.0426228,-1.08799,0.635242,0,0,3.29948,5
1774389183986,0.060175,0.985797,-0.279519,-0.0201072,-1.12116,0.610743,0,0,3.25674,3
1774389184000,0.060896,0.986119,-0.279605,-0.018123,-1.1285,0.592328,0,0,3.31555,3
1774389184013,0.0611263,0.985477,-0.278994,-0.0269547,-1.10802,0.60235,0,0,3.25791,3
1774389184026,0.061197,0.985279,-0.27874,-0.0108844,-1.1118,0.577554,0,0,3.30444,5
1774389184040,0.061649,0.985688,-0.278487,0.0179864,-1.10468,0.569993,0,0,3.27396,5
1774389184054,0.0619532,0.985716,-0.278447,0.0195466,-1.1048,0.561571,0,0,3.73719,3
1774389184067,0.0620198,0.98554,-0.278463,0.0158811,-1.08865,0.567751,0,0,3.26907,3
1774389184081,0.0621476,0.985959,-0.278468,0.00985204,-1.07682,0.560311,0,0,3.25385,3
1774389184094,0.0621203,0.98574,-0.278963,-0.00440255,-1.07765,0.576411,0,0,3.31578,5
1774389184107,0.0613468,0.985712,-0.279138,-0.0217112,-1.06473,0.608735,0,0,3.26324,3
1774389184121,0.0610769,0.985633,-0.279369,-0.0534638,-1.04526,0.653376,0,0,3.32531,5
1774389184134,0.060317,0.985866,-0.279494,-0.0825788,-1.03801,0.695084,0,0,3.27318,1
1774389184148,0.0601349,0.985672,-0.2794,-0.141318,-1.02003,0.755863,0,0,3.97497,5
1774389184162,0.0599287,0.985402,-0.279406,-0.205755,-1.01934,0.847059,0,0,3.26652,5
1774389184175,0.0597529,0.985667,-0.279903,-0.278566,-0.999414,0.936565,0,0,3.24583,5
1774389184189,0.0589014,0.985909,-0.280218,-0.378123,-0.972471,1.03989,0,0,3.25944,5
1774389184202,0.0589841,0.986045,-0.279986,-0.504637,-0.931625,1.14085,0,0,3.24113,5
1774389184215,0.0589777,0.985823,-0.279924,-0.647606,-0.872945,1.23742,0,0,3.33955,5
1774389184229,0.059057,0.985439,-0.280152,-0.798826,-0.791009,1.34014,0,0,3.27409,5
1774389184242,0.0593143,0.986268,-0.279784,-0.927861,-0.693116,1.40756,0,0,3.28398,5
1774389184256,0.0602544,0.987648,-0.279047,-1.02568,-0.666227,1.36543,0,0,3.28363,5
1774389184269,0.0617833,0.989651,-0.277585,-1.02981,-0.633566,1.1698,0,0,3.64202,5
1774389184283,0.0652099,0.99383,-0.27546,-0.826459,-0.63999,0.708541,0,0,3.28739,5
1774389184296,0.0749034,1.01477,-0.269574,-0.00551152,-1.04898,-0.321169,0,0,3.26276,5
1774389184310,0.0848244,1.02372,-0.266188,1.6613,-1.91716,-2.18075,0,0,3.31185,3
1774389184323,0.0900727,1.04916,-0.263793,4.56028,-3.08262,-3.74334,0,0,3.26346,3
1774389184337,0.102192,1.05899,-0.252929,7.99802,-4.78131,-4.52633,0,0,3.30641,3
1774389184350,0.103776,1.06867,-0.227027,10.706,-6.58126,-4.25531,0,0,3.31039,3
1774389184364,0.0966541,1.06092,-0.191859,12.89,-7.94497,-3.95882,0,0,3.73098,3
1774389184377,0.0836721,1.04595,-0.148672,13.8938,-8.42548,-3.88577,0,0,3.2757,2
1774389184391,0.0707454,1.02968,-0.100701,13.6874,-8.02952,-3.95255,0,0,3.25257,3
1774389184404,0.0619074,1.01749,-0.0540062,12.3428,-7.02248,-3.68117,0,0,3.29191,3
1774389184418,0.0549933,1.0032,-0.0160262,9.73395,-5.69256,-2.75876,0,0,3.26466,3
1774389184431,0.0553643,0.992733,0.0148902,5.71878,-4.46507,-1.45947,0,0,3.30909,3
1774389184444,0.0601179,0.990296,0.0364683,0.644276,-3.53508,-0.415897,0,0,3.27476,3
1774389184458,0.0666389,0.993849,0.0485826,-4.72707,-3.05461,0.166215,0,0,3.67878,3
1774389184472,0.0725651,1.00052,0.0530456,-10.1542,-2.92652,0.633034,0,0,3.26987,3
1774389184485,0.0774207,1.00808,0.0511742,-15.5681,-2.99701,1.18371,0,0,3.25202,3
1774389184498,0.0814233,1.01693,0.0449111,-20.8351,-3.14191,1.67353,0,0,3.29615,3
1774389184512,0.0857206,1.02795,0.0357614,-25.5976,-3.33391,2.05965,0,0,3.27137,5
1774389184525,0.0892108,1.03786,0.0250047,-29.828,-3.60035,2.60567,0,0,3.2945,5
1774389184539,0.0913845,1.04628,0.0144301,-33.4858,-3.91179,3.4225,0,0,3.27137,5
1774389184552,0.0914559,1.05123,0.00460623,-36.8022,-4.17237,4.36779,0,0,3.49174,5
1774389184566,0.0887269,1.05274,-0.00335731,-40.0812,-4.27446,5.00999,0,0,3.27811,1
1774389184580,0.0848146,1.05309,-0.00817524,-43.3223,-4.16829,5.2034,0,0,3.62208,1
1774389184593,0.08102,1.05365,-0.0100492,-46.6398,-3.91178,5.29733,0,0,3.28016,5
1774389184606,0.080445,1.05539,-0.0104212,-49.7635,-3.68166,5.3346,0,0,3.26463,3
1774389184620,0.0806531,1.05658,-0.010606,-52.6302,-3.57705,5.49781,0,0,3.30702,3
1774389184633,0.0801262,1.0523,-0.0112312,-55.5729,-3.56909,5.74393,0,0,3.26209,3
1774389184647,0.0806259,1.04391,-0.0109429,-59.1003,-3.62752,5.65938,0,0,3.31137,3
1774389184660,0.0823743,1.04445,-0.0111797,-62.6649,-3.78543,5.32138,0,0,3.27718,3
1774389184675,0.0859894,1.04569,-0.0137764,-65.7705,-4.16442,5.19844,0,0,4.56423,3
1774389184688,0.0911548,1.04765,-0.0188754,-68.3302,-4.77264,5.41083,0,0,3.27559,3
1774389184702,0.0945034,1.05042,-0.0264633,-70.3387,-5.50261,5.76501,0,0,3.24431,3
1774389184716,0.0964777,1.05438,-0.0357267,-71.4446,-6.25029,6.00042,0,0,4.73707,3
1774389184730,0.096273,1.05208,-0.0465815,-72.1998,-6.89352,6.29371,0,0,3.23565,3
1774389184745,0.0960239,1.05372,-0.0576342,-72.2939,-7.35808,6.64676,0,0,4.8405,3
1774389184758,0.0942802,1.05401,-0.0695702,-71.7036,-7.60946,7.04723,0,0,3.27578,3
1774389184772,0.08973,1.05196,-0.0830342,-70.613,-7.53588,7.46806,0,0,3.28409,3
1774389184785,0.0844392,1.05175,-0.0964326,-68.9493,-7.08278,7.73682,0,0,3.28048,3
1774389184799,0.0785577,1.04949,-0.111829,-66.7175,-6.22775,7.91558,0,0,3.96597,3
1774389184813,0.0729868,1.04799,-0.127139,-64.0109,-5.07086,7.99182,0,0,3.27466,3
1774389184826,0.0688767,1.04568,-0.142538,-60.8045,-3.68813,7.9683,0,0,3.24039,3
1774389184839,0.0667721,1.04264,-0.157562,-57.2225,-2.20312,7.90928,0,0,3.2798,5
1774389184853,0.0637559,1.03864,-0.172014,-53.454,-0.646828,7.88953,0,0,3.24035,5
1774389184868,0.0608609,1.0373,-0.185173,-49.2477,1.02984,7.593,0,0,4.88576,5
1774389184881,0.0576655,1.03563,-0.198279,-44.7383,2.79229,7.23903,0,0,3.24072,5
1774389184894,0.0552183,1.0367,-0.210801,-39.9265,4.63958,6.90962,0,0,3.30622,5
1774389184908,0.0112811,1.14711,-0.0266576,-36.7487,7.94912,4.79816,0,0,3.27476,5
1774389184922,-0.0106301,0.922011,0.0503888,-25.4086,9.83043,3.06719,0,0,4.00812,5
1774389184935,-0.0131868,1.05661,0.0738845,-9.953,11.7184,0.903653,0,0,3.27974,5
1774389184949,-0.0391849,1.01854,0.0614178,1.43669,13.3467,0.744205,0,0,3.24876,5
1774389184963,-0.0405141,1.01312,0.0570022,14.0219,15.8754,2.6567,0,0,3.30361,5
1774389184976,-0.0289837,1.01795,0.050025,24.5604,16.5517,3.78154,0,0,3.23633,5
1774389184991,-0.0201249,1.01871,0.0415059,33.1574,15.9983,4.75678,0,0,4.87402,5
1774389185004,-0.0189031,1.00974,0.0289605,39.7675,14.856,5.91454,0,0,3.24181,5
1774389185018,-0.0185569,1.00518,0.0161416,44.2354,14.1782,7.38587,0,0,3.29187,5
1774389185031,-0.0151188,0.998523,0.00337079,47.2177,14.1163,8.25057,0,0,3.27574,2
1774389185045,-0.00863874,0.995332,-0.00688764,49.3208,14.1967,8.01771,0,0,4.14743,5
1774389185059,-0.00188684,0.992215,-0.0180321,50.2885,14.3724,7.54786,0,0,3.30909,5
1774389185072,0.0051143,0.989171,-0.0292656,50.6624,14.1494,7.14974,0,0,3.25,5
1774389185086,0.0103999,0.986495,-0.0402108,50.4085,13.5728,6.90541,0,0,3.92258,5
1774389185099,0.0140877,0.98447,-0.0496844,49.6466,12.9442,6.71418,0,0,3.25848,5
1774389185113,0.0181054,0.983836,-0.0579856,48.7133,12.2511,6.60261,0,0,3.31413,5
1774389185126,0.0219687,0.983592,-0.065486,47.6512,11.5215,6.58808,0,0,3.27366,5
1774389185140,0.0264532,0.982602,-0.0728399,46.3091,10.7841,6.44462,0,0,3.66198,5
1774389185153,0.02914,0.983096,-0.0805022,44.9909,10.2241,6.18932,0,0,3.27468,5
1774389185167,0.0339515,0.981742,-0.0890145,43.5005,9.65833,5.75479,0,0,3.27055,5
1774389185180,0.0390009,0.980693,-0.0964498,41.9138,9.02665,5.1905,0,0,3.29507,5
1774389185194,0.0418117,0.980919,-0.103293,40.3712,8.58584,4.39366,0,0,3.24966,5
1774389185207,0.0448304,0.980408,-0.11115,38.8783,8.27423,3.38375,0,0,3.29724,5
1774389185221,0.0470552,0.980613,-0.117682,37.4472,8.03576,2.33073,0,0,3.27402,5
1774389185234,0.0507843,0.981568,-0.123767,36.0999,7.89545,1.15479,0,0,3.32324,5
1774389185247,0.0535388,0.982374,-0.130345,34.9232,7.75145,-0.0725138,0,0,3.27398,5
1774389185261,0.0547421,0.981767,-0.136784,33.792,7.57228,-1.06912,0,0,3.73267,5
1774389185275,0.0552629,0.980985,-0.145301,32.5264,7.37875,-1.74178,0,0,3.28339,5
1774389185288,0.0542554,0.982361,-0.153873,31.1399,7.16825,-1.87786,0,0,3.25459,5
1774389185301,0.0526087,0.982246,-0.160405,29.6279,6.94814,-1.78281,0,0,3.31096,5
1774389185315,0.0513437,0.982894,-0.166682,28.2216,6.7391,-1.51453,0,0,3.26978,5
1774389185328,0.0539029,0.985671,-0.171938,26.9948,6.48355,-1.26344,0,0,3.30544,5
1774389185342,0.0547914,0.986938,-0.177242,26.045,6.20508,-0.935657,0,0,3.2752,5
1774389185356,0.0591003,0.991876,-0.182239,25.1642,5.83904,-0.765851,0,0,3.72334,5
1774389185369,0.0555868,0.994292,-0.186537,24.5513,5.56889,-0.803391,0,0,3.27911,5
1774389185382,0.054373,1.00124,-0.191352,24.8304,5.39996,-0.734349,0,0,3.25546,5
1774389185396,0.0559136,1.00768,-0.195945,25.4607,5.24222,-0.474782,0,0,3.30637,5
1774389185409,0.0570344,1.01058,-0.199313,26.001,5.06935,0.40394,0,0,3.26216,5
1774389185423,0.0593127,1.01563,-0.20312,26.895,4.91131,1.40422,0,0,3.30239,5
1774389185436,0.0618117,1.01687,-0.208235,27.8082,4.73345,2.32827,0,0,3.27409,5
1774389185450,0.0642548,1.01776,-0.213553,28.7909,4.48378,3.13069,0,0,3.64493,5
1774389185463,0.0652137,1.01545,-0.219332,29.6282,4.26824,3.88895,0,0,3.27392,5
1774389185477,0.0684155,1.0155,-0.224613,30.541,4.02754,4.55544,0,0,3.27581,5
1774389185490,0.071093,1.01397,-0.230421,31.4462,3.76309,5.14173,0,0,3.29044,5
1774389185504,0.073664,1.01341,-0.23574,32.4039,3.44882,5.64247,0,0,3.26044,5
1774389185517,0.0751723,1.01234,-0.241542,33.2646,3.13633,6.086,0,0,3.32244,5
1774389185530,0.0782056,1.01163,-0.247581,34.1913,2.79983,6.46312,0,0,3.27192,5
1774389185544,0.0795901,1.01026,-0.254189,35.0211,2.49335,6.79981,0,0,3.32513,5
1774389185557,0.0806471,1.00853,-0.261565,35.8763,2.19035,7.07438,0,0,3.27748,5
1774389185571,0.0828964,1.00495,-0.268373,36.636,1.88722,7.35152,0,0,3.73939,5
1774389185585,0.0842465,1.00213,-0.275588,37.2931,1.57541,7.60328,0,0,3.27368,5
1774389185598,0.0866587,0.999359,-0.282466,37.9155,1.24554,7.78653,0,0,3.26918,5
1774389185611,0.0893071,0.996867,-0.289833,38.5403,0.874232,7.91111,0,0,3.30116,5
1774389185625,0.0908253,0.995114,-0.297818,39.16,0.498488,8.05141,0,0,3.2813,5
1774389185638,0.0917967,0.993288,-0.304717,39.8331,0.118558,8.18983,0,0,3.30226,5
1774389185652,0.095288,0.992589,-0.312339,40.5515,-0.2923,8.32733,0,0,3.27602,5
1774389185665,0.0947937,0.991055,-0.320417,41.2678,-0.692958,8.52435,0,0,3.65934,5
1774389185679,0.0970863,0.990155,-0.328175,42.116,-1.11482,8.76983,0,0,3.27598,5
1774389185692,0.0975383,0.99098,-0.335999,43.06,-1.58666,9.09446,0,0,3.25844,5
1774389185706,0.0985791,0.992282,-0.342947,44.1922,-2.05002,9.42657,0,0,3.29865,5
1774389185719,0.0997452,0.993869,-0.350178,45.5542,-2.56232,9.82056,0,0,3.25859,5
1774389185732,0.0994403,0.995354,-0.358204,47.1357,-3.05403,10.3192,0,0,3.30026,5
1774389185746,0.0975472,0.996294,-0.36653,48.8841,-3.46034,10.9153,0,0,3.27729,5
1774389185759,0.0967299,0.998474,-0.373979,50.9232,-3.75223,11.6206,0,0,3.29385,5
1774389185773,0.0971655,1.0009,-0.38138,53.1523,-4.0406,12.4584,0,0,3.28187,5
1774389185787,0.099034,1.00591,-0.388842,55.7399,-4.35175,13.3653,0,0,3.62472,1
1774389185800,0.105316,1.01197,-0.394792,58.7351,-4.85313,14.2984,0,0,3.28359,1
1774389185813,0.110992,1.0217,-0.401176,62.2221,-5.56659,15.2215,0,0,3.25991,1
1774389185827,0.121011,1.03524,-0.405487,66.5065,-6.50079,16.1335,0,0,3.316,5
1774389185840,0.131435,1.05413,-0.408521,71.5418,-7.89728,17.0873,0,0,3.27072,5
1774389185854,0.137378,1.08072,-0.411048,77.9411,-9.48391,17.8767,0,0,3.32459,5
1774389185867,0.143809,1.11082,-0.416283,85.3327,-11.2658,18.4664,0,0,3.27033,3
1774389185881,0.144118,1.13848,-0.424023,93.8234,-12.777,18.6393,0,0,3.85447,4
1774389185895,0.139513,1.16601,-0.439709,102.591,-13.7247,18.5701,0,0,3.27476,4
1774389185908,0.141996,1.18693,-0.456909,110.867,-14.3396,18.6481,0,0,3.25237,4
1774389185921,0.150157,1.19121,-0.476379,118.678,-15.1225,18.8036,0,0,3.30053,4
1774389185935,0.163578,1.20068,-0.494036,126.052,-16.1167,18.7393,0,0,3.28709,4
1774389185948,0.175514,1.20178,-0.508732,133.012,-17.3455,18.8948,0,0,3.286,4
1774389185962,0.189032,1.20091,-0.522732,139.581,-18.9982,20.0152,0,0,3.26924,4
1774389185975,0.207479,1.18491,-0.526435,145.679,-20.899,21.0686,0,0,3.34363,4
1774389185992,0.229016,1.15085,-0.507139,150.165,-23.4216,22.6469,0,0,6.13942,3
1774389186005,0.277862,0.991172,-0.393748,147.956,-28.3961,26.5854,0,0,3.33826,4
1774389186018,0.271935,0.891473,-0.383842,131.616,-35.8196,30.3806,0,0,3.28068,3
1774389186033,0.249686,0.853458,-0.34535,113.691,-41.6895,31.4348,0,0,3.29802,4
1774389186046,0.210932,0.857347,-0.316623,94.9225,-45.1213,29.0036,0,0,3.28735,3
1774389186063,0.171161,0.85388,-0.296605,78.1479,-45.1312,25.2097,0,0,3.29146,3
1774389186080,0.137806,0.844532,-0.276352,62.1058,-42.8715,21.6106,0,0,6.66435,2
1774389186093,0.116895,0.835498,-0.258127,46.3935,-38.6329,18.3945,0,0,3.24961,2
1774389186107,0.105826,0.824349,-0.240176,31.0505,-33.6098,15.2376,0,0,3.29113,2
1774389186120,0.103386,0.815481,-0.223726,16.0286,-28.5282,12.0407,0,0,3.25427,2
1774389186135,0.106873,0.81328,-0.209148,1.50807,-23.8634,9.29589,0,0,4.80774,2
1774389186149,0.117008,0.807533,-0.196061,-12.6073,-20.4075,7.47791,0,0,3.24616,2
1774389186162,0.130436,0.805284,-0.186152,-25.931,-18.1778,6.62513,0,0,3.29572,2
1774389186176,0.142242,0.813202,-0.180296,-38.5072,-17.156,6.74892,0,0,3.45335,2
1774389186190,0.147136,0.826603,-0.178978,-50.3781,-16.9533,7.66648,0,0,4.14108,2
1774389186203,0.140606,0.842652,-0.182191,-61.5831,-16.9358,9.09692,0,0,3.28076,3
1774389186217,0.122733,0.85594,-0.187323,-72.1595,-16.3797,10.621,0,0,3.24359,5
1774389186231,0.0993432,0.870248,-0.191922,-82.1427,-14.7502,11.5817,0,0,3.29533,5
1774389186245,0.078994,0.886844,-0.194558,-91.566,-12.1677,11.8256,0,0,3.24953,5
1774389186258,0.0676919,0.908823,-0.196919,-100.461,-9.1451,11.7318,0,0,3.27139,5
1774389186271,0.0671232,0.938349,-0.201098,-108.856,-6.23514,11.8612,0,0,3.26179,5
1774389186285,0.0770854,0.971923,-0.207817,-116.781,-3.99153,12.2723,0,0,3.33279,5
1774389186298,0.0916514,1.00605,-0.217061,-124.261,-2.73228,12.8886,0,0,3.276,5
1774389186311,0.104374,1.03783,-0.228965,-131.322,-2.37349,13.7491,0,0,3.25181,5
1774389186325,0.111682,1.07465,-0.242761,-137.987,-2.60988,14.7651,0,0,3.27355,5
1774389186338,0.108987,1.11459,-0.259669,-144.278,-2.95976,15.9584,0,0,3.25322,5
1774389186352,0.103697,1.14952,-0.278839,-150.215,-2.92476,16.949,0,0,3.31872,5
1774389186365,0.108505,1.17988,-0.300896,-155.82,-2.68449,17.0769,0,0,3.2672,5
1774389186379,0.123373,1.20866,-0.32753,-160.454,-2.82293,17.553,0,0,3.73126,5
1774389186392,0.142673,1.23735,-0.359362,-163.157,-3.70808,20.0508,0,0,3.26722,5
1774389186406,0.159763,1.25925,-0.396454,-163.674,-5.54168,24.4223,0,0,3.27413,3
1774389186419,0.156342,1.27185,-0.438853,-162.295,-7.77897,28.9044,0,0,3.27115,3
1774389186432,0.132753,1.27765,-0.487011,-159.209,-9.305,31.2605,0,0,3.24305,1
1774389186446,0.105091,1.28224,-0.539213,-154.306,-9.50927,30.5651,0,0,3.3027,1
1774389186459,0.0820672,1.28514,-0.591405,-147.462,-8.61577,28.3103,0,0,3.24433,3
1774389186472,0.0615981,1.28505,-0.641059,-139.148,-6.7336,26.2641,0,0,3.29424,1
1774389186486,0.039152,1.28663,-0.683534,-129.597,-3.65747,23.9392,0,0,3.27711,5
1774389186499,0.0115163,1.29218,-0.717884,-118.924,1.00126,21.0717,0,0,3.27611,5
1774389186512,0.0291634,1.4106,-0.647017,-98.2232,4.87584,21.4761,0,0,3.28007,5
1774389186526,0.0887035,1.18821,-0.550443,-84.3379,7.83815,19.577,0,0,3.24552,5
1774389186539,0.0931096,1.31117,-0.504632,-65.5768,9.0196,13.7131,0,0,3.29157,2
1774389186553,0.0732038,1.22378,-0.489824,-47.868,10.9809,9.59722,0,0,3.23955,5
1774389186566,0.0641408,1.23106,-0.470581,-31.5868,13.0993,7.12606,0,0,3.27391,5
1774389186580,0.0576736,1.21652,-0.450898,-17.1638,14.5286,5.39297,0,0,3.70671,5
1774389186593,0.0515746,1.20983,-0.44224,-5.50796,15.3099,4.54196,0,0,3.304,5
1774389186606,0.0555545,1.19156,-0.438456,3.48761,15.1898,4.54967,0,0,3.27205,5
1774389186620,0.0568725,1.17852,-0.433044,10.0004,14.6944,5.42787,0,0,3.24628,5
1774389186633,0.0542145,1.16161,-0.427655,14.6025,14.4123,6.06842,0,0,3.30422,5
1774389186647,0.0563812,1.14866,-0.420259,17.6161,14.4452,6.28296,0,0,3.24442,5
1774389186660,0.0618378,1.13912,-0.411895,19.8488,14.3201,6.27008,0,0,3.27122,5
1774389186673,0.0663938,1.12942,-0.404153,21.3872,13.8375,6.16673,0,0,3.26222,5
1774389186687,0.0678784,1.12134,-0.396878,22.4055,13.3298,5.98182,0,0,3.32183,5
1774389186700,0.0683372,1.11434,-0.389579,22.9142,13.0219,5.58377,0,0,3.26604,5
1774389186713,0.0695019,1.1077,-0.382012,23.2538,12.6665,5.16608,0,0,3.25583,5
1774389186727,0.071235,1.10168,-0.377862,23.3342,12.2065,4.81251,0,0,3.27522,5
1774389186740,0.074387,1.09577,-0.372611,23.1588,11.7244,4.39526,0,0,3.25353,5
1774389186754,0.0773585,1.08851,-0.369855,22.8004,11.3155,3.75822,0,0,3.29837,5
1774389186767,0.0804136,1.08402,-0.366706,22.2995,10.9642,2.98948,0,0,3.25331,5
1774389186780,0.0810716,1.07864,-0.360748,21.6803,10.6353,2.11786,0,0,3.30846,5
1774389186794,0.0814552,1.07434,-0.35615,20.9583,10.4001,1.20092,0,0,3.27996,5
1774389186807,0.0824413,1.07108,-0.351956,20.2897,10.1935,0.277615,0,0,3.286,5
1774389186821,0.081644,1.06684,-0.34817,19.5956,10.0281,-0.576774,0,0,3.27502,5
1774389186834,0.0836682,1.06512,-0.344048,19.0629,9.88437,-1.42178,0,0,3.26337,5
1774389186847,0.0831055,1.06094,-0.339913,18.5383,9.7487,-2.17057,0,0,3.30922,5
1774389186861,0.0822364,1.059,-0.338127,17.9973,9.55598,-2.7459,0,0,3.25415,5
1774389186874,0.0785972,1.05251,-0.335907,17.2014,9.28415,-2.88433,0,0,3.29868,5
1774389186888,0.0763131,1.05259,-0.333442,16.5453,8.97276,-2.86555,0,0,3.28126,5
1774389186901,0.0747054,1.0486,-0.330967,15.753,8.68869,-2.65429,0,0,3.29072,5
1774389186914,0.0754315,1.04859,-0.327981,15.1956,8.37474,-2.42491,0,0,3.27272,5
1774389186928,0.0775565,1.04672,-0.324998,14.8078,8.02744,-2.28289,0,0,3.25309,5
1774389186941,0.0779124,1.04847,-0.322017,14.6649,7.67864,-2.18353,0,0,3.29413,5
1774389186954,0.0794912,1.04832,-0.318718,14.7552,7.26976,-2.28456,0,0,3.24811,5
1774389186968,0.0789083,1.04913,-0.316888,15.2198,6.8637,-2.45401,0,0,3.29505,5
1774389186981,0.0793224,1.04996,-0.315681,15.8639,6.41661,-2.66319,0,0,3.26324,5
1774389186995,0.0786295,1.04994,-0.314101,16.6919,6.03956,-2.66623,0,0,3.33,5
1774389187008,0.0761197,1.04826,-0.313294,17.554,5.75003,-2.64514,0,0,3.29804,5
1774389187021,0.075065,1.04744,-0.312608,18.4363,5.49258,-2.45266,0,0,3.26705,5
1774389187035,0.072647,1.04857,-0.312379,19.4193,5.28425,-2.09328,0,0,3.31561,5
1774389187048,0.0710822,1.04849,-0.312331,20.2826,5.10003,-1.55153,0,0,3.26911,5
1774389187062,0.0711873,1.04732,-0.312007,21.1942,4.94456,-0.914285,0,0,3.28981,5
1774389187075,0.073167,1.04816,-0.311944,22.2302,4.74899,-0.351318,0,0,3.29116,5
1774389187089,0.0734799,1.04608,-0.312299,23.2458,4.52971,0.101713,0,0,3.33581,5
1774389187102,0.0742703,1.0446,-0.312991,24.2185,4.29275,0.491652,0,0,3.35079,5
1774389187116,0.0757948,1.04346,-0.31424,25.1868,4.0207,0.866141,0,0,3.27135,5
1774389187129,0.0766121,1.04426,-0.315541,26.2151,3.73523,1.21149,0,0,3.29711,5
1774389187143,0.0771694,1.04371,-0.317811,27.2358,3.46533,1.5486,0,0,3.28854,5
1774389187156,0.0782789,1.04403,-0.319319,28.3398,3.14121,1.82355,0,0,3.32763,5
1774389187169,0.07887,1.04329,-0.321967,29.5051,2.79588,2.0591,0,0,3.2837,5
1774389187183,0.0788802,1.04233,-0.324917,30.6906,2.43609,2.37864,0,0,3.32494,5
1774389187196,0.0781104,1.04357,-0.328207,31.9626,2.07037,2.71579,0,0,3.29615,5
1774389187210,0.07841,1.04466,-0.331438,33.3593,1.68962,3.08456,0,0,3.28479,5
1774389187223,0.0782054,1.0459,-0.335009,34.9166,1.26899,3.45748,0,0,3.30116,5
1774389187236,0.0755326,1.04728,-0.339245,36.6134,0.895084,3.95592,0,0,3.27448,5
1774389187250,0.0750908,1.04975,-0.342976,38.4429,0.507466,4.48591,0,0,3.32524,5
1774389187263,0.0748178,1.05265,-0.346811,40.5517,0.0658011,5.05512,0,0,3.2702,5
1774389187277,0.0740869,1.05542,-0.350446,42.8745,-0.395621,5.77738,0,0,3.28598,5
1774389187290,0.0748507,1.05957,-0.354563,45.5218,-0.922793,6.69419,0,0,3.31387,5
1774389187303,0.0753463,1.06512,-0.357912,48.4979,-1.53301,7.72058,0,0,3.28826,5
1774389187317,0.0755745,1.07188,-0.361948,51.9131,-2.29012,8.8945,0,0,3.31768,5
1774389187330,0.0751522,1.08242,-0.364313,55.8093,-2.98634,10.197,0,0,3.27894,5
1774389187344,0.0845284,1.09483,-0.365261,60.4744,-4.03231,11.5197,0,0,3.29672,5
1774389187357,0.0925977,1.1088,-0.3659,65.872,-5.51888,12.9014,0,0,3.29198,5
1774389187371,0.091858,1.12935,-0.364686,72.159,-7.2068,14.5859,0,0,3.28409,5
1774389187384,0.0948449,1.15446,-0.363247,79.7855,-8.88611,16.1159,0,0,3.29089,5
1774389187398,0.0933449,1.18165,-0.361957,88.5094,-10.6142,17.2621,0,0,3.40633,5
1774389187411,0.0890599,1.21051,-0.367481,97.5751,-11.7286,17.4169,0,0,3.30048,5
1774389187424,0.0855708,1.23401,-0.378508,106.132,-12.1455,16.9285,0,0,3.25172,5
1774389187438,0.101602,1.26358,-0.397231,114.209,-12.6391,16.0954,0,0,3.31961,3
1774389187451,0.125111,1.26867,-0.4212,121.834,-13.6609,14.7546,0,0,3.24824,3
1774389187465,0.14568,1.27523,-0.434971,129.03,-15.3648,13.4658,0,0,3.27672,3
1774389187478,0.159574,1.27916,-0.44547,135.823,-17.1967,13.3562,0,0,3.26772,3
1774389187491,0.178829,1.27362,-0.448955,142.234,-19.2962,13.6578,0,0,3.27668,3
1774389187505,0.19612,1.25012,-0.439613,148.278,-21.8843,14.446,0,0,3.28113,3
1774389187518,0.212794,1.1929,-0.40386,152.498,-25.0281,15.8995,0,0,3.27324,4
1774389187531,0.277191,0.986444,-0.358481,147.469,-31.6869,19.4094,0,0,3.27572,3
1774389187545,0.258897,0.932841,-0.340049,132.704,-38.0339,21.9393,0,0,3.2554,3
1774389187558,0.2374,0.885949,-0.30755,116.534,-43.0294,20.9968,0,0,3.30244,3
1774389187572,0.199621,0.877847,-0.281918,99.4274,-45.7373,18.0849,0,0,3.2557,3
1774389187585,0.167007,0.87248,-0.260909,83.5665,-46.0839,14.9904,0,0,3.28617,3
1774389187598,0.140773,0.870241,-0.241534,68.7332,-44.4234,12.5717,0,0,3.28148,2
1774389187612,0.12221,0.857253,-0.226647,54.4484,-41.1446,10.8889,0,0,3.2767,2
1774389187625,0.108612,0.836291,-0.212934,39.8547,-36.566,9.60546,0,0,3.27659,2
1774389187638,0.0986521,0.81442,-0.199137,24.5162,-31.0359,8.18974,0,0,3.24746,2
1774389187652,0.0966974,0.803787,-0.184012,9.11022,-25.0097,6.58153,0,0,3.31439,2
1774389187665,0.101448,0.798178,-0.170082,-5.43161,-19.2604,5.42921,0,0,3.25255,2
1774389187679,0.111639,0.788683,-0.156269,-19.1577,-14.1105,5.33363,0,0,3.28679,2
1774389187692,0.122238,0.786746,-0.14352,-32.114,-9.76337,6.54638,0,0,3.26687,3
1774389187705,0.129993,0.800225,-0.133966,-44.3434,-6.08568,8.52649,0,0,3.35602,3
1774389187719,0.134397,0.817664,-0.128737,-55.8869,-2.8896,10.33,0,0,3.27587,3
1774389187732,0.133207,0.834414,-0.126246,-66.7829,0.044137,11.5246,0,0,3.26276,5
1774389187746,0.128332,0.847357,-0.123448,-77.0677,2.78334,12.0826,0,0,3.29142,5
1774389187759,0.122559,0.863684,-0.118028,-86.7756,5.30124,12.3507,0,0,3.24953,5
1774389187772,0.118684,0.888042,-0.112322,-95.9389,7.45482,12.5494,0,0,3.28039,5
1774389187786,0.119931,0.9171,-0.10836,-104.588,9.06583,12.388,0,0,3.26498,5
1774389187800,0.12705,0.957198,-0.108564,-112.752,9.85172,11.5039,0,0,3.70715,5
1774389187813,0.140275,0.99898,-0.111386,-120.459,9.59028,10.1799,0,0,3.27316,5
1774389187826,0.157779,1.0395,-0.116904,-127.733,8.17841,8.99618,0,0,3.25061,5
1774389187840,0.177069,1.07837,-0.125105,-134.599,5.67721,8.24279,0,0,3.29224,5
1774389187853,0.189056,1.12026,-0.138329,-141.08,2.62265,8.37432,0,0,3.25798,5
1774389187866,0.191668,1.16562,-0.156218,-147.197,-0.228884,9.7779,0,0,3.28926,5
1774389187880,0.187909,1.2095,-0.180947,-152.971,-2.40622,12.3111,0,0,3.27528,3
1774389187893,0.182649,1.23665,-0.210787,-158.408,-3.86753,15.8313,0,0,3.3038,3
1774389187907,0.181986,1.26314,-0.245355,-162.765,-4.94756,20.0918,0,0,3.2735,3
1774389187920,0.186914,1.29792,-0.288949,-164.736,-6.26803,24.5689,0,0,3.61796,3
1774389187934,0.178142,1.32406,-0.344046,-163.874,-7.7508,28.6579,0,0,3.28531,3
1774389187947,0.1492,1.33749,-0.408009,-160.756,-8.41819,30.8741,0,0,3.25927,3
1774389187960,0.11294,1.34965,-0.477012,-155.328,-7.71434,30.6589,0,0,3.31661,3
1774389187974,0.0758209,1.35882,-0.547396,-147.443,-5.60442,28.9096,0,0,3.26455,2
1774389187987,0.0400687,1.36173,-0.611306,-138.022,-2.06795,26.5952,0,0,3.30424,2
1774389188001,0.00582658,1.37113,-0.663453,-127.027,2.90197,23.8523,0,0,3.31315,5
1774389188015,0.0592658,1.48609,-0.459514,-120.244,6.84036,24.1008,0,0,3.73126,3
1774389188028,0.0855336,1.27994,-0.340657,-99.4687,9.4925,22.0591,0,0,3.26981,5
1774389188041,0.103851,1.37949,-0.284482,-79.8589,10.3795,15.8312,0,0,3.25155,5
1774389188055,0.0959145,1.31242,-0.282963,-61.349,9.15071,9.24064,0,0,3.3029,2
1774389188068,0.0721813,1.26787,-0.278778,-44.3176,10.1558,6.19215,0,0,3.25735,5
1774389188081,0.0718753,1.28656,-0.266725,-28.1935,10.7842,3.79381,0,0,3.31587,5
1774389188095,0.0612582,1.26977,-0.266463,-13.8941,11.0344,2.72206,0,0,3.27329,5
1774389188109,0.0676546,1.24659,-0.274167,-4.41572,10.6638,3.08063,0,0,3.80837,5
1774389188122,0.0671302,1.22737,-0.276858,2.73176,10.123,3.75221,0,0,3.26889,5
1774389188135,0.067547,1.20669,-0.276783,7.46414,10.2227,4.40754,0,0,3.26063,5
1774389188149,0.0701129,1.19187,-0.274961,10.9008,10.4774,4.58764,0,0,3.29435,5
1774389188162,0.0746487,1.17776,-0.271905,13.1925,10.386,4.65616,0,0,3.25983,5
1774389188176,0.0778436,1.16948,-0.268672,15.0071,10.0025,4.68058,0,0,3.28883,5
1774389188189,0.0785713,1.15798,-0.266361,16.1456,9.71162,4.58674,0,0,3.27468,5
1774389188202,0.077388,1.15065,-0.261898,16.8645,9.70296,4.31918,0,0,3.33142,5
1774389188216,0.0759575,1.1421,-0.258954,17.2545,9.77871,3.95402,0,0,3.2685,5
1774389188230,0.0784866,1.13611,-0.257121,17.4804,9.78984,3.53269,0,0,3.58385,5
1774389188243,0.0800296,1.12514,-0.257749,17.3246,9.76994,2.81729,0,0,3.29698,5
1774389188256,0.0815799,1.11587,-0.257197,16.8161,9.73874,2.10733,0,0,3.26096,5
1774389188270,0.0830623,1.11144,-0.254821,16.2308,9.71743,1.3811,0,0,3.32702,5
1774389188283,0.0823553,1.10476,-0.25382,15.5413,9.70502,0.761545,0,0,3.26811,5
1774389188297,0.0821382,1.09997,-0.25218,14.7955,9.68003,0.215281,0,0,3.27607,5
1774389188310,0.084365,1.09561,-0.251337,14.1553,9.69455,-0.308906,0,0,3.29013,5
1774389188324,0.0836864,1.09057,-0.250222,13.5492,9.68214,-0.790415,0,0,3.70846,5
1774389188337,0.0842547,1.08722,-0.248963,13.0945,9.5621,-1.2188,0,0,3.27468,5
1774389188350,0.0842428,1.08242,-0.247791,12.6914,9.3777,-1.53666,0,0,3.25239,5
1774389188364,0.0847013,1.0808,-0.246436,12.4998,9.17411,-1.83968,0,0,3.31915,5
1774389188377,0.0852038,1.07613,-0.245396,12.339,8.91386,-2.21477,0,0,3.26285,5
1774389188391,0.0846273,1.07238,-0.245287,12.1744,8.56115,-2.46007,0,0,3.30405,5
1774389188404,0.0842041,1.06979,-0.242899,11.954,8.19655,-2.5777,0,0,3.26896,5
1774389188418,0.0844935,1.06935,-0.241587,12.0169,7.74877,-2.69345,0,0,3.78384,5
1774389188431,0.0826668,1.06584,-0.241015,12.0566,7.35352,-2.66397,0,0,3.27213,5
1774389188445,0.0804396,1.06561,-0.239988,12.3648,6.97059,-2.47558,0,0,3.24885,5
1774389188458,0.0798366,1.06392,-0.239433,12.7044,6.63011,-2.22924,0,0,3.28494,5
1774389188471,0.0807547,1.06368,-0.2395,13.2211,6.33871,-1.99458,0,0,3.25326,5
1774389188485,0.0827323,1.06129,-0.23934,13.9032,6.03155,-2.02272,0,0,3.29041,5
1774389188498,0.0845274,1.06057,-0.239635,14.6627,5.64612,-2.33145,0,0,3.26594,5
1774389188512,0.0881338,1.05855,-0.240355,15.4541,5.22879,-2.80956,0,0,3.30741,5
1774389188525,0.0870875,1.05675,-0.241621,16.3505,4.86185,-3.23087,0,0,3.26965,5
1774389188539,0.0867917,1.05566,-0.242841,17.1422,4.53604,-3.57246,0,0,3.55669,5
1774389188552,0.0851528,1.0556,-0.244233,18.0553,4.24778,-3.8328,0,0,3.29081,5
1774389188566,0.082347,1.05444,-0.246044,18.9068,4.0155,-3.93424,0,0,3.25389,5
1774389188579,0.079963,1.0556,-0.247765,19.744,3.88832,-3.94563,0,0,3.298,5
1774389188592,0.079637,1.05817,-0.249304,20.8725,3.77598,-4.05958,0,0,3.25974,5
1774389188606,0.0788555,1.05877,-0.251438,22.1159,3.66951,-4.10034,0,0,3.2982,5
1774389188619,0.0790585,1.05784,-0.253126,23.313,3.50992,-4.06517,0,0,3.28124,5
1774389188633,0.0792632,1.05834,-0.255819,24.4978,3.32289,-4.04524,0,0,3.72298,5
1774389188646,0.0768005,1.05582,-0.258789,25.5883,3.11894,-3.91083,0,0,3.27035,5
1774389188660,0.0749045,1.05551,-0.262024,26.5804,2.96112,-3.65806,0,0,3.25485,5
1774389188673,0.0723014,1.05588,-0.265459,27.6799,2.81515,-3.26661,0,0,3.29865,5
1774389188686,0.0709759,1.05751,-0.269086,28.8399,2.68293,-2.82946,0,0,3.25331,5
1774389188700,0.070317,1.0583,-0.272543,30.1634,2.52473,-2.34747,0,0,3.31411,5
1774389188713,0.0706264,1.05979,-0.276714,31.5325,2.34415,-1.82315,0,0,3.31313,5
1774389188727,0.0699614,1.06077,-0.280671,33.033,2.14115,-1.2563,0,0,3.79006,5
1774389188741,0.0677453,1.06234,-0.28486,34.6386,1.89131,-0.608637,0,0,3.26783,5
1774389188754,0.0686796,1.06386,-0.289005,36.4568,1.6011,0.0849099,0,0,3.24972,5
1774389188767,0.0679716,1.0659,-0.293118,38.4312,1.24967,0.85859,0,0,3.29355,5
1774389188781,0.0658639,1.06672,-0.297874,40.6589,0.902109,1.83508,0,0,3.27248,5
1774389188794,0.0648626,1.07062,-0.302901,43.1118,0.540644,2.89938,0,0,3.26881,5
1774389188807,0.062656,1.07405,-0.307902,45.8369,0.16049,4.03158,0,0,3.27033,5
1774389188821,0.0641439,1.0793,-0.312277,48.9063,-0.328081,5.2707,0,0,3.27602,5
1774389188834,0.0666238,1.08525,-0.31628,52.3161,-0.91128,6.61714,0,0,3.28026,5
1774389188848,0.0704473,1.09432,-0.320193,56.2094,-1.67115,7.97713,0,0,3.57224,5
1774389188862,0.0765806,1.10671,-0.322163,60.9142,-2.72623,9.34047,0,0,4.43133,5
1774389188876,0.0839511,1.1246,-0.323225,66.3634,-4.19828,10.6393,0,0,3.28807,5
1774389188889,0.0926756,1.15201,-0.321688,72.988,-5.96884,11.7716,0,0,3.29424,5
1774389188902,0.106005,1.18722,-0.3163,81.2385,-8.2327,12.6455,0,0,3.25361,5
1774389188916,0.120769,1.22619,-0.311586,90.7121,-10.9733,12.6932,0,0,3.66348,4
1774389188930,0.132004,1.26025,-0.314562,99.6542,-13.7293,11.845,0,0,3.26483,3
1774389188943,0.136268,1.2887,-0.332046,108.095,-16.1347,10.758,0,0,3.28253,3
1774389188956,0.144914,1.31118,-0.353623,116.062,-18.3353,10.0055,0,0,3.26946,3
1774389188970,0.156674,1.30074,-0.379499,123.582,-20.8804,8.61876,0,0,3.26796,3
1774389188983,0.16067,1.30237,-0.394239,130.68,-23.3098,7.73881,0,0,3.28013,3
1774389188996,0.170417,1.30033,-0.402078,137.381,-25.707,7.15272,0,0,3.25102,3
1774389189010,0.183955,1.27691,-0.400157,143.705,-28.2326,6.7301,0,0,3.30124,3
1774389189023,0.194798,1.23187,-0.36283,148.097,-31.2451,6.73068,0,0,3.28039,3
1774389189037,0.237965,1.02468,-0.311815,144.481,-36.3931,9.09353,0,0,3.31061,3
1774389189050,0.213123,0.921931,-0.297762,127.133,-40.8285,12.0385,0,0,3.26598,3
1774389189063,0.190115,0.92243,-0.264155,111.515,-43.4278,12.3699,0,0,3.25935,3
1774389189077,0.154917,0.902718,-0.239128,95.1799,-43.6654,10.2348,0,0,3.27415,3
1774389189090,0.123638,0.90472,-0.21778,81.142,-41.6152,7.49019,0,0,3.25259,2
1774389189104,0.0996535,0.882803,-0.198636,67.3995,-37.9394,5.43052,0,0,3.30466,2
1774389189117,0.0852698,0.860424,-0.179668,53.5994,-33.1373,4.10896,0,0,3.49854,2
1774389189131,0.0777931,0.837658,-0.160589,39.3979,-27.6989,3.00712,0,0,3.29909,2
1774389189144,0.0763236,0.822294,-0.142611,25.1388,-22.1125,1.78382,0,0,3.26561,2
1774389189157,0.0779825,0.80853,-0.126584,10.8125,-16.61,0.846232,0,0,3.26739,2
1774389189171,0.0846511,0.795208,-0.111503,-3.78544,-11.8203,0.577392,0,0,3.2752,2
1774389189184,0.0939109,0.782917,-0.0982774,-17.6039,-7.77036,1.05497,0,0,3.24852,3
1774389189197,0.102862,0.781851,-0.0865911,-30.6473,-4.562,2.22812,0,0,3.29459,3
1774389189211,0.109414,0.791188,-0.0784054,-42.959,-2.08339,4.02184,0,0,3.25203,3
1774389189224,0.111185,0.80773,-0.0740476,-54.5801,-0.0670928,6.16669,0,0,3.32355,5
1774389189238,0.105201,0.825609,-0.0733718,-65.5494,1.85966,8.27001,0,0,3.27353,5
1774389189251,0.0961588,0.844158,-0.0733661,-75.9034,3.84917,9.70898,0,0,3.31333,5
1774389189264,0.0864656,0.861757,-0.0727734,-85.6766,5.92021,10.3689,0,0,3.28235,5
1774389189278,0.0789047,0.885697,-0.0705198,-94.9016,7.90076,10.5546,0,0,3.24992,5
1774389189291,0.0788599,0.914858,-0.0696459,-103.609,9.42125,10.7611,0,0,3.30359,5
1774389189305,0.0874013,0.951583,-0.0704331,-111.828,10.075,11.0849,0,0,3.25655,5
1774389189318,0.104324,0.997081,-0.0748908,-119.586,9.53429,11.2947,0,0,3.28763,5
1774389189331,0.125728,1.04331,-0.0854208,-126.909,7.66612,11.1497,0,0,3.27929,5
1774389189345,0.142107,1.08679,-0.101875,-133.821,4.82413,10.9846,0,0,3.27579,5
1774389189358,0.148202,1.13306,-0.12392,-140.346,1.73692,11.4989,0,0,3.27546,5
1774389189371,0.144486,1.18429,-0.15288,-146.504,-0.868819,12.803,0,0,3.25372,5
1774389189385,0.137217,1.23176,-0.188955,-151.813,-2.51442,14.5233,0,0,3.28435,5
1774389189398,0.131003,1.26179,-0.233799,-155.342,-3.20577,16.7,0,0,3.25194,3
1774389189411,0.126288,1.28384,-0.284293,-157.381,-3.3518,20.1736,0,0,3.27774,1
1774389189425,0.119687,1.30498,-0.34062,-157.407,-3.18006,24.9351,0,0,3.58976,3
1774389189439,0.104908,1.32233,-0.403558,-155.064,-2.5568,28.8545,0,0,3.30346,5
1774389189452,0.0848702,1.33237,-0.470663,-150.289,-1.12026,29.9665,0,0,3.27239,3
1774389189465,0.0636699,1.33966,-0.538698,-143.199,1.17386,28.6385,0,0,3.27535,3
1774389189479,0.0456495,1.34415,-0.601312,-134.191,4.16012,26.5499,0,0,3.27505,1
1774389189492,0.0277766,1.34587,-0.654846,-123.685,7.72307,24.2827,0,0,3.25924,5
1774389189506,0.0084966,1.34463,-0.697412,-112.648,11.9836,21.3629,0,0,3.28491,5
1774389189519,0.0370914,1.37823,-0.604923,-92.2987,13.52,16.8149,0,0,3.27233,5
1774389189532,0.0741517,1.30389,-0.496704,-79.4527,12.557,12.1088,0,0,3.31529,5
1774389189546,0.0840628,1.37197,-0.470402,-60.9656,10.8036,6.18342,0,0,3.27816,5
1774389189559,0.0544844,1.28665,-0.468184,-43.5155,10.9679,3.39506,0,0,3.28311,5
1774389189573,0.0556143,1.2822,-0.443812,-29.1428,11.7905,2.23392,0,0,3.27402,5
1774389189586,0.0594495,1.29367,-0.424125,-14.5597,11.2358,1.43294,0,0,3.25965,5
1774389189599,0.0545007,1.26567,-0.421058,-3.43573,10.415,2.03681,0,0,3.29928,5
1774389189613,0.0515834,1.24968,-0.416332,4.54913,9.58502,3.07052,0,0,3.26118,5
1774389189626,0.0474591,1.22381,-0.412496,9.86081,9.50853,3.97004,0,0,3.49372,5
1774389189640,0.0489176,1.20993,-0.404311,13.3065,9.78059,4.24747,0,0,3.27124,5
1774389189653,0.0546579,1.19448,-0.396751,15.7437,9.88282,4.16894,0,0,3.32057,5
1774389189667,0.0600296,1.17911,-0.389939,16.9596,9.77464,3.83661,0,0,3.27689,5
1774389189680,0.0628069,1.16829,-0.383701,17.6315,9.76972,3.3114,0,0,3.25687,5
1774389189693,0.0666585,1.15716,-0.378484,17.907,9.74539,2.49065,0,0,3.31553,5
1774389189707,0.0707901,1.14791,-0.373228,17.9725,9.70144,1.49243,0,0,3.28142,5
1774389189720,0.0731288,1.14002,-0.366238,17.8281,9.65824,0.51081,0,0,3.30422,5
1774389189734,0.0747033,1.13336,-0.360215,17.6647,9.60804,-0.381066,0,0,3.2814,5
1774389189747,0.0741055,1.12674,-0.353622,17.3341,9.61718,-1.14927,0,0,3.3262,5
1774389189760,0.0750821,1.12256,-0.346614,17.0568,9.52048,-1.98057,0,0,3.27424,5
1774389189774,0.0754928,1.11572,-0.341673,16.765,9.37481,-2.76952,0,0,3.26848,5
1774389189787,0.0763553,1.11168,-0.335529,16.5118,9.30797,-3.68164,0,0,3.29741,5
1774389189801,0.0780235,1.10863,-0.32834,16.4591,9.27743,-4.8055,0,0,3.26261,5
1774389189814,0.0813591,1.10548,-0.322191,16.6608,9.23018,-6.14978,0,0,3.29241,5
1774389189827,0.0841432,1.09666,-0.318447,16.8536,9.00403,-7.53813,0,0,3.27768,5
1774389189841,0.0848516,1.08761,-0.316991,16.4345,8.72034,-8.65634,0,0,3.28922,5
1774389189854,0.0801051,1.08482,-0.314915,15.9665,8.453,-9.23911,0,0,3.27646,5
1774389189868,0.0739327,1.08256,-0.312365,15.6391,8.14713,-9.14605,0,0,3.26059,5
1774389189881,0.0690125,1.07798,-0.308676,15.0972,7.81988,-8.6934,0,0,3.28253,5
1774389189894,0.0643608,1.07401,-0.305064,14.3171,7.50242,-7.99082,0,0,3.2587,5
1774389189908,0.0623363,1.07079,-0.301481,13.4871,7.19249,-7.27198,0,0,3.28718,5
1774389189921,0.0612864,1.07067,-0.297607,12.8205,6.92307,-6.54465,0,0,3.29115,5
1774389189935,0.0635283,1.0699,-0.294479,12.5107,6.61481,-6.00199,0,0,3.32048,5
1774389189948,0.0634086,1.06762,-0.292245,12.3527,6.29258,-5.57969,0,0,3.26996,5
1774389189962,0.0629311,1.06648,-0.289202,12.3745,5.94561,-5.24744,0,0,3.27567,5
1774389189975,0.0638945,1.06741,-0.286313,12.7179,5.57742,-5.06486,0,0,3.27194,5
1774389189988,0.0655418,1.07134,-0.283145,13.3854,5.28298,-4.91735,0,0,3.25609,5
1774389190002,0.0664338,1.07364,-0.280617,14.4955,4.9738,-4.90657,0,0,3.31103,5
1774389190015,0.0635498,1.07436,-0.278766,15.7813,4.74148,-4.59795,0,0,3.26355,5
1774389190028,0.0623188,1.07744,-0.277251,17.3034,4.52005,-4.36958,0,0,3.31691,5
1774389190042,0.062316,1.07926,-0.275622,18.8261,4.34187,-3.92409,0,0,3.27476,5
1774389190055,0.0622173,1.07953,-0.274832,20.3196,4.16641,-3.29121,0,0,3.2837,5
1774389190069,0.0601156,1.08094,-0.274163,22.0045,4.00592,-2.56879,0,0,3.29835,5
1774389190082,0.0595686,1.08032,-0.274718,23.6091,3.83346,-1.95027,0,0,3.25764,5
1774389190095,0.0590775,1.07974,-0.275271,25.2877,3.67067,-1.36816,0,0,3.29931,5
1774389190109,0.0572627,1.07868,-0.27612,26.9492,3.56411,-0.720645,0,0,3.25666,5
1774389190122,0.0563493,1.07772,-0.27755,28.5894,3.42928,-0.0486473,0,0,3.30807,5
1774389190136,0.0559349,1.07594,-0.279517,30.2327,3.26604,0.733381,0,0,3.73035,5
1774389190150,0.0543002,1.07422,-0.281984,31.7753,3.11538,1.53235,0,0,3.30207,5
1774389190163,0.0545841,1.0728,-0.285304,33.4124,2.97788,2.31176,0,0,3.27561,5
1774389190176,0.0557737,1.07207,-0.287636,35.0832,2.77359,3.05558,0,0,3.25453,5
1774389190190,0.055534,1.07034,-0.291008,36.8653,2.54052,3.84161,0,0,3.30454,5
1774389190203,0.0580168,1.06813,-0.29513,38.6075,2.24729,4.62038,0,0,3.25648,5
1774389190217,0.0582555,1.06698,-0.299883,40.481,1.88959,5.40085,0,0,3.27613,5
1774389190230,0.0578005,1.06558,-0.304812,42.3513,1.53482,6.10371,0,0,3.28196,5
1774389190243,0.0589563,1.06509,-0.31006,44.35,1.14985,6.7406,0,0,3.28563,5
1774389190257,0.060873,1.06576,-0.315088,46.5262,0.669585,7.31136,0,0,3.27572,5
1774389190270,0.0636027,1.06565,-0.320292,48.8718,0.120344,7.86253,0,0,3.26283,5
1774389190283,0.0645474,1.06431,-0.325098,51.3299,-0.477304,8.47398,0,0,3.28153,5
1774389190297,0.0650237,1.06391,-0.330707,53.9636,-1.10608,9.16846,0,0,3.26276,5
1774389190310,0.0664081,1.06389,-0.336712,56.745,-1.78309,9.90491,0,0,3.2869,5
1774389190324,0.0701877,1.06309,-0.343106,59.6449,-2.47736,10.639,0,0,3.27281,5
1774389190337,0.0687197,1.06538,-0.349743,62.8017,-3.11085,11.4583,0,0,3.32816,5
1774389190350,0.0773843,1.07004,-0.354702,66.4562,-3.95758,12.2346,0,0,3.28592,5
1774389190364,0.0900474,1.07699,-0.358579,70.5185,-5.1683,13.0581,0,0,3.27118,5
1774389190377,0.0927718,1.08832,-0.362191,75.2988,-6.45669,13.8654,0,0,3.27733,5
1774389190391,0.0989218,1.1115,-0.362868,81.0172,-8.04962,14.946,0,0,3.29726,5
1774389190404,0.106127,1.13841,-0.366453,87.8617,-9.88418,15.8396,0,0,3.31202,5
1774389190418,0.10251,1.17406,-0.371236,95.811,-11.6351,16.1398,0,0,3.28185,5
1774389190431,0.093682,1.21635,-0.383529,104.467,-12.5552,15.8039,0,0,3.27796,1
1774389190444,0.0946245,1.24509,-0.39978,112.638,-13.0537,14.8609,0,0,3.28459,3
1774389190458,0.111605,1.25732,-0.421193,120.35,-13.6112,13.266,0,0,3.27502,3
1774389190471,0.131345,1.26807,-0.438124,127.63,-14.5759,11.4656,0,0,3.28315,3
1774389190485,0.146827,1.27572,-0.450322,134.501,-15.9056,9.5426,0,0,3.25711,3
1774389190498,0.165304,1.26928,-0.455965,140.987,-17.4023,8.86432,0,0,3.29753,3
1774389190511,0.181116,1.24679,-0.446957,147.109,-19.4166,9.22433,0,0,3.26311,3
1774389190525,0.200261,1.1959,-0.418282,151.703,-21.9345,10.5725,0,0,3.29903,3
1774389190538,0.274762,1.01836,-0.356897,150.613,-27.0495,15.1417,0,0,3.27191,3
1774389190552,0.255336,0.902301,-0.352383,135.528,-33.9551,18.8774,0,0,3.31472,3
1774389190565,0.230332,0.866546,-0.321501,119.594,-39.187,19.1039,0,0,3.27448,3
1774389190578,0.187107,0.841302,-0.299135,101.569,-41.8904,17.179,0,0,3.25646,3
1774389190592,0.147556,0.841975,-0.280127,85.796,-42.0203,14.8666,0,0,3.30707,2
1774389190605,0.115436,0.8305,-0.263702,70.6809,-40.13,12.8748,0,0,3.26492,2
1774389190619,0.0951622,0.82399,-0.24997,56.9973,-36.7648,10.9602,0,0,3.27363,2
1774389190632,0.0844769,0.810046,-0.238654,44.0058,-32.6473,9.05783,0,0,3.27305,2
1774389190645,0.0802166,0.785318,-0.228281,30.9599,-28.2504,7.40264,0,0,3.34442,2
1774389190659,0.081684,0.762815,-0.218895,17.2971,-24.0979,6.14474,0,0,3.2717,2
1774389190672,0.0864184,0.744681,-0.209173,3.09672,-20.2302,5.40314,0,0,3.26077,2
1774389190686,0.0909777,0.733275,-0.199022,-11.1078,-16.9176,5.02556,0,0,3.28207,2
1774389190699,0.093608,0.730676,-0.190841,-24.5155,-14.2273,4.94491,0,0,3.25783,2
1774389190712,0.0907635,0.734008,-0.184193,-37.1712,-11.6103,5.21604,0,0,3.27694,2
1774389190726,0.0840289,0.743911,-0.179917,-49.117,-8.76073,5.69805,0,0,3.30233,5
1774389190739,0.0767453,0.76047,-0.178583,-60.3927,-5.6227,6.13547,0,0,3.2999,5
1774389190753,0.070549,0.777555,-0.179219,-71.036,-2.24492,6.55049,0,0,3.28181,5
1774389190766,0.0676772,0.792066,-0.182357,-81.0822,1.13608,7.04714,0,0,3.26565,5
1774389190779,0.0686253,0.806733,-0.1846,-90.5649,4.27433,7.52663,0,0,3.2765,5
1774389190793,0.072863,0.828307,-0.186168,-99.5157,6.93639,7.8071,0,0,3.25985,5
1774389190806,0.0808659,0.857201,-0.187604,-107.964,8.93231,7.7477,0,0,3.31259,5
1774389190820,0.0947114,0.892434,-0.189831,-115.939,9.99159,7.23775,0,0,3.26648,5
1774389190833,0.1114,0.93029,-0.194426,-123.467,9.96808,6.63951,0,0,3.3032,5
1774389190846,0.131459,0.967472,-0.201373,-130.572,8.79536,6.0911,0,0,3.27092,5
1774389190860,0.147448,0.99911,-0.208251,-137.279,6.73955,6.06629,0,0,3.28242,5
1774389190873,0.160656,1.03376,-0.215629,-143.609,4.17733,6.79135,0,0,3.28055,5
1774389190887,0.165524,1.07249,-0.226794,-149.585,1.56144,8.4854,0,0,3.26037,5
1774389190900,0.161467,1.11665,-0.244027,-155.225,-0.432854,11.1168,0,0,3.30348,5
1774389190913,0.154085,1.15738,-0.268728,-159.255,-1.53984,14.1097,0,0,3.25839,3
1774389190927,0.148756,1.18224,-0.298915,-161.877,-1.9446,16.9904,0,0,3.298,3
1774389190941,0.145731,1.20245,-0.332554,-163.173,-2.07788,19.9394,0,0,4.00441,3
1774389190954,0.143319,1.22382,-0.369505,-162.698,-2.20111,23.057,0,0,3.31105,3
1774389190968,0.136251,1.23841,-0.410979,-160.099,-2.34569,25.8019,0,0,3.37376,3
1774389190981,0.11748,1.24545,-0.454388,-155.837,-2.04198,27.3806,0,0,3.27807,3
1774389190995,0.0913621,1.2498,-0.498866,-149.904,-0.826573,27.1516,0,0,3.35359,3
1774389191008,0.0633009,1.25243,-0.541634,-142.48,1.48747,25.3687,0,0,3.27692,2
1774389191022,0.0375345,1.25753,-0.580588,-133.635,4.8261,22.966,0,0,3.2792,5
1774389191035,0.0157137,1.2619,-0.612959,-123.504,9.00339,20.3136,0,0,3.28989,5
1774389191048,0.0461497,1.38164,-0.692901,-107.247,12.1786,20.9605,0,0,3.30796,5
1774389191062,0.0693075,1.20961,-0.598654,-87.2012,13.964,18.5966,0,0,3.28733,5
1774389191075,0.0730563,1.26128,-0.538436,-70.5892,15.1324,14.1447,0,0,3.25657,5
1774389191089,0.0659003,1.23699,-0.522117,-52.5993,14.1915,9.53654,0,0,3.27318,5
1774389191102,0.0480707,1.1927,-0.496433,-37.83,14.5323,7.64255,0,0,3.28253,5
1774389191115,0.0400854,1.21135,-0.47279,-23.8088,14.1325,6.73815,0,0,3.31109,5
1774389191129,0.0342111,1.20732,-0.460153,-10.8172,13.2666,6.43341,0,0,3.29528,5
1774389191142,0.0306543,1.18825,-0.457123,-1.74433,12.3798,7.64998,0,0,3.32448,5
1774389191156,0.0284809,1.17438,-0.450702,5.05078,11.7372,8.38169,0,0,3.28046,5
1774389191169,0.0290932,1.15552,-0.443505,9.46895,11.6167,8.64417,0,0,3.28031,5
1774389191183,0.0317073,1.14422,-0.435,12.6412,11.7653,8.59305,0,0,3.28459,5
1774389191196,0.0372499,1.13147,-0.425842,14.7004,11.8791,8.15857,0,0,3.26007,5
1774389191209,0.0425288,1.12202,-0.415921,15.9974,11.9565,7.55278,0,0,3.25192,5
1774389191223,0.0453561,1.1133,-0.406743,16.6938,12.0382,6.80842,0,0,3.2332,5
1774389191236,0.048049,1.10797,-0.397571,17.0724,12.0549,5.88615,0,0,3.306,5
1774389191249,0.0536778,1.10249,-0.388053,17.3441,11.8784,4.78225,0,0,3.26009,5
1774389191263,0.0561883,1.09526,-0.380649,17.4108,11.7452,3.58912,0,0,3.3035,5
1774389191276,0.0579484,1.08873,-0.374252,17.1416,11.6469,2.40639,0,0,3.27722,5
1774389191290,0.0580087,1.08559,-0.366437,16.8489,11.686,1.45229,0,0,3.28411,5
1774389191303,0.0586108,1.08136,-0.35985,16.5615,11.6685,0.519592,0,0,3.27626,5
1774389191316,0.0604678,1.07683,-0.35243,16.1566,11.607,-0.332527,0,0,3.26137,5
1774389191330,0.0611333,1.0727,-0.344534,15.7299,11.5704,-1.19208,0,0,3.2825,5
1774389191343,0.0637982,1.07031,-0.338062,15.376,11.4981,-2.05438,0,0,3.2562,5
1774389191357,0.0681617,1.06707,-0.33341,15.0967,11.2265,-2.81093,0,0,3.3615,5
1774389191371,0.0677005,1.06438,-0.32862,14.8481,10.9449,-3.45782,0,0,3.25659,5
1774389191384,0.0675265,1.05918,-0.325256,14.5089,10.5687,-3.87232,0,0,3.28009,5
1774389191397,0.0688335,1.05972,-0.321122,14.3215,10.1531,-4.21561,0,0,3.27842,5
1774389191411,0.0651292,1.0567,-0.316463,14.2461,9.78398,-4.37736,0,0,3.27881,5
1774389191424,0.0644483,1.05523,-0.312478,14.1582,9.37476,-4.55487,0,0,3.27065,5
1774389191438,0.0629324,1.05407,-0.308806,14.2465,8.92984,-4.69502,0,0,3.2854,5
1774389191451,0.0612052,1.05297,-0.305348,14.3774,8.45335,-4.77892,0,0,3.28694,5
1774389191464,0.0580481,1.05177,-0.302501,14.6538,7.99074,-4.86454,0,0,3.28002,5
1774389191478,0.0540254,1.05051,-0.299863,14.964,7.59433,-4.97705,0,0,3.27783,5
1774389191491,0.0524742,1.04844,-0.297095,15.2589,7.31436,-5.01131,0,0,3.282,5
1774389191505,0.0526137,1.04504,-0.29463,15.5788,7.0381,-5.15668,0,0,3.26057,5
1774389191518,0.0502594,1.04136,-0.29302,15.7347,6.82487,-5.25494,0,0,3.30405,5
1774389191531,0.0493853,1.0386,-0.290754,15.899,6.62402,-5.31686,0,0,3.26263,5
1774389191545,0.0490086,1.03636,-0.289292,15.9522,6.41261,-5.27339,0,0,3.30709,5
1774389191559,0.0475487,1.03532,-0.287777,16.0491,6.21177,-5.10562,0,0,3.63976,5
1774389191572,0.0471349,1.03299,-0.286135,16.0806,5.99821,-4.87875,0,0,3.33257,5
1774389191585,0.0460558,1.03184,-0.284758,16.0444,5.76666,-4.62179,0,0,3.26826,5
1774389191599,0.0445328,1.03163,-0.283772,16.0291,5.56609,-4.30346,0,0,3.25755,5
1774389191612,0.0421262,1.03234,-0.283127,16.0959,5.40031,-3.83598,0,0,3.30085,5
1774389191626,0.0409138,1.03357,-0.282298,16.3175,5.25497,-3.30181,0,0,3.26365,5
1774389191639,0.0398826,1.03469,-0.281505,16.6594,5.13533,-2.73252,0,0,3.2737,5
1774389191652,0.0388645,1.03625,-0.28128,17.1182,5.03739,-2.11552,0,0,3.27522,5
1774389191666,0.0383393,1.0391,-0.280798,17.726,4.93981,-1.47147,0,0,3.28257,5
1774389191679,0.0382108,1.04119,-0.280722,18.4907,4.84042,-0.813882,0,0,3.2755,5
1774389191692,0.0378316,1.0434,-0.280873,19.3222,4.74147,-0.143077,0,0,3.24833,5
1774389191706,0.037437,1.04448,-0.280954,20.2178,4.65835,0.57274,0,0,3.28405,5
1774389191719,0.0370917,1.04855,-0.28165,21.2375,4.57774,1.27281,0,0,3.26142,5
1774389191733,0.037306,1.04865,-0.282348,22.3915,4.48239,1.94689,0,0,3.28503,5
1774389191746,0.0391979,1.05018,-0.283667,23.6078,4.35171,2.51122,0,0,3.27565,5
1774389191760,0.0404091,1.0501,-0.285483,24.8823,4.16285,2.98952,0,0,3.50989,5
1774389191773,0.0410976,1.04952,-0.287593,26.1173,3.95761,3.40202,0,0,3.27526,5
1774389191786,0.043507,1.04921,-0.289867,27.4231,3.70136,3.70703,0,0,3.27289,5
1774389191800,0.0458538,1.04725,-0.292811,28.7597,3.364,3.95554,0,0,3.29511,5
1774389191813,0.0470835,1.04644,-0.296491,30.1075,2.98819,4.12417,0,0,3.26633,5
1774389191827,0.048676,1.04404,-0.299401,31.4956,2.58293,4.31632,0,0,3.30639,5
1774389191840,0.0467928,1.04194,-0.303722,32.883,2.20511,4.68522,0,0,3.28767,5
1774389191854,0.0443834,1.04018,-0.308248,34.2833,1.91614,5.10024,0,0,3.33202,5
1774389191867,0.0441507,1.03768,-0.312822,35.772,1.61298,5.5425,0,0,3.28033,5
1774389191880,0.0437574,1.03171,-0.317954,37.1208,1.30927,6.04773,0,0,3.29633,5
1774389191894,0.0449721,1.02454,-0.323684,38.3707,1.01531,6.57643,0,0,3.28016,5
1774389191907,0.0446496,1.01476,-0.330616,39.4092,0.757542,7.14142,0,0,3.26016,5
1774389191921,0.0447683,1.00438,-0.337607,40.1262,0.452143,7.77491,0,0,3.30144,5
1774389191934,0.0444333,0.995337,-0.345349,40.603,0.197274,8.31592,0,0,3.28618,5
1774389191947,0.0438141,0.982803,-0.353821,40.7832,0.0376276,8.87453,0,0,3.30952,5
1774389191961,0.0449088,0.971736,-0.36158,40.6794,-0.0753833,9.40482,0,0,3.27452,5
1774389191974,0.0462547,0.960331,-0.370111,40.2777,-0.154651,9.82828,0,0,3.33065,5
1774389191988,0.0491326,0.947769,-0.37909,39.5728,-0.175521,10.067,0,0,3.27296,5
1774389192001,0.0546926,0.93234,-0.387485,38.4732,-0.29456,10.1797,0,0,3.27415,5
1774389192015,0.0564647,0.914896,-0.396292,36.754,-0.451453,10.1867,0,0,3.30155,5
1774389192028,0.0627718,0.905378,-0.403828,34.4706,-0.520331,9.49117,0,0,3.2589,1
1774389192041,0.0830567,0.907125,-0.409336,32.308,-1.00582,8.20861,0,0,3.28257,3
1774389192055,0.0975004,0.920497,-0.412949,30.5159,-1.85245,6.50172,0,0,3.3182,3
1774389192068,0.105931,0.933711,-0.416286,29.7012,-2.97016,4.54888,0,0,3.28544,1
1774389192082,0.0986187,0.945183,-0.420812,29.2744,-4.0059,2.90468,0,0,3.31163,1
1774389192095,0.0886044,0.954072,-0.426111,29.3883,-4.77545,1.73509,0,0,3.26742,5
1774389192111,0.0787718,0.958611,-0.43119,29.7339,-5.25948,1.18388,0,0,3.27683,5
1774389192124,0.072647,0.961702,-0.435736,30.3898,-5.57934,1.04811,0,0,3.24903,1
1774389192142,0.068082,0.959854,-0.441195,31.1935,-5.78363,1.34343,0,0,7.24763,3
1774389192155,0.0643785,0.954339,-0.447994,31.9645,-5.88654,1.80545,0,0,3.28357,3
1774389192173,0.0618514,0.946801,-0.4547,32.6409,-5.9019,2.37386,0,0,7.42421,3
1774389192186,0.0608761,0.938098,-0.461976,33.0849,-5.87828,2.99602,0,0,3.23996,3
1774389192199,0.0601891,0.928495,-0.469661,33.3371,-5.82431,3.53962,0,0,3.27753,3
1774389192213,0.0596495,0.917849,-0.477437,33.3833,-5.73354,4.01075,0,0,3.24605,3
1774389192226,0.059977,0.90817,-0.485171,33.2517,-5.59434,4.4606,0,0,3.2542,3
1774389192239,0.0591585,0.899256,-0.492973,32.9349,-5.34691,4.88265,0,0,3.24989,3
1774389192253,0.0539769,0.8918,-0.502452,32.4281,-4.95621,5.3855,0,0,3.27507,5
1774389192266,0.0556735,0.88703,-0.509915,31.9361,-4.62639,5.66403,0,0,3.36211,5
1774389192280,0.0589936,0.880994,-0.516805,31.3389,-4.34334,5.72784,0,0,3.23803,5
1774389192293,0.0650513,0.877027,-0.523352,30.7419,-4.17807,5.61379,0,0,3.27372,1
1774389192306,0.0698724,0.872305,-0.529815,30.0499,-4.1501,5.33444,0,0,3.23946,5
1774389192320,0.073682,0.869743,-0.536028,29.347,-4.21447,4.91618,0,0,3.25242,3
1774389192333,0.0766202,0.867346,-0.541958,28.6638,-4.38399,4.43447,0,0,3.25894,3
1774389192346,0.0778712,0.865887,-0.547715,28.0113,-4.6138,3.96864,0,0,3.24846,3
1774389192360,0.0773271,0.863488,-0.552867,27.3821,-4.87182,3.54906,0,0,3.25335,5
1774389192373,0.0753654,0.860757,-0.558531,26.7804,-5.07169,3.22538,0,0,3.28326,5
1774389192386,0.071952,0.858507,-0.564139,26.204,-5.18028,3.01577,0,0,3.27524,5
1774389192400,0.0685705,0.855385,-0.56963,25.6526,-5.18259,2.94038,0,0,3.25335,5
1774389192413,0.0645361,0.852207,-0.575564,25.1043,-5.05417,2.93602,0,0,3.27487,5
1774389192427,0.0620447,0.848186,-0.581345,24.5611,-4.83361,2.98371,0,0,3.30163,3
1774389192440,0.0618725,0.844169,-0.587312,23.9738,-4.5445,3.10281,0,0,3.32746,3
1774389192454,0.0620707,0.838983,-0.592857,23.2846,-4.25191,3.13943,0,0,3.30318,3
1774389192467,0.0642035,0.834569,-0.598427,22.5575,-3.9997,3.16501,0,0,3.27674,3
1774389192480,0.0671079,0.830881,-0.603443,21.7709,-3.84514,3.14505,0,0,3.32866,3
1774389192494,0.0704297,0.828187,-0.608262,21.0104,-3.78789,3.00118,0,0,3.30663,3
1774389192507,0.0738519,0.825708,-0.612517,20.243,-3.83147,2.79687,0,0,3.31183,3
1774389192521,0.0750851,0.823283,-0.617195,19.51,-3.93855,2.53807,0,0,3.29479,3
1774389192534,0.0751113,0.820986,-0.621561,18.7933,-4.05076,2.30065,0,0,3.31029,3
1774389192548,0.0733853,0.818853,-0.625641,18.0979,-4.10871,2.10866,0,0,3.28978,5
1774389192561,0.0716601,0.818159,-0.629649,17.4553,-4.11032,1.97496,0,0,3.29113,5
1774389192575,0.0694551,0.81789,-0.633471,16.8611,-4.04547,1.88945,0,0,3.29185,5
1774389192588,0.0687132,0.816768,-0.6372,16.4009,-3.94316,1.84298,0,0,3.26565,5
1774389192601,0.067961,0.815909,-0.640916,15.9519,-3.81061,1.8368,0,0,3.33789,5
1774389192615,0.0671883,0.813549,-0.64432,15.517,-3.66623,1.85623,0,0,3.27757,5
1774389192628,0.0669406,0.812521,-0.647852,15.1108,-3.50811,1.93152,0,0,3.32492,3
1774389192642,0.066362,0.811004,-0.651572,14.7291,-3.36957,2.02785,0,0,3.29478,3
1774389192655,0.0666522,0.810066,-0.654638,14.397,-3.23579,2.12648,0,0,3.28981,3
1774389192669,0.067549,0.8095,-0.657677,14.0917,-3.13136,2.19689,0,0,3.28772,3
1774389192682,0.0682144,0.808222,-0.660764,13.8348,-3.05977,2.25222,0,0,3.29033,3
1774389192696,0.0690322,0.806263,-0.664229,13.5987,-2.98705,2.30187,0,0,3.36774,3
1774389192709,0.0691095,0.804582,-0.66735,13.3737,-2.93853,2.30121,0,0,3.288,5
1774389192723,0.0691408,0.803156,-0.670527,13.1695,-2.9043,2.31728,0,0,3.28709,5
1774389192736,0.0685087,0.800852,-0.674173,12.9682,-2.81204,2.33374,0,0,3.28885,5
1774389192749,0.0688758,0.799429,-0.676977,12.7961,-2.74551,2.33643,0,0,3.32635,5
1774389192763,0.0684155,0.797396,-0.679604,12.59,-2.68271,2.35438,0,0,3.30872,5
1774389192776,0.0686052,0.795547,-0.682288,12.3771,-2.62044,2.37133,0,0,3.29428,5
1774389192790,0.0684877,0.792936,-0.685495,12.1084,-2.58393,2.36463,0,0,3.30644,5
1774389192803,0.0678095,0.790097,-0.688017,11.821,-2.51221,2.37886,0,0,3.2967,5
1774389192817,0.0674064,0.788066,-0.690877,11.5176,-2.40041,2.40471,0,0,3.29107,5
1774389192830,0.0675549,0.786316,-0.693196,11.2146,-2.28546,2.46807,0,0,3.29565,5
1774389192844,0.0668534,0.783938,-0.695669,10.9058,-2.15812,2.53088,0,0,3.33076,5
1774389192857,0.0671755,0.783436,-0.698205,10.6126,-2.03407,2.58974,0,0,3.2987,5
1774389192870,0.0675689,0.782475,-0.700171,10.3334,-1.93068,2.65814,0,0,3.27889,5
1774389192884,0.0683295,0.782272,-0.70234,10.1057,-1.84379,2.70258,0,0,3.31766,5
1774389192897,0.0682988,0.780188,-0.704723,9.86984,-1.74765,2.73596,0,0,3.30665,5
1774389192911,0.0683441,0.777544,-0.706917,9.59411,-1.62435,2.72379,0,0,3.31396,5
1774389192924,0.0697541,0.774535,-0.708545,9.26276,-1.50412,2.70546,0,0,3.29639,5
1774389192938,0.0722129,0.7728,-0.710496,8.91318,-1.42618,2.64148,0,0,3.29817,5
1774389192951,0.0746709,0.770586,-0.71263,8.49329,-1.41212,2.51087,0,0,3.29065,5
1774389192964,0.076669,0.769088,-0.71451,8.09952,-1.46436,2.40814,0,0,3.28937,5
1774389192978,0.0763911,0.767997,-0.716574,7.67946,-1.5064,2.28719,0,0,3.68969,5
1774389192992,0.0764135,0.766441,-0.718378,7.26668,-1.5525,2.16832,0,0,3.2615,5
1774389193007,0.0762535,0.764932,-0.720252,6.82268,-1.58145,2.04284,0,0,4.95198,3
1774389193020,0.0770934,0.763403,-0.721916,6.36462,-1.65631,1.89142,0,0,3.26079,5
1774389193034,0.0781528,0.762444,-0.72371,5.87787,-1.7441,1.72367,0,0,3.31111,3
1774389193047,0.078931,0.762006,-0.72503,5.41628,-1.8518,1.53407,0,0,3.28702,3
1774389193061,0.0781484,0.761022,-0.726443,4.93863,-1.94018,1.32042,0,0,4.10349,3
1774389193075,0.0779979,0.760294,-0.72758,4.44323,-2.01462,1.11833,0,0,3.28783,3
1774389193088,0.077918,0.759503,-0.728934,3.97606,-2.08488,0.94898,0,0,3.28628,3
1774389193102,0.0779377,0.759055,-0.73041,3.52138,-2.17603,0.825955,0,0,3.30365,3
1774389193115,0.0771665,0.758424,-0.731491,3.07765,-2.23295,0.753077,0,0,3.25894,3
1774389193130,0.0763329,0.757746,-0.732343,2.63612,-2.28326,0.732673,0,0,4.8734,3
1774389193144,0.0757386,0.757268,-0.733276,2.17096,-2.30462,0.671879,0,0,3.2839,3
1774389193157,0.0770175,0.757153,-0.734028,1.68951,-2.3402,0.566966,0,0,3.31122,3
1774389193170,0.0776104,0.755079,-0.734172,1.16099,-2.38449,0.257271,0,0,3.28844,3
1774389193184,0.0802915,0.753981,-0.73544,0.909179,-2.62454,0.0159012,0,0,3.33955,3
1774389193197,0.0815313,0.753498,-0.735255,0.352921,-2.81602,-0.34167,0,0,3.29231,3
1774389193211,0.0822792,0.753323,-0.737758,-0.168281,-2.97407,-0.85003,0,0,3.25483,3
1774389193225,0.082514,0.747978,-0.737172,-1.37532,-3.12924,-1.46946,0,0,3.302,3
1774389193239,0.0845855,0.740956,-0.737487,-2.441,-3.42557,-2.14364,0,0,3.2747,3
1774389193256,0.0880079,0.740134,-0.737266,-3.61048,-3.87271,-2.79071,0,0,7.24452,3
1774389193269,0.0914514,0.739808,-0.736851,-4.82782,-4.47888,-3.461,0,0,3.31448,3
1774389193283,0.095449,0.741033,-0.736006,-5.90538,-5.29298,-4.01105,0,0,3.32304,3
1774389193299,0.0960793,0.745098,-0.734889,-6.90108,-6.22626,-4.35769,0,0,3.30026,3
1774389193313,0.0968103,0.747512,-0.733798,-7.69278,-7.2759,-4.29181,0,0,3.31153,3
1774389193326,0.0991428,0.751806,-0.731763,-8.44307,-8.521,-3.51284,0,0,3.2802,3
1774389193340,0.103295,0.754108,-0.72987,-9.06649,-10.044,-2.21408,0,0,3.91254,3
1774389193353,0.109647,0.757654,-0.727526,-9.66393,-11.8878,-0.565113,0,0,3.27522,3
1774389193367,0.117141,0.761121,-0.724526,-10.1987,-14.0963,1.30565,0,0,3.23418,3
1774389193380,0.12561,0.764777,-0.721231,-10.6792,-16.6609,3.35322,0,0,3.31768,3
1774389193394,0.133516,0.768647,-0.717417,-11.0397,-19.5676,5.56982,0,0,3.26252,3
1774389193408,0.140895,0.771312,-0.712874,-11.4361,-22.8816,8.05645,0,0,4.71512,3
1774389193422,0.147481,0.774138,-0.708433,-11.7979,-26.5081,10.5916,0,0,3.23655,3
1774389193435,0.152904,0.775122,-0.704176,-12.2306,-30.3581,13.3065,0,0,3.29396,3
1774389193448,0.158197,0.77634,-0.698781,-12.7764,-34.4923,16.2198,0,0,3.27005,3
1774389193462,0.160749,0.777014,-0.693461,-13.4376,-38.7757,19.1757,0,0,3.89825,3
1774389193476,0.166969,0.780285,-0.687755,-14.1363,-43.351,22.2128,0,0,3.2822,3
1774389193489,0.173878,0.78384,-0.680559,-14.8964,-48.2709,25.4979,0,0,3.26907,3
1774389193503,0.179193,0.786951,-0.673089,-15.6931,-53.477,28.8312,0,0,3.28474,3
1774389193516,0.180624,0.790353,-0.664719,-16.4913,-58.7135,32.1018,0,0,3.23585,3
1774389193531,0.177551,0.794525,-0.656811,-17.3445,-63.9042,35.1837,0,0,4.78159,3
1774389193544,0.176203,0.799048,-0.648939,-18.1717,-68.9947,38.127,0,0,3.25115,3
1774389193558,0.173451,0.806149,-0.639884,-19.0125,-73.9877,40.8218,0,0,3.28622,3
1774389193571,0.17161,0.811231,-0.629763,-19.8664,-78.9857,43.6989,0,0,3.27024,3
1774389193585,0.166998,0.819102,-0.619764,-20.5684,-83.8678,46.2579,0,0,3.89404,3
1774389193598,0.163934,0.826309,-0.608739,-21.2863,-88.584,48.8742,0,0,3.28326,3
1774389193612,0.158302,0.83414,-0.598603,-21.8693,-93.1607,51.2504,0,0,3.2377,3
1774389193626,0.152981,0.842973,-0.58828,-22.4375,-97.6463,53.4193,0,0,3.28394,3
1774389193639,0.145682,0.850428,-0.578365,-22.875,-101.829,55.2263,0,0,3.2432,3
1774389193654,0.139877,0.859414,-0.568041,-23.1552,-105.681,57.0573,0,0,4.02128,3
1774389193667,0.130289,0.86663,-0.557655,-23.3126,-109.075,58.4312,0,0,3.26702,3
1774389193680,0.121164,0.875313,-0.547959,-23.3401,-112.233,59.6907,0,0,3.27368,3
1774389193694,0.11531,0.881716,-0.538783,-23.3604,-115.216,60.9703,0,0,3.2727,3
1774389193707,0.109648,0.887903,-0.529581,-23.2597,-117.969,62.0682,0,0,3.27613,3
1774389193720,0.107597,0.890702,-0.520867,-23.2091,-120.676,63.2037,0,0,3.26037,3
1774389193734,0.106564,0.893688,-0.512096,-23.1768,-123.348,64.3223,0,0,3.25109,3
1774389193747,0.111481,0.891045,-0.504093,-23.4752,-126.158,65.1602,0,0,3.28931,3
1774389193761,0.123198,0.890717,-0.493622,-23.9097,-129.489,66.3809,0,0,3.25335,3
1774389193774,0.134605,0.893276,-0.48316,-24.6033,-133.422,67.6865,0,0,3.28309,3
1774389193787,0.142246,0.898274,-0.470102,-25.3376,-137.775,69.0846,0,0,3.26392,3
1774389193801,0.14872,0.903417,-0.456398,-26.1656,-142.455,69.9816,0,0,3.31991,3
1774389193814,0.160153,0.911047,-0.440623,-26.88,-147.527,71.0428,0,0,3.27422,3
1774389193828,0.170435,0.920072,-0.422027,-27.4913,-152.834,71.8938,0,0,3.24759,3
1774389193841,0.171267,0.927518,-0.404275,-27.9463,-158.292,72.3729,0,0,3.29202,3
1774389193854,0.1766,0.937286,-0.38084,-28.3206,-163.444,73.216,0,0,3.26939,3
1774389193868,0.18959,0.947535,-0.35559,-28.5711,-168.307,74.5065,0,0,3.29116,3
1774389193881,0.198713,0.960143,-0.331722,-28.6028,-172.897,76.0996,0,0,3.26333,3
1774389193895,0.198948,0.971538,-0.308844,-28.5737,-177.229,77.7233,0,0,3.28742,3
1774389193908,0.191871,0.98126,-0.283871,-28.5137,-181.319,79.0991,0,0,3.26524,3
1774389193921,0.180938,0.993226,-0.260512,-28.4027,-185.179,79.8253,0,0,3.24909,3
1774389193935,0.171872,1.00733,-0.239841,-27.7674,-188.823,79.684,0,0,3.28813,3
1774389193948,0.159829,1.02086,-0.218227,-26.9026,-192.262,79.7424,0,0,3.24387,3
1774389193962,0.141981,1.03258,-0.199768,-25.6133,-195.509,79.5826,0,0,3.27496,1
1774389193975,0.118059,1.03888,-0.181252,-24.0973,-198.573,79.2686,0,0,3.26903,1
1774389193988,0.0896736,1.03957,-0.168969,-22.5958,-201.465,78.4327,0,0,3.28611,1
1774389194002,0.0516606,1.03725,-0.158003,-21.2984,-203.082,77.1264,0,0,3.2757,1
1774389194015,0.00259386,1.03041,-0.154328,-20.1996,-202.988,75.1796,0,0,3.24481,2
1774389194029,-0.0488754,1.02213,-0.156067,-19.3423,-201.016,72.6433,0,0,3.27292,2
1774389194042,-0.103155,1.01314,-0.160837,-18.6975,-196.999,69.4159,0,0,3.26539,2
1774389194055,-0.160698,1.00019,-0.169851,-18.4721,-190.88,66.0198,0,0,3.29376,2
1774389194069,-0.229967,0.985177,-0.181289,-18.8422,-182.376,62.5439,0,0,3.2845,2
1774389194082,-0.288253,0.973803,-0.194586,-19.9703,-171.658,59.6189,0,0,3.28924,2
1774389194096,-0.305072,0.976284,-0.203747,-20.9033,-160.463,59.0014,0,0,3.26881,2
1774389194109,-0.293642,0.986108,-0.208236,-21.1827,-149.689,58.7393,0,0,3.27868,2
1774389194123,-0.251855,0.997798,-0.205621,-20.8757,-140.185,57.1054,0,0,3.28794,2
1774389194136,-0.210315,1.00412,-0.204497,-20.4425,-131.996,54.2991,0,0,3.28716,2
1774389194149,-0.185796,1.01332,-0.206476,-20.1976,-124.873,50.6077,0,0,3.32459,2
1774389194163,-0.182903,1.01324,-0.210505,-20.148,-118.189,47.256,0,0,3.24574,2
1774389194176,-0.188207,1.0157,-0.215851,-19.9111,-111.621,44.8301,0,0,3.30894,2
1774389194190,-0.187942,1.01965,-0.219373,-19.6831,-105.265,43.0262,0,0,3.26729,2
1774389194203,-0.175366,1.02605,-0.220659,-18.9306,-99.3639,41.2576,0,0,3.32524,2
1774389194216,-0.159337,1.02801,-0.22206,-17.9222,-94.031,39.1074,0,0,3.27691,5
1774389194230,-0.146507,1.02618,-0.223837,-17.0253,-89.1753,36.6992,0,0,3.25409,5
1774389194243,-0.134975,1.02471,-0.225664,-16.2497,-84.7834,34.1941,0,0,3.30563,5
1774389194257,-0.125827,1.02432,-0.227562,-15.5681,-80.7869,31.898,0,0,3.27209,3
1774389194270,-0.118498,1.02644,-0.229909,-14.7035,-77.1575,29.821,0,0,3.27724,3
1774389194283,-0.114853,1.0267,-0.232197,-13.7798,-73.7271,27.989,0,0,3.26735,3
1774389194297,-0.109105,1.02726,-0.233702,-12.7585,-70.4616,26.3899,0,0,3.27048,5
1774389194310,-0.105048,1.0274,-0.236614,-11.5372,-67.4778,24.8266,0,0,3.27348,1
1774389194324,-0.0923827,1.02651,-0.237328,-10.398,-64.8451,23.2246,0,0,3.24248,1
1774389194337,-0.0836234,1.02451,-0.238971,-9.21917,-62.563,21.635,0,0,3.25872,3
1774389194350,-0.0753966,1.02321,-0.240788,-8.06918,-60.6414,20.1452,0,0,3.2589,3
1774389194364,-0.0642198,1.02179,-0.242867,-6.89978,-59.1423,18.7476,0,0,3.31676,3
1774389194377,-0.0485777,1.01993,-0.244631,-5.7403,-58.3696,17.8031,0,0,3.25863,3
1774389194390,-0.0296158,1.01745,-0.246681,-4.60862,-58.5008,17.2763,0,0,3.30859,3
1774389194404,-0.00684938,1.01051,-0.246954,-3.73523,-59.6721,17.1632,0,0,3.2947,3
1774389194417,0.0118144,1.00558,-0.247002,-3.12964,-61.6828,17.2084,0,0,3.28711,3
1774389194431,0.00805197,0.999283,-0.247411,-2.85561,-63.8934,17.1668,0,0,3.26609,3
1774389194444,-0.00122605,0.996368,-0.248218,-2.69029,-65.7084,17.2268,0,0,3.27266,3
1774389194457,-0.01533,0.990846,-0.250997,-2.813,-67.0397,17.1944,0,0,3.26368,3
1774389194471,-0.0175744,0.98783,-0.250292,-3.03287,-68.2322,17.389,0,0,3.2878,3
1774389194484,-0.0186102,0.977952,-0.2514,-3.57568,-69.5375,17.7821,0,0,3.2747,3
1774389194498,-0.0356801,0.977272,-0.253837,-4.607,-70.3693,18.1416,0,0,3.27744,2
1774389194511,-0.0509572,0.979419,-0.255153,-5.57191,-70.6072,18.6907,0,0,3.27598,1
1774389194524,-0.0637724,0.985572,-0.255569,-6.31999,-70.2828,19.1152,0,0,3.30902,1
1774389194538,-0.0724825,0.99325,-0.256467,-6.61419,-69.4294,19.6607,0,0,3.26829,1
1774389194551,-0.071021,0.999322,-0.256323,-6.74031,-68.5807,20.3464,0,0,3.26985,1
1774389194565,-0.0614555,1.00739,-0.254541,-6.42389,-68.0912,21.1166,0,0,3.27085,1
1774389194578,-0.0506214,1.01375,-0.25256,-5.85888,-67.9564,21.96,0,0,3.29294,1
1774389194591,-0.0418734,1.01595,-0.25012,-5.14316,-68.1639,22.742,0,0,3.28026,1
1774389194605,-0.0393375,1.0183,-0.248674,-4.35069,-68.4074,23.4081,0,0,3.97799,1
1774389194619,-0.0447066,1.01767,-0.24871,-3.61338,-68.3271,23.9731,0,0,3.27665,1
1774389194632,-0.0518695,1.01473,-0.250518,-2.7286,-67.7851,24.0093,0,0,3.27522,1
1774389194646,-0.0610895,1.01086,-0.253207,-2.07071,-66.6882,23.7874,0,0,3.30407,1
1774389194659,-0.0710166,1.00624,-0.256195,-1.54779,-65.0434,23.3553,0,0,3.25635,1
1774389194672,-0.0790362,1.0016,-0.259084,-1.17537,-62.9056,22.6935,0,0,3.25466,1
1774389194686,-0.0844736,0.997427,-0.26189,-0.949295,-60.4223,21.9062,0,0,3.27235,1
1774389194699,-0.0867584,0.994336,-0.263879,-0.811266,-57.7409,21.0238,0,0,3.29346,1
1774389194713,-0.083434,0.991531,-0.265216,-0.771327,-55.0737,20.0869,0,0,3.27052,1
1774389194726,-0.0765074,0.989968,-0.266056,-0.759747,-52.5822,19.1824,0,0,3.29124,1
1774389194739,-0.067994,0.988197,-0.266934,-0.823749,-50.412,18.3629,0,0,3.26998,1
1774389194753,-0.0596499,0.986225,-0.267528,-0.973224,-48.5871,17.5889,0,0,3.24781,1
1774389194766,-0.0505177,0.984426,-0.268,-1.15927,-47.1091,16.8605,0,0,3.31915,3
1774389194779,-0.0404823,0.984925,-0.267874,-1.38584,-46.0038,16.1434,0,0,3.26028,3
1774389194793,-0.0307149,0.985211,-0.267338,-1.54361,-45.2679,15.4045,0,0,3.29329,3
1774389194807,-0.0198158,0.984918,-0.266367,-1.62616,-44.9326,14.7091,0,0,3.61209,3
1774389194820,-0.00979915,0.985044,-0.265405,-1.74433,-45.0152,14.111,0,0,3.26229,3
1774389194833,-0.00159783,0.985313,-0.264582,-1.8503,-45.4494,13.5892,0,0,3.28633,3
1774389194847,0.00368236,0.985817,-0.26325,-1.95033,-46.108,13.1631,0,0,3.24705,3
1774389194860,0.00496271,0.985935,-0.2625,-2.01563,-46.7892,12.6881,0,0,3.27063,3
1774389194873,0.00249285,0.984949,-0.262466,-2.10767,-47.3538,12.2007,0,0,3.27824,3
1774389194887,-0.00124631,0.983877,-0.262369,-2.23223,-47.7018,11.6384,0,0,3.28844,3
1774389194900,-0.00713883,0.983387,-0.263024,-2.34552,-47.7429,11.0237,0,0,3.2679,3
1774389194914,-0.0137773,0.984135,-0.26318,-2.4593,-47.4546,10.3441,0,0,3.31698,3
1774389194927,-0.0219725,0.984658,-0.264195,-2.50076,-46.8001,9.60545,0,0,3.27404,3
1774389194940,-0.0297987,0.983086,-0.265154,-2.587,-45.7995,8.9215,0,0,3.26639,3
1774389194954,-0.0406351,0.987093,-0.266574,-2.68681,-44.3168,8.25622,0,0,3.2952,3
1774389194967,-0.052044,0.982415,-0.268005,-2.90477,-42.3842,7.58501,0,0,3.24711,2
1774389194981,-0.0606051,0.983494,-0.269001,-3.11478,-40.1065,7.00583,0,0,3.28772,3
1774389194994,-0.0598658,0.982337,-0.269046,-3.35926,-37.7995,6.71519,0,0,3.26355,3
1774389195007,-0.0579097,0.984369,-0.268757,-3.56177,-35.5803,6.48368,0,0,3.29215,3
1774389195021,-0.0558683,0.985352,-0.268268,-3.74135,-33.5323,6.30411,0,0,3.26767,3
1774389195034,-0.0535211,0.986206,-0.267629,-3.87918,-31.5846,6.16331,0,0,3.25494,3
1774389195048,-0.0505506,0.986916,-0.267146,-3.97973,-29.7641,6.01927,0,0,3.31379,3
1774389195061,-0.047112,0.987456,-0.266269,-4.06993,-28.0723,5.82636,0,0,3.30368,3
1774389195074,-0.044283,0.988688,-0.265376,-4.12081,-26.5036,5.61002,0,0,3.2877,3
1774389195089,-0.0420794,0.989247,-0.264639,-4.13673,-25.035,5.40495,0,0,3.27526,3
1774389195103,-0.0402178,0.989653,-0.264191,-4.09738,-23.6817,5.19384,0,0,3.29055,5
1774389195119,-0.039185,0.988771,-0.264222,-4.0902,-22.3439,5.05151,0,0,3.32785,5
1774389195132,-0.038507,0.987682,-0.26424,-4.1301,-21.0563,4.96555,0,0,3.27303,5
1774389195145,-0.0373142,0.986266,-0.263618,-4.2367,-19.8067,4.93751,0,0,3.31566,5
1774389195159,-0.0359919,0.985917,-0.262883,-4.38314,-18.6237,4.93117,0,0,3.30468,5
1774389195175,-0.0349518,0.984227,-0.262363,-4.63312,-17.4601,4.9954,0,0,3.27626,5
1774389195188,-0.0338183,0.983357,-0.261833,-4.94615,-16.327,5.10356,0,0,3.238,5
1774389195203,-0.0331294,0.982676,-0.261208,-5.32083,-15.2326,5.27888,0,0,3.28713,5
1774389195216,-0.0316913,0.983935,-0.259843,-5.70876,-14.194,5.48418,0,0,3.26566,5
1774389195231,-0.0295579,0.985279,-0.258654,-6.01669,-13.2279,5.63129,0,0,4.79135,5
1774389195244,-0.0273578,0.987844,-0.257336,-6.24655,-12.3497,5.74789,0,0,3.26229,5
1774389195258,-0.0257343,0.98892,-0.256172,-6.42454,-11.5238,5.85452,0,0,3.27357,5
1774389195271,-0.023413,0.990334,-0.254898,-6.57586,-10.7708,5.94232,0,0,3.2709,5
1774389195285,-0.0208196,0.992283,-0.253542,-6.63091,-10.1003,5.97296,0,0,3.85778,5
1774389195298,-0.0183183,0.99276,-0.251743,-6.64476,-9.49606,5.97919,0,0,3.2742,5
1774389195312,-0.0160437,0.993727,-0.249787,-6.63428,-8.9437,5.9324,0,0,3.53882,5
1774389195325,-0.0136765,0.99444,-0.247992,-6.55803,-8.43432,5.83471,0,0,3.30344,5
1774389195339,-0.0112099,0.995419,-0.246361,-6.43938,-7.97021,5.67699,0,0,3.25372,5
1774389195354,-0.00979082,0.995694,-0.244822,-6.27728,-7.54841,5.52083,0,0,4.84392,5
1774389195367,-0.00816683,0.996577,-0.243351,-6.09131,-7.15026,5.3349,0,0,3.25139,5
1774389195381,-0.00643236,0.996513,-0.242201,-5.87509,-6.77745,5.14442,0,0,3.28841,5
1774389195395,-0.00517946,0.996334,-0.241026,-5.69584,-6.42811,4.9766,0,0,3.27841,5
1774389195408,-0.00421624,0.996281,-0.239977,-5.53606,-6.09409,4.82034,0,0,3.24066,5
1774389195421,-0.00291078,0.996156,-0.238589,-5.39038,-5.78309,4.68227,0,0,3.28711,5
1774389195435,-0.00188663,0.996003,-0.237572,-5.26657,-5.49809,4.55493,0,0,3.24526,5
1774389195450,-0.000651015,0.995772,-0.236375,-5.15057,-5.25092,4.43432,0,0,4.83744,5
1774389195463,0.000477175,0.995776,-0.235647,-5.03508,-5.00092,4.30633,0,0,3.239,5
1774389195476,0.00165212,0.996185,-0.234599,-4.90722,-4.76793,4.17482,0,0,3.2917,5
1774389195490,0.00264756,0.996063,-0.233767,-4.77755,-4.55829,4.04341,0,0,3.2757,5
1774389195504,0.00374894,0.996289,-0.2328,-4.65343,-4.35827,3.90781,0,0,3.92491,5
1774389195517,0.00482351,0.996387,-0.231663,-4.52001,-4.15705,3.79437,0,0,3.34942,5
1774389195530,0.00595785,0.996855,-0.230853,-4.37224,-3.97611,3.66504,0,0,3.23228,5
1774389195544,0.00705326,0.997761,-0.229224,-4.20063,-3.80789,3.53524,0,0,3.29537,5
1774389195557,0.0081328,0.997688,-0.228221,-4.0074,-3.64868,3.40203,0,0,3.24013,5
1774389195572,0.00872738,0.997714,-0.22739,-3.828,-3.48298,3.27457,0,0,4.72333,5
1774389195585,0.00936001,0.997729,-0.226415,-3.64839,-3.33214,3.15983,0,0,3.24546,5
1774389195599,0.0100931,0.99801,-0.225503,-3.4947,-3.1949,3.04981,0,0,3.27942,5
1774389195612,0.0107194,0.998033,-0.224663,-3.33036,-3.0675,2.94211,0,0,3.27153,5
1774389195626,0.0115745,0.998439,-0.22386,-3.15683,-2.93869,2.8336,0,0,3.86963,5
1774389195639,0.0123176,0.998208,-0.223295,-2.99945,-2.82052,2.72904,0,0,3.27383,5
1774389195653,0.0131882,0.998661,-0.222498,-2.83249,-2.69785,2.61921,0,0,3.24605,5
1774389195667,0.0139141,0.998538,-0.221726,-2.69587,-2.59362,2.52924,0,0,3.28092,5
1774389195680,0.0144266,0.998868,-0.221339,-2.57077,-2.49224,2.45117,0,0,3.24079,5
1774389195695,0.0154079,0.998897,-0.220863,-2.45012,-2.40426,2.36977,0,0,4.81166,5
1774389195709,0.0161007,0.998731,-0.220333,-2.31012,-2.32249,2.28908,0,0,3.245,5
1774389195722,0.0166245,0.998744,-0.219548,-2.17155,-2.23889,2.22577,0,0,3.32961,5
1774389195735,0.0170292,0.998618,-0.219086,-2.04717,-2.15698,2.16129,0,0,3.27524,1
1774389195749,0.0175763,0.998806,-0.218794,-1.92035,-2.08909,2.09615,0,0,3.82354,1
1774389195763,0.0177259,0.998602,-0.218322,-1.81049,-2.02885,2.0488,0,0,3.27768,1
1774389195776,0.0180184,0.999005,-0.217743,-1.69823,-1.95187,1.99468,0,0,3.24239,1
1774389195790,0.0185116,0.999379,-0.216954,-1.57429,-1.87707,1.93546,0,0,3.29318,1
1774389195804,0.0191328,0.999481,-0.216552,-1.4483,-1.81246,1.86714,0,0,3.23414,1
1774389195817,0.0195986,0.999312,-0.216221,-1.32938,-1.76903,1.79881,0,0,3.28785,1
1774389195831,0.0204392,0.999459,-0.215745,-1.21028,-1.7169,1.72403,0,0,3.28611,5
1774389195845,0.0207625,0.999024,-0.215438,-1.09487,-1.67883,1.65387,0,0,4.00041,5
1774389195858,0.0211677,0.999056,-0.215551,-0.96323,-1.64161,1.58379,0,0,3.28131,5
1774389195872,0.0213631,0.998745,-0.215296,-0.85953,-1.60305,1.51379,0,0,3.24128,5
1774389195885,0.0218168,0.999067,-0.214977,-0.745377,-1.58506,1.44815,0,0,3.27839,5
1774389195898,0.0216848,0.999022,-0.214886,-0.650043,-1.54797,1.3939,0,0,3.24365,5
1774389195913,0.0218789,0.999182,-0.214575,-0.553635,-1.51166,1.34654,0,0,4.79477,5
1774389195927,0.0219791,0.998972,-0.214255,-0.468628,-1.47954,1.29499,0,0,3.26503,5
1774389195940,0.0218934,0.998772,-0.213811,-0.390103,-1.4475,1.23776,0,0,3.30753,5
1774389195953,0.0223346,0.998697,-0.213803,-0.320265,-1.42711,1.18889,0,0,3.2805,5
1774389195970,0.022543,0.998498,-0.213849,-0.265476,-1.39587,1.14532,0,0,6.58,5
1774389195984,0.0225181,0.998649,-0.213572,-0.204769,-1.37581,1.09349,0,0,3.33985,5
1774389195998,0.0228039,0.998399,-0.213617,-0.161597,-1.36329,1.05442,0,0,3.88536,5
1774389196011,0.0230878,0.998533,-0.213638,-0.12727,-1.34634,1.02568,0,0,3.24872,5
1774389196024,0.02337,0.997956,-0.213627,-0.115849,-1.33847,1.00283,0,0,3.28146,5
1774389196039,0.023437,0.997715,-0.213424,-0.121768,-1.33148,0.982118,0,0,4.78903,5
1774389196053,0.0235545,0.997548,-0.21355,-0.14277,-1.3146,0.968134,0,0,3.24539,5
1774389196067,0.0240832,0.997655,-0.212934,-0.165163,-1.29952,0.961358,0,0,4.76459,5
1774389196081,0.0243433,0.997523,-0.212954,-0.190582,-1.29385,0.9601,0,0,3.24068,5
1774389196094,0.0243784,0.997503,-0.212727,-0.210293,-1.28379,0.965335,0,0,3.27672,5
1774389196108,0.0248497,0.997559,-0.212606,-0.235749,-1.28928,0.955719,0,0,3.27126,5
1774389196121,0.0248307,0.997527,-0.212405,-0.27091,-1.28718,0.948783,0,0,3.85843,5
1774389196135,0.0248979,0.997763,-0.212511,-0.291682,-1.27707,0.954225,0,0,3.28655,5
1774389196148,0.0249835,0.997882,-0.212122,-0.312145,-1.2581,0.971351,0,0,3.24428,5
1774389196162,0.0253536,0.997783,-0.211942,-0.318614,-1.24962,0.971673,0,0,3.28563,3
1774389196176,0.0260065,0.997922,-0.211973,-0.324293,-1.23862,0.965126,0,0,3.23637,1
1774389196191,0.0261718,0.99749,-0.211938,-0.32794,-1.2171,0.963229,0,0,4.74853,1
1774389196204,0.0262764,0.997397,-0.211339,-0.333523,-1.21391,0.959725,0,0,3.23755,5
1774389196217,0.0266007,0.997724,-0.21129,-0.330658,-1.19506,0.940147,0,0,3.28122,1
1774389196231,0.0270923,0.998027,-0.210975,-0.299693,-1.16742,0.915244,0,0,3.27789,5
1774389196245,0.0271567,0.998156,-0.210771,-0.258048,-1.14047,0.889597,0,0,3.9286,5
1774389196258,0.0271862,0.998044,-0.210693,-0.211031,-1.1129,0.855112,0,0,3.27679,5
1774389196272,0.0269902,0.997756,-0.21112,-0.179069,-1.0843,0.840973,0,0,3.24216,5
1774389196286,0.0269096,0.997961,-0.211315,-0.145903,-1.06672,0.83405,0,0,3.8845,1
1774389196299,0.0272489,0.997815,-0.211181,-0.114597,-1.05356,0.813386,0,0,3.24511,1
1774389196312,0.0273812,0.997847,-0.211138,-0.0786239,-1.036,0.792596,0,0,3.26896,1
1774389196326,0.027529,0.99793,-0.21114,-0.0536607,-1.02799,0.770403,0,0,3.52867,1
1774389196339,0.0277985,0.998213,-0.211281,-0.0215341,-1.02599,0.745173,0,0,3.26529,1
1774389196353,0.0276932,0.99828,-0.211202,-0.00748061,-1.02539,0.725212,0,0,3.27203,5
1774389196366,0.0278701,0.998174,-0.211105,0.018202,-1.01754,0.703373,0,0,3.24213,5
1774389196379,0.0278898,0.997848,-0.210937,0.0158964,-1.00714,0.699031,0,0,3.29352,5
1774389196393,0.0277271,0.997835,-0.210756,0.0248531,-1.00888,0.701354,0,0,3.24435,5
1774389196406,0.0276676,0.997855,-0.210571,0.00675972,-1.00238,0.709542,0,0,3.27113,5
1774389196419,0.0276748,0.998173,-0.210331,-0.00432411,-0.998396,0.718984,0,0,3.26426,5
1774389196433,0.0276924,0.998157,-0.210304,-0.0186399,-0.998058,0.720617,0,0,3.30805,5
1774389196446,0.027848,0.998227,-0.210503,-0.0248735,-1.00973,0.729437,0,0,3.27024,5
1774389196460,0.0275483,0.997899,-0.210394,-0.0444594,-1.00833,0.74076,0,0,3.24668,5
1774389196473,0.0277102,0.997638,-0.210161,-0.0740796,-1.01557,0.752304,0,0,3.28316,5
1774389196486,0.0275767,0.997699,-0.210099,-0.110602,-1.00998,0.764913,0,0,3.24916,5
1774389196500,0.0277267,0.997757,-0.209976,-0.153211,-1.01841,0.773818,0,0,3.29352,1
1774389196513,0.0279875,0.997951,-0.209986,-0.182726,-1.02466,0.778798,0,0,3.24568,5
1774389196526,0.0280662,0.99803,-0.20976,-0.207588,-1.03484,0.777932,0,0,3.27974,5
1774389196540,0.0280559,0.998159,-0.209513,-0.213499,-1.0483,0.77112,0,0,3.27529,1
1774389196553,0.0281315,0.998613,-0.209565,-0.226786,-1.04345,0.768543,0,0,3.26428,1
1774389196567,0.028033,0.998919,-0.209358,-0.22006,-1.05728,0.767396,0,0,3.27163,1
1774389196580,0.0282378,0.998785,-0.209512,-0.227841,-1.05707,0.772308,0,0,3.23916,1
1774389196593,0.0281026,0.998646,-0.209745,-0.222768,-1.068,0.772662,0,0,3.33728,5
1774389196607,0.0280908,0.99846,-0.209488,-0.209845,-1.08302,0.759295,0,0,3.24115,3
1774389196620,0.0280154,0.998356,-0.209573,-0.178805,-1.09464,0.750531,0,0,3.2875,5
1774389196633,0.0280074,0.998449,-0.209547,-0.166207,-1.11159,0.746112,0,0,3.28379,3
1774389196647,0.0280531,0.998368,-0.209501,-0.142754,-1.10533,0.738516,0,0,3.28494,5
1774389196660,0.0280648,0.998418,-0.209756,-0.131749,-1.10927,0.736912,0,0,3.28142,1
1774389196673,0.0280332,0.99837,-0.20953,-0.125215,-1.10657,0.743534,0,0,3.23694,1
1774389196687,0.027939,0.99843,-0.209794,-0.114338,-1.12586,0.740364,0,0,3.284,1
1774389196700,0.0280518,0.998403,-0.209588,-0.12077,-1.11965,0.754928,0,0,3.2439,1
1774389196714,0.0280101,0.998665,-0.209295,-0.117849,-1.12322,0.751547,0,0,3.27503,1
1774389196727,0.0282052,0.998851,-0.209132,-0.107385,-1.12744,0.753066,0,0,3.26792,1
1774389196740,0.0282423,0.99888,-0.209051,-0.104787,-1.1357,0.7545,0,0,3.31476,5
1774389196754,0.028171,0.998822,-0.209026,-0.0916303,-1.14265,0.763132,0,0,3.26931,1
1774389196767,0.0281134,0.998692,-0.209014,-0.0912006,-1.14578,0.759291,0,0,3.25929,5
1774389196781,0.0284428,0.998589,-0.208788,-0.0860849,-1.15259,0.753953,0,0,3.42213,1
1774389196794,0.02832,0.998704,-0.208978,-0.0855381,-1.15003,0.752768,0,0,3.26627,1
1774389196807,0.0282346,0.998665,-0.208733,-0.082881,-1.14975,0.74908,0,0,3.2722,3
1774389196821,0.0284839,0.998766,-0.208627,-0.089793,-1.15505,0.746455,0,0,3.27218,1
1774389196834,0.0285408,0.998735,-0.20877,-0.0967455,-1.14892,0.745263,0,0,3.32909,1
1774389196848,0.0287661,0.998801,-0.208395,-0.105449,-1.14656,0.73857,0,0,3.2719,5
1774389196861,0.0288533,0.998821,-0.208368,-0.113236,-1.15119,0.729684,0,0,3.26757,1
1774389196875,0.0290863,0.998734,-0.208299,-0.112879,-1.14271,0.726863,0,0,3.27589,5
1774389196888,0.0290955,0.998597,-0.208393,-0.0902763,-1.13641,0.716065,0,0,3.26205,1
1774389196901,0.0293712,0.998765,-0.20829,-0.081787,-1.13048,0.729422,0,0,3.3125,1
1774389196915,0.0292505,0.998702,-0.208577,-0.0737738,-1.11802,0.714626,0,0,3.262,1
1774389196928,0.0293913,0.99862,-0.208573,-0.0760585,-1.1251,0.702802,0,0,3.30276,1
1774389196942,0.0296007,0.998691,-0.208794,-0.0572338,-1.12708,0.702345,0,0,3.27737,1
1774389196955,0.0297796,0.998855,-0.208642,-0.0540235,-1.11438,0.692493,0,0,3.27409,1
1774389196968,0.0297799,0.998819,-0.208711,-0.0390039,-1.11995,0.694756,0,0,3.27027,1
1774389196982,0.0299403,0.998967,-0.208338,-0.0321061,-1.11537,0.685758,0,0,3.25552,1
1774389196995,0.0299869,0.998852,-0.208463,-0.0196005,-1.10204,0.684973,0,0,3.29681,1
1774389197009,0.0299353,0.998881,-0.208261,-0.0146474,-1.10103,0.679949,0,0,3.26163,5
1774389197022,0.0299288,0.998877,-0.208368,-0.0202486,-1.09922,0.677777,0,0,3.30003,5
1774389197036,0.0300293,0.998894,-0.20864,-0.0131182,-1.10007,0.677868,0,0,3.74334,1
1774389197049,0.0298157,0.99906,-0.208783,-0.011526,-1.09832,0.684376,0,0,3.30574,1
1774389197063,0.0299212,0.999069,-0.20907,-0.00959488,-1.0928,0.698654,0,0,3.28457,1
1774389197076,0.0296163,0.99896,-0.209077,-0.018905,-1.09402,0.718127,0,0,3.25739,1
1774389197090,0.029613,0.998664,-0.208827,-0.0324029,-1.09688,0.724946,0,0,3.29055,5
1774389197103,0.0295991,0.998637,-0.208781,-0.0545638,-1.10172,0.737377,0,0,3.25965,5
1774389197116,0.0295325,0.998739,-0.208512,-0.0707715,-1.10929,0.747826,0,0,3.27063,5
1774389197130,0.0292233,0.998549,-0.208842,-0.0852138,-1.11215,0.747841,0,0,3.27257,5
1774389197143,0.0293546,0.998687,-0.208603,-0.0945641,-1.10715,0.754278,0,0,3.28063,1
1774389197157,0.0293521,0.998477,-0.208225,-0.0978235,-1.10799,0.769774,0,0,3.2802,5
1774389197170,0.0295846,0.99848,-0.207799,-0.10561,-1.11221,0.778834,0,0,3.25948,1
1774389197183,0.0297321,0.998696,-0.208,-0.116814,-1.1072,0.788671,0,0,3.27453,1
1774389197197,0.0299587,0.998785,-0.207733,-0.12953,-1.11403,0.778687,0,0,3.25659,1
1774389197210,0.0299404,0.99856,-0.207767,-0.137679,-1.11748,0.771405,0,0,3.28242,1
1774389197224,0.0300084,0.998549,-0.207863,-0.142802,-1.12588,0.764102,0,0,3.27007,1
1774389197237,0.0299772,0.998302,-0.208179,-0.154916,-1.12053,0.758922,0,0,3.66146,1
1774389197251,0.0299048,0.998024,-0.208363,-0.174487,-1.1142,0.760456,0,0,3.26629,1
1774389197264,0.0294084,0.997919,-0.208391,-0.20709,-1.10865,0.772608,0,0,3.26824,1
1774389197278,0.0295423,0.998266,-0.208502,-0.244287,-1.10598,0.792214,0,0,3.27881,1
1774389197291,0.0297558,0.997957,-0.208277,-0.269549,-1.11716,0.792736,0,0,3.25411,1
1774389197304,0.0300561,0.998047,-0.208041,-0.307953,-1.12386,0.799224,0,0,3.31063,5
1774389197318,0.030546,0.997844,-0.208072,-0.335211,-1.13062,0.799781,0,0,3.28905,5
1774389197331,0.0305982,0.997938,-0.207962,-0.36308,-1.13228,0.80202,0,0,3.28783,5
1774389197345,0.0305412,0.997847,-0.207687,-0.391955,-1.13856,0.809272,0,0,3.27563,1
1774389197358,0.0300598,0.998208,-0.207605,-0.411076,-1.1415,0.813975,0,0,3.29315,1
1774389197372,0.0303147,0.998094,-0.207526,-0.446679,-1.13442,0.832545,0,0,3.27102,1
1774389197385,0.0304303,0.998103,-0.207345,-0.469581,-1.13844,0.849218,0,0,3.25333,1
1774389197398,0.0309253,0.99809,-0.207171,-0.489485,-1.13752,0.850824,0,0,3.3034,5
1774389197412,0.0309074,0.998194,-0.207026,-0.494999,-1.1388,0.866043,0,0,3.25629,5
1774389197425,0.0308263,0.998647,-0.206407,-0.483932,-1.1353,0.868419,0,0,3.29817,5
1774389197439,0.0309089,0.998503,-0.206637,-0.476912,-1.13113,0.869805,0,0,3.69763,5
1774389197453,0.031148,0.998921,-0.206579,-0.459581,-1.12249,0.873254,0,0,3.33163,5
1774389197466,0.0309496,0.998659,-0.206236,-0.46506,-1.1092,0.860667,0,0,3.27753,5
1774389197479,0.0310909,0.99891,-0.206463,-0.458242,-1.10436,0.862488,0,0,3.26,5
1774389197493,0.0309804,0.998797,-0.205933,-0.459942,-1.10407,0.854358,0,0,3.32039,5
1774389197506,0.0309708,0.998626,-0.205874,-0.453411,-1.09952,0.8454,0,0,3.26111,5
1774389197520,0.0308763,0.998835,-0.205882,-0.457951,-1.0918,0.845508,0,0,3.27239,5
1774389197533,0.0309674,0.998822,-0.205804,-0.462665,-1.08579,0.83148,0,0,3.2839,5
1774389197546,0.0308516,0.998906,-0.205409,-0.453412,-1.08911,0.815242,0,0,3.28252,1
1774389197560,0.0311787,0.998719,-0.205245,-0.458808,-1.09439,0.793063,0,0,3.28096,1
1774389197573,0.0315768,0.99886,-0.205313,-0.463046,-1.10237,0.776411,0,0,3.25687,1
1774389197587,0.0314664,0.99891,-0.205196,-0.46362,-1.11161,0.763689,0,0,3.27646,1
1774389197600,0.0311687,0.999118,-0.205009,-0.464162,-1.10621,0.771378,0,0,3.25583,1
1774389197613,0.0313538,0.999434,-0.205087,-0.462104,-1.11096,0.783346,0,0,3.28139,1
1774389197627,0.0317763,0.999565,-0.204862,-0.450314,-1.11501,0.772804,0,0,3.27415,1
1774389197640,0.0318707,0.999798,-0.204455,-0.431049,-1.10642,0.756003,0,0,3.33002,1
1774389197654,0.0319931,0.999796,-0.204152,-0.403445,-1.09617,0.749993,0,0,3.27981,1
1774389197667,0.0322275,1.00011,-0.203669,-0.376105,-1.08735,0.741323,0,0,3.26861,1
1774389197680,0.0324623,1.00013,-0.203602,-0.340022,-1.06232,0.737421,0,0,3.28346,5
1774389197694,0.0325268,0.999986,-0.203582,-0.316239,-1.0584,0.739732,0,0,3.25859,1
1774389197707,0.0326524,1.00019,-0.203348,-0.26553,-1.04742,0.736775,0,0,3.31341,1
1774389197721,0.0326765,1.00016,-0.203264,-0.22837,-1.03876,0.739551,0,0,3.26522,1
1774389197734,0.032518,1.0003,-0.202894,-0.191582,-1.02888,0.736176,0,0,3.29413,1
1774389197747,0.0325266,1.00011,-0.202755,-0.152147,-1.00585,0.730422,0,0,3.28689,1
1774389197761,0.0325776,1.00008,-0.202504,-0.108074,-0.991392,0.730985,0,0,3.27772,1
1774389197774,0.0326904,1.00009,-0.202361,-0.0716102,-0.982455,0.726378,0,0,3.27153,5
1774389197788,0.0327875,0.999925,-0.202586,-0.0371922,-0.962458,0.729737,0,0,3.25522,5
1774389197801,0.0327096,1.00006,-0.20229,-0.0111275,-0.953859,0.7252,0,0,3.31896,5
1774389197814,0.0323895,1.0001,-0.202454,0.0130469,-0.953878,0.732907,0,0,3.25757,5
1774389197828,0.032361,0.999815,-0.202473,0.0337244,-0.94362,0.732474,0,0,3.3035,5
1774389197841,0.0324299,0.999556,-0.20248,0.0502447,-0.933937,0.740201,0,0,3.27176,5
1774389197855,0.0326986,0.99933,-0.202444,0.0752585,-0.921371,0.731652,0,0,3.34633,5
1774389197868,0.0324858,0.999466,-0.202485,0.0928746,-0.934345,0.712877,0,0,3.2774,5
1774389197881,0.0326666,0.999361,-0.20216,0.0983697,-0.937172,0.696441,0,0,3.25302,5
1774389197895,0.0333307,0.999368,-0.202074,0.0979901,-0.948403,0.683923,0,0,3.30996,5
1774389197908,0.0337736,0.999214,-0.201939,0.105767,-0.947016,0.676818,0,0,3.26305,5
1774389197922,0.0337379,0.999312,-0.202236,0.113108,-0.950844,0.655553,0,0,3.30161,5
1774389197935,0.0333729,0.99946,-0.202574,0.119609,-0.94675,0.655605,0,0,3.27429,5
1774389197949,0.0328957,0.999483,-0.202748,0.115469,-0.950165,0.656511,0,0,3.30518,5
1774389197962,0.032418,0.999442,-0.202412,0.115415,-0.960668,0.660792,0,0,3.27279,5
1774389197975,0.032431,0.999434,-0.202464,0.122643,-0.975292,0.662263,0,0,3.25692,5
1774389197989,0.0324114,0.99931,-0.202258,0.127753,-0.96897,0.657657,0,0,3.28122,5
1774389198002,0.0323712,0.999169,-0.202339,0.128723,-0.958293,0.662302,0,0,3.27768,5
1774389198016,0.032461,0.999013,-0.202544,0.128353,-0.961061,0.656409,0,0,3.28005,5
1774389198029,0.0324828,0.999046,-0.20257,0.136568,-0.96453,0.641427,0,0,3.27089,5
1774389198042,0.032557,0.99866,-0.202647,0.143038,-0.952817,0.637562,0,0,3.28611,5
1774389198056,0.032628,0.998505,-0.202465,0.145291,-0.950754,0.623637,0,0,3.27713,5
1774389198069,0.0325357,0.998581,-0.202313,0.148703,-0.953945,0.617773,0,0,3.27065,5
1774389198083,0.0326182,0.998473,-0.202273,0.152351,-0.950533,0.611809,0,0,3.28122,5
1774389198096,0.0326438,0.998518,-0.202215,0.146374,-0.965297,0.60832,0,0,3.27453,5
1774389198109,0.0324868,0.998423,-0.202116,0.141589,-0.970241,0.602458,0,0,3.31978,5
1774389198123,0.0323793,0.998524,-0.202277,0.128937,-0.974479,0.601207,0,0,3.26031,5
1774389198136,0.0325541,0.998353,-0.202229,0.119564,-0.976767,0.594032,0,0,3.3017,5
1774389198150,0.0326145,0.998319,-0.202417,0.110716,-0.967794,0.587258,0,0,3.30885,5
1774389198163,0.0325335,0.998371,-0.202545,0.098083,-0.974739,0.589001,0,0,3.28046,5
1774389198176,0.0323172,0.998485,-0.202559,0.087443,-0.975728,0.594499,0,0,3.27183,5
1774389198190,0.0319716,0.99838,-0.20283,0.079969,-0.980515,0.59712,0,0,3.25779,5
1774389198203,0.032207,0.998334,-0.203067,0.0630659,-0.995738,0.591458,0,0,3.2889,1
1774389198217,0.0320904,0.998161,-0.203272,0.0505365,-0.997261,0.600244,0,0,3.25457,1
1774389198230,0.0317974,0.998124,-0.203276,0.0421354,-1.00555,0.608537,0,0,3.30511,1
1774389198243,0.0319549,0.998014,-0.203291,0.0372028,-1.0198,0.616793,0,0,3.27087,1
1774389198257,0.0318601,0.998079,-0.203391,0.0269804,-1.0204,0.62844,0,0,3.29185,1
1774389198270,0.0320362,0.998227,-0.203657,0.0224697,-1.02354,0.636864,0,0,3.26866,1
1774389198284,0.0318097,0.998187,-0.203697,0.0199248,-1.02393,0.649954,0,0,3.27348,1
1774389198297,0.031561,0.998502,-0.203619,0.043642,-1.01788,0.658028,0,0,3.30059,1
1774389198310,0.0315687,0.998183,-0.203373,0.0523268,-1.01431,0.672072,0,0,3.29568,1
1774389198324,0.0315441,0.99823,-0.203191,0.0750829,-1.00451,0.675052,0,0,3.37681,1
1774389198337,0.0315419,0.998094,-0.20337,0.0841451,-1.01068,0.652601,0,0,3.30276,1
1774389198351,0.0311448,0.998092,-0.203904,0.0901298,-1.02336,0.649822,0,0,3.63322,1
1774389198365,0.0307971,0.997973,-0.203528,0.0992044,-1.02504,0.653621,0,0,3.30716,1
1774389198378,0.0310304,0.997794,-0.203564,0.105629,-1.0292,0.6495,0,0,3.28942,1
1774389198391,0.0309653,0.997912,-0.203651,0.111693,-1.02971,0.637903,0,0,3.3382,1
1774389198405,0.0312874,0.998057,-0.203554,0.117417,-1.0259,0.634664,0,0,3.29742,1
1774389198418,0.0309547,0.998163,-0.203428,0.13695,-1.02616,0.62818,0,0,3.33972,5
1774389198432,0.0311492,0.998542,-0.203543,0.15025,-1.03283,0.618207,0,0,3.30833,5
1774389198445,0.0314739,0.998467,-0.203098,0.15638,-1.0434,0.60023,0,0,3.37261,5
1774389198459,0.0314854,0.998385,-0.203312,0.161739,-1.0521,0.590112,0,0,3.35159,5
1774389198472,0.031283,0.99821,-0.203486,0.156092,-1.05603,0.589125,0,0,3.30635,5
1774389198486,0.0313456,0.998619,-0.203491,0.16532,-1.05075,0.601467,0,0,3.30942,5
1774389198499,0.0310424,0.998573,-0.20371,0.153478,-1.0509,0.603269,0,0,3.33946,5
1774389198513,0.0311903,0.998528,-0.203962,0.158143,-1.06774,0.612677,0,0,3.30316,5
1774389198526,0.0313531,0.998625,-0.203637,0.162118,-1.06137,0.615134,0,0,3.28492,5
1774389198540,0.0317863,0.99845,-0.203391,0.15859,-1.07035,0.623449,0,0,3.34365,5
1774389198553,0.0319337,0.998486,-0.20339,0.182237,-1.07282,0.627015,0,0,3.50543,5
1774389198567,0.0313486,0.998552,-0.203239,0.186573,-1.07901,0.636375,0,0,3.28531,5
1774389198580,0.0310774,0.998669,-0.203597,0.198373,-1.09299,0.636647,0,0,3.26848,5
1774389198593,0.0309675,0.998545,-0.203812,0.211225,-1.08863,0.64247,0,0,3.27455,5
1774389198607,0.0309051,0.998759,-0.203355,0.214363,-1.07852,0.653533,0,0,3.27585,5
1774389198620,0.0308668,0.998589,-0.203227,0.236594,-1.0677,0.654127,0,0,3.27731,1
1774389198634,0.0306487,0.998618,-0.203468,0.262288,-1.06133,0.653831,0,0,3.27442,5
1774389198647,0.0304507,0.998423,-0.203816,0.282258,-1.05575,0.646273,0,0,3.28985,5
1774389198660,0.0307633,0.998545,-0.203807,0.301109,-1.06547,0.640423,0,0,3.28302,5
1774389198674,0.0307098,0.998641,-0.203607,0.315477,-1.08021,0.641324,0,0,3.27685,5
1774389198687,0.0307014,0.999042,-0.203842,0.335461,-1.07999,0.646457,0,0,3.25726,5
1774389198701,0.0310137,0.999265,-0.203469,0.354325,-1.07208,0.64445,0,0,3.2999,5
1774389198714,0.0311522,0.999041,-0.203443,0.377697,-1.07146,0.637846,0,0,3.2584,5
1774389198727,0.0314661,0.999104,-0.203483,0.391194,-1.06103,0.632041,0,0,3.28726,5
1774389198741,0.0317022,0.998877,-0.20368,0.397939,-1.05803,0.61971,0,0,3.27389,5
1774389198755,0.0318426,0.999011,-0.204158,0.405163,-1.0582,0.605931,0,0,3.6668,5
1774389198768,0.0321156,0.998841,-0.204593,0.415407,-1.05066,0.598062,0,0,3.27637,5
1774389198781,0.0322593,0.998571,-0.204316,0.426789,-1.03411,0.604765,0,0,3.2517,5
1774389198795,0.0320763,0.998708,-0.204509,0.431966,-1.02107,0.590538,0,0,3.282,5
1774389198808,0.0321897,0.998861,-0.204502,0.437709,-1.0246,0.583961,0,0,3.25294,5
1774389198822,0.0321592,0.998815,-0.204356,0.428999,-1.02536,0.582891,0,0,3.28398,5
1774389198835,0.03197,0.998856,-0.204249,0.417353,-1.03507,0.580597,0,0,3.27798,5
1774389198848,0.0317357,0.998767,-0.204232,0.408501,-1.03995,0.572864,0,0,3.29372,5
1774389198862,0.0314582,0.998906,-0.204237,0.408281,-1.03471,0.556574,0,0,3.29591,5
1774389198875,0.0315238,0.998815,-0.204178,0.397797,-1.03362,0.549333,0,0,3.29733,5
1774389198889,0.0314584,0.999017,-0.204302,0.383619,-1.04116,0.536931,0,0,3.2742,5
1774389198902,0.0312465,0.999028,-0.204176,0.382226,-1.03328,0.53122,0,0,3.2599,5
1774389198915,0.0303925,0.999252,-0.204824,0.39761,-1.03142,0.52583,0,0,3.3109,5
1774389198929,0.0304834,0.999765,-0.204696,0.386012,-1.03565,0.509608,0,0,3.26368,5
1774389198942,0.0303247,0.998996,-0.204542,0.367785,-1.03879,0.504145,0,0,3.30844,5
1774389198956,0.0306748,0.999317,-0.204502,0.360001,-1.04046,0.486571,0,0,3.27015,5
1774389198969,0.0308708,0.999038,-0.204666,0.345802,-1.0352,0.468698,0,0,3.29878,5
1774389198982,0.030535,0.999016,-0.204844,0.340107,-1.0268,0.467671,0,0,3.27989,5
1774389198996,0.0304702,0.999037,-0.204875,0.350574,-1.01545,0.470555,0,0,3.25978,5
1774389199009,0.0300132,0.998887,-0.204714,0.365165,-0.987606,0.474133,0,0,3.29502,5
1774389199023,0.0299925,0.999235,-0.204537,0.377652,-0.976312,0.452676,0,0,3.25489,5
1774389199036,0.0300902,0.999129,-0.204347,0.39629,-0.958373,0.43071,0,0,3.31507,5
1774389199049,0.0302691,0.999477,-0.204433,0.4263,-0.936729,0.414258,0,0,3.27215,5
1774389199063,0.030312,0.999329,-0.204675,0.457624,-0.925292,0.38888,0,0,3.34311,5
1774389199076,0.0301181,0.999337,-0.204596,0.49447,-0.902506,0.3615,0,0,3.27403,5
1774389199090,0.0299861,0.999291,-0.204542,0.520685,-0.880571,0.347218,0,0,3.25339,5
1774389199103,0.0300734,0.999162,-0.204801,0.536866,-0.859438,0.330739,0,0,3.29042,5
1774389199116,0.0303811,0.999049,-0.20508,0.564558,-0.845057,0.313471,0,0,3.2627,5
1774389199130,0.0304511,0.998856,-0.205293,0.564148,-0.837905,0.307877,0,0,3.29385,5
1774389199143,0.0304647,0.998671,-0.20523,0.547918,-0.837149,0.30174,0,0,3.2685,5
1774389199157,0.0304563,0.998516,-0.205128,0.524035,-0.840717,0.307509,0,0,3.28037,5
1774389199170,0.0302241,0.998645,-0.205467,0.503632,-0.850508,0.321946,0,0,3.27705,5
1774389199183,0.0301729,0.998512,-0.205514,0.462109,-0.847761,0.345421,0,0,3.28583,5
1774389199197,0.0300812,0.998588,-0.205506,0.413066,-0.860154,0.364154,0,0,3.28487,5
1774389199210,0.0303672,0.998692,-0.205573,0.36292,-0.874421,0.38569,0,0,3.25537,5
1774389199224,0.0304058,0.998643,-0.205786,0.320726,-0.889172,0.411585,0,0,3.27802,5
1774389199237,0.0303466,0.998915,-0.205723,0.273191,-0.897102,0.427891,0,0,3.27226,5
1774389199250,0.030194,0.998856,-0.20593,0.229178,-0.905443,0.447136,0,0,3.29113,5
1774389199264,0.0298238,0.998917,-0.205572,0.195342,-0.908178,0.484999,0,0,3.65022,5
1774389199277,0.0293843,0.998676,-0.205668,0.156981,-0.909474,0.517312,0,0,3.25524,5
1774389199291,0.0299464,0.998584,-0.205599,0.120771,-0.918834,0.54139,0,0,3.28161,5
1774389199304,0.0304838,0.998454,-0.20531,0.0947287,-0.923387,0.557266,0,0,3.25759,1
1774389199318,0.0309658,0.998564,-0.205097,0.0727158,-0.923831,0.564973,0,0,3.25426,1
1774389199331,0.0311277,0.998211,-0.204711,0.0438022,-0.906266,0.57867,0,0,3.2377,1
1774389199344,0.0312718,0.998503,-0.204898,0.0255024,-0.904672,0.581322,0,0,3.24809,1
1774389199358,0.0312495,0.998504,-0.204671,0.0112263,-0.905738,0.586823,0,0,3.23529,1
1774389199371,0.0309506,0.998473,-0.204454,-0.00695908,-0.914451,0.602292,0,0,3.2654,1
1774389199384,0.0311879,0.998401,-0.204567,-0.0147043,-0.919677,0.603191,0,0,3.24124,1
1774389199398,0.0312013,0.998258,-0.204749,-0.0211586,-0.923327,0.605752,0,0,3.2365,1
1774389199411,0.03115,0.997832,-0.204625,-0.0358147,-0.934907,0.609026,0,0,3.24126,1
1774389199424,0.0311971,0.997884,-0.204805,-0.0427977,-0.937701,0.609548,0,0,3.23513,1
1774389199438,0.0313809,0.997667,-0.204785,-0.0570963,-0.94248,0.625454,0,0,3.24244,1
1774389199451,0.0314179,0.997833,-0.20484,-0.0637419,-0.948704,0.63319,0,0,3.23405,1
1774389199464,0.031464,0.997842,-0.204723,-0.0742966,-0.962286,0.644345,0,0,3.2825,1
1774389199478,0.0314226,0.99798,-0.205037,-0.0808338,-0.976391,0.652733,0,0,3.24181,1
1774389199491,0.031351,0.9981,-0.205071,-0.0878607,-0.980712,0.660651,0,0,3.24311,1
1774389199504,0.0313999,0.998226,-0.205167,-0.0884988,-0.986076,0.656564,0,0,3.24324,1
1774389199518,0.0313934,0.998367,-0.205313,-0.0916702,-0.997134,0.660842,0,0,3.23211,1
1774389199531,0.0315473,0.998343,-0.205292,-0.0890973,-1.00714,0.658457,0,0,3.26361,1
1774389199544,0.0311072,0.998276,-0.205251,-0.0952325,-1.01402,0.66691,0,0,3.23922,1
1774389199558,0.0311561,0.998021,-0.205414,-0.0898907,-1.02351,0.665469,0,0,3.31346,1
1774389199571,0.0308933,0.998065,-0.205314,-0.0994068,-1.02562,0.665394,0,0,3.271,1
1774389199585,0.0311972,0.998139,-0.205389,-0.0993973,-1.02889,0.662325,0,0,3.274,1
1774389199598,0.0308792,0.998209,-0.205343,-0.102814,-1.04354,0.661141,0,0,3.28168,1
1774389199611,0.0306498,0.998106,-0.205257,-0.115459,-1.04153,0.669444,0,0,3.26646,1
1774389199625,0.0304519,0.998349,-0.205121,-0.115833,-1.04947,0.674284,0,0,3.28028,1
1774389199638,0.0303266,0.998347,-0.205311,-0.122182,-1.05055,0.689985,0,0,3.26409,1
1774389199651,0.0303884,0.998269,-0.205216,-0.13374,-1.06185,0.697526,0,0,3.29563,1
1774389199665,0.0303513,0.998345,-0.20521,-0.151501,-1.06865,0.697793,0,0,3.26122,1
1774389199678,0.0304226,0.998204,-0.205183,-0.161843,-1.08322,0.691623,0,0,3.28305,1
1774389199692,0.0304908,0.998165,-0.205189,-0.180597,-1.09139,0.687083,0,0,3.25881,1
1774389199705,0.0306628,0.998128,-0.205611,-0.196587,-1.10297,0.682798,0,0,3.27572,1
1774389199718,0.0307526,0.998295,-0.205257,-0.208682,-1.11346,0.681322,0,0,3.27559,1
1774389199732,0.0307316,0.998113,-0.205089,-0.21967,-1.11609,0.669224,0,0,3.27702,1
1774389199745,0.0304447,0.998153,-0.205088,-0.231327,-1.1053,0.66851,0,0,3.33959,1
1774389199759,0.0303731,0.998074,-0.205056,-0.23505,-1.10967,0.668264,0,0,3.27774,1
1774389199772,0.0303261,0.998073,-0.204918,-0.241562,-1.11465,0.673598,0,0,3.2755,1
1774389199785,0.030281,0.998125,-0.204733,-0.253275,-1.10779,0.668784,0,0,3.27609,1
1774389199799,0.0302273,0.9981,-0.204791,-0.254912,-1.11116,0.65739,0,0,3.27409,1
1774389199812,0.0303148,0.998066,-0.204857,-0.251746,-1.10921,0.649632,0,0,3.30863,1
1774389199826,0.0299713,0.998129,-0.204866,-0.266313,-1.09152,0.646163,0,0,3.26211,1
1774389199839,0.0302835,0.998125,-0.204694,-0.267646,-1.08853,0.627902,0,0,3.27072,1
1774389199852,0.0302403,0.997919,-0.204764,-0.267192,-1.09084,0.616232,0,0,3.27463,1
1774389199866,0.029836,0.998053,-0.205066,-0.264622,-1.08832,0.61849,0,0,3.28902,1
1774389199879,0.0298979,0.998042,-0.204981,-0.27761,-1.08508,0.612914,0,0,3.27502,1
1774389199893,0.0300531,0.998224,-0.205018,-0.27831,-1.09657,0.596518,0,0,3.27872,1
1774389199906,0.0300414,0.998269,-0.205426,-0.272975,-1.09373,0.599025,0,0,3.29157,1
1774389199919,0.0294216,0.99827,-0.205614,-0.280785,-1.08504,0.6091,0,0,3.26103,1
1774389199933,0.0287649,0.998378,-0.205942,-0.291583,-1.09569,0.621178,0,0,3.31639,1
1774389199946,0.028692,0.998011,-0.205734,-0.328751,-1.10145,0.621446,0,0,3.26687,5
1774389199960,0.0288146,0.998066,-0.205331,-0.333432,-1.11417,0.636685,0,0,3.32155,3
1774389199973,0.028889,0.998151,-0.205118,-0.349841,-1.11633,0.658777,0,0,3.57637,1
1774389199987,0.0290457,0.998018,-0.204593,-0.38374,-1.12694,0.668069,0,0,3.24881,5
1774389200000,0.029377,0.998478,-0.204272,-0.389191,-1.1318,0.68369,0,0,3.30129,5
1774389200013,0.0296617,0.998246,-0.204297,-0.387914,-1.12955,0.688587,0,0,3.26376,3
1774389200027,0.0297099,0.998216,-0.203968,-0.385423,-1.12699,0.695351,0,0,3.28315,5
1774389200040,0.0296277,0.997984,-0.204123,-0.403197,-1.12672,0.704732,0,0,3.27057,5
1774389200054,0.0296133,0.997805,-0.204229,-0.415264,-1.13075,0.726861,0,0,3.27796,5
1774389200067,0.0296421,0.997816,-0.203989,-0.425797,-1.13497,0.731477,0,0,3.27318,5
1774389200080,0.0294776,0.998082,-0.20346,-0.417756,-1.13597,0.727699,0,0,3.27477,1
1774389200094,0.0295444,0.997985,-0.20353,-0.396464,-1.14204,0.722848,0,0,3.28202,5
1774389200107,0.029619,0.997806,-0.203801,-0.38964,-1.13536,0.709278,0,0,3.25678,5
1774389200121,0.0298718,0.997763,-0.203921,-0.380202,-1.13933,0.710598,0,0,3.27935,1
1774389200134,0.029804,0.997936,-0.204153,-0.376859,-1.14479,0.704566,0,0,3.27372,1
1774389200147,0.0295896,0.998175,-0.203969,-0.367709,-1.1388,0.700585,0,0,3.2842,1
1774389200161,0.0296943,0.998458,-0.203794,-0.340233,-1.13359,0.687835,0,0,3.28096,5
1774389200174,0.0297516,0.998355,-0.203722,-0.308731,-1.12181,0.669377,0,0,3.49967,5
1774389200188,0.0296997,0.998373,-0.203546,-0.278568,-1.09229,0.652811,0,0,3.27381,5
1774389200201,0.0297888,0.998508,-0.20356,-0.25866,-1.0854,0.638459,0,0,3.27427,1
1774389200215,0.0298741,0.99851,-0.203402,-0.244151,-1.07418,0.632191,0,0,3.30841,1
1774389200228,0.0298382,0.998436,-0.203742,-0.23431,-1.07045,0.623706,0,0,3.27731,1
1774389200241,0.0298465,0.998558,-0.203384,-0.221595,-1.05451,0.616125,0,0,3.29092,1
1774389200255,0.0300894,0.998407,-0.203426,-0.224152,-1.0476,0.600833,0,0,3.27129,1
1774389200268,0.0303751,0.998327,-0.203253,-0.19231,-1.04236,0.584687,0,0,3.27385,1
1774389200282,0.0305201,0.998155,-0.203023,-0.171247,-1.03228,0.587001,0,0,3.27804,5
1774389200295,0.0304132,0.997958,-0.202857,-0.182622,-1.03303,0.593896,0,0,3.25113,1
1774389200308,0.0299907,0.998218,-0.202719,-0.201923,-1.04017,0.601689,0,0,3.30442,5
1774389200322,0.0300031,0.997901,-0.202502,-0.225708,-1.04092,0.612899,0,0,3.26152,5
1774389200335,0.0310506,0.998078,-0.203052,-0.237026,-1.04248,0.61149,0,0,3.32326,1
1774389200349,0.0314436,0.997693,-0.20329,-0.248566,-1.04694,0.61273,0,0,3.26796,1
1774389200362,0.0315313,0.997463,-0.203059,-0.283436,-1.05245,0.631027,0,0,3.33274,1
1774389200375,0.0316257,0.99721,-0.202827,-0.333478,-1.07391,0.659431,0,0,3.27039,3
1774389200389,0.031983,0.997439,-0.202637,-0.3957,-1.11858,0.703369,0,0,3.27313,5
1774389200402,0.0315025,0.997146,-0.20268,-0.46428,-1.18643,0.787661,0,0,3.29291,5
1774389200416,0.0317477,0.997612,-0.202518,-0.536292,-1.21494,0.85438,0,0,3.25944,3
1774389200429,0.0318114,0.99746,-0.202608,-0.610259,-1.23971,0.933627,0,0,3.28848,3
1774389200442,0.0320004,0.997817,-0.202001,-0.675796,-1.26266,0.999009,0,0,3.27144,3
1774389200456,0.0317967,0.997624,-0.201826,-0.72738,-1.27618,1.07699,0,0,3.30018,3
1774389200469,0.0319436,0.998048,-0.201797,-0.775642,-1.29366,1.14675,0,0,3.27339,3
1774389200483,0.0318706,0.997867,-0.201129,-0.817343,-1.30288,1.22202,0,0,3.27676,3
1774389200496,0.0312135,0.997971,-0.2008,-0.856706,-1.28889,1.29563,0,0,3.28411,3
1774389200510,0.0313326,0.998252,-0.200475,-0.888294,-1.27311,1.3741,0,0,3.29829,3
1774389200523,0.0315425,0.998243,-0.200228,-0.931812,-1.24067,1.45546,0,0,3.27774,3
1774389200536,0.0317966,0.998768,-0.199938,-0.972461,-1.20362,1.5468,0,0,3.28218,3
1774389200550,0.0321357,0.99895,-0.199907,-1.00826,-1.15109,1.65743,0,0,3.29781,3
1774389200563,0.0322998,0.999177,-0.199663,-1.06817,-1.08567,1.78926,0,0,3.26992,5
1774389200576,0.0324675,0.999096,-0.199697,-1.16069,-1.01321,1.98563,0,0,3.26065,5
