timestamp,ax,ay,az,gx,gy,gz,roll_k,pitch_k,delay_ms,classe_prevista
1772541785981,0.086943,-0.656957,-0.184469,4.91599,-26.0777,25.6724,0,0,3.25973,-1
1772541785994,0.105425,-0.791904,-0.21866,3.31881,-15.1629,12.7514,0,0,3.35088,-1
1772541786008,0.113009,-0.847591,-0.23551,2.64143,-10.7544,8.96704,0,0,3.2853,-1
1772541786021,0.117232,-0.878434,-0.244291,2.13922,-8.43291,7.07599,0,0,3.31014,-1
1772541786036,0.119071,-0.898119,-0.250075,1.84868,-7.06339,5.9315,0,0,3.26568,-1
1772541786049,0.120924,-0.911871,-0.254822,1.67184,-6.07846,5.1586,0,0,3.25901,-1
1772541786063,0.119539,-0.922298,-0.257714,1.5733,-5.3381,4.53921,0,0,3.26269,-1
1772541786076,0.120117,-0.930129,-0.260652,1.46868,-4.75268,4.04235,0,0,3.25777,-1
1772541786089,0.120549,-0.934669,-0.262956,1.40542,-4.28612,3.629,0,0,3.30142,-1
1772541786103,0.121271,-0.938561,-0.264165,1.4265,-3.91038,3.35103,0,0,3.39449,0
1772541786117,0.122328,-0.942207,-0.265763,1.47955,-3.59324,3.14907,0,0,4.01947,0
1772541786131,0.122156,-0.945777,-0.26624,1.54422,-3.30619,2.96358,0,0,3.37373,0
1772541786144,0.122469,-0.949517,-0.26643,1.53799,-3.05346,2.78315,0,0,3.28721,0
1772541786158,0.122665,-0.951478,-0.26667,1.55362,-2.8571,2.63423,0,0,3.30007,5
1772541786171,0.123124,-0.955712,-0.266809,1.49962,-2.6605,2.51827,0,0,3.31075,5
1772541786185,0.122999,-0.956182,-0.267377,1.50464,-2.48128,2.42624,0,0,3.32901,5
1772541786199,0.123594,-0.95846,-0.267489,1.52101,-2.34809,2.36003,0,0,3.71366,5
1772541786212,0.123669,-0.959967,-0.26824,1.55878,-2.23128,2.3072,0,0,3.77073,5
1772541786226,0.123477,-0.961497,-0.268259,1.59931,-2.12152,2.24344,0,0,3.26845,5
1772541786241,0.123525,-0.963154,-0.268025,1.6267,-2.01772,2.16314,0,0,3.78342,5
1772541786255,0.123252,-0.963989,-0.268388,1.65524,-1.9185,2.07768,0,0,3.30206,5
1772541786268,0.123704,-0.965583,-0.268496,1.66484,-1.82316,2.00346,0,0,3.28458,5
1772541786281,0.123873,-0.966077,-0.268389,1.67612,-1.75086,1.94907,0,0,3.32775,5
1772541786295,0.123666,-0.967432,-0.268184,1.687,-1.66146,1.9169,0,0,3.66016,5
1772541786309,0.12362,-0.968662,-0.268033,1.6736,-1.5913,1.86901,0,0,3.47138,5
1772541786322,0.12355,-0.96961,-0.268228,1.6456,-1.5216,1.8256,0,0,3.28329,5
1772541786336,0.123626,-0.970456,-0.268334,1.61915,-1.46954,1.76895,0,0,3.30562,5
1772541786349,0.123546,-0.971258,-0.268032,1.59317,-1.40354,1.73156,0,0,3.29882,5
1772541786362,0.123471,-0.972255,-0.267824,1.56896,-1.34988,1.6747,0,0,3.30388,5
1772541786376,0.123292,-0.972959,-0.267909,1.54275,-1.29072,1.59979,0,0,3.47945,5
1772541786390,0.123243,-0.974283,-0.267978,1.51464,-1.23048,1.50991,0,0,3.36221,5
1772541786403,0.123198,-0.975278,-0.268125,1.48161,-1.17326,1.41058,0,0,3.31945,5
1772541786417,0.123191,-0.976298,-0.268087,1.42922,-1.12194,1.27644,0,0,3.29703,5
1772541786432,0.122527,-0.976839,-0.268355,1.35831,-1.05604,1.09732,0,0,5.00624,5
1772541786445,0.122494,-0.977232,-0.268214,1.30779,-0.994255,0.885035,0,0,3.28808,5
1772541786458,0.122462,-0.977593,-0.268565,1.25596,-0.929652,0.680097,0,0,3.28947,5
1772541786472,0.122478,-0.978038,-0.268633,1.21699,-0.871195,0.44629,0,0,3.67673,5
1772541786486,0.12206,-0.978528,-0.268561,1.1751,-0.795209,0.178792,0,0,3.27414,5
1772541786499,0.121947,-0.979037,-0.268538,1.12654,-0.706713,-0.111604,0,0,3.30631,5
1772541786513,0.121874,-0.979464,-0.268223,1.08219,-0.618688,-0.387312,0,0,3.29534,5
1772541786526,0.122422,-0.980195,-0.268452,0.978582,-0.510603,-0.716847,0,0,3.70036,5
1772541786540,0.125211,-0.979895,-0.267808,0.955883,-0.482817,-0.917817,0,0,3.29051,5
1772541786554,0.126415,-0.979164,-0.267842,0.965773,-0.482709,-1.03017,0,0,3.79871,5
1772541786567,0.127471,-0.979245,-0.268096,0.994161,-0.508618,-1.10519,0,0,3.33338,5
1772541786581,0.128288,-0.979378,-0.268117,1.02307,-0.539084,-1.12779,0,0,3.27873,5
1772541786594,0.129109,-0.979824,-0.267994,1.05376,-0.569517,-1.12272,0,0,3.30508,5
1772541786608,0.130342,-0.980348,-0.267689,1.04942,-0.603811,-1.0147,0,0,3.28221,5
1772541786622,0.132098,-0.98043,-0.26809,1.00563,-0.671088,-0.762711,0,0,3.94842,5
1772541786635,0.132677,-0.980508,-0.268023,0.981167,-0.741838,-0.478606,0,0,3.32756,5
1772541786649,0.132017,-0.98079,-0.268047,0.96198,-0.805094,-0.252974,0,0,3.91786,5
1772541786663,0.131083,-0.981441,-0.268113,0.936569,-0.824268,-0.114706,0,0,3.29997,5
1772541786676,0.130246,-0.981974,-0.268035,0.90443,-0.815671,-0.061768,0,0,3.2918,5
1772541786690,0.12985,-0.982255,-0.268015,0.843584,-0.796381,-0.0651691,0,0,3.31112,5
1772541786703,0.129765,-0.982609,-0.267876,0.781035,-0.795811,-0.139304,0,0,3.29451,5
1772541786717,0.130474,-0.982428,-0.268036,0.703558,-0.808594,-0.250913,0,0,3.5459,5
1772541786730,0.131205,-0.982308,-0.268059,0.63906,-0.838692,-0.366508,0,0,3.31521,5
1772541786746,0.131352,-0.981892,-0.268038,0.614707,-0.892419,-0.468263,0,0,5.79942,5
1772541786760,0.131352,-0.981592,-0.267985,0.596453,-0.957274,-0.55096,0,0,3.2854,5
1772541786773,0.13175,-0.98152,-0.268021,0.583092,-1.0146,-0.60195,0,0,3.27705,5
1772541786786,0.13225,-0.981485,-0.267678,0.573059,-1.07642,-0.605444,0,0,3.31614,5
1772541786801,0.133276,-0.981429,-0.267426,0.551582,-1.15277,-0.521668,0,0,3.2996,5
1772541786814,0.134159,-0.981043,-0.267336,0.534747,-1.24711,-0.396299,0,0,3.29977,5
1772541786828,0.134261,-0.981211,-0.267422,0.476411,-1.32842,-0.274134,0,0,3.29232,5
1772541786841,0.134251,-0.981221,-0.267751,0.428219,-1.40472,-0.176425,0,0,3.32451,5
1772541786855,0.133962,-0.981768,-0.267765,0.355306,-1.46901,-0.110793,0,0,3.3236,5
1772541786868,0.133708,-0.982612,-0.267553,0.256922,-1.51425,-0.0617117,0,0,3.30697,1
1772541786881,0.13325,-0.983291,-0.267447,0.104074,-1.56509,-0.0475332,0,0,3.28643,1
1772541786895,0.132491,-0.984958,-0.26727,-0.127169,-1.58479,-0.0752897,0,0,3.91121,1
1772541786909,0.131122,-0.986626,-0.266973,-0.477385,-1.58967,-0.120339,0,0,3.28566,1
1772541786923,0.131271,-0.989892,-0.266764,-0.997721,-1.54287,-0.162,0,0,3.57781,1
1772541786936,0.131135,-0.993089,-0.266081,-1.69832,-1.45799,-0.229167,0,0,3.2684,1
1772541786949,0.129099,-0.999583,-0.265065,-2.8068,-1.28749,-0.307554,0,0,3.27403,1
1772541786963,0.128437,-1.00461,-0.266236,-4.06678,-1.00191,-0.298434,0,0,4.07807,1
1772541786977,0.115494,-1.01462,-0.263554,-6.10456,0.0647935,0.416098,0,0,3.43327,1
1772541786990,0.123478,-1.03716,-0.259931,-8.34659,0.854861,0.348203,0,0,3.31566,1
1772541787005,0.120784,-1.0498,-0.257987,-11.3575,1.5693,0.377066,0,0,4.07084,1
1772541787018,0.119075,-1.0722,-0.256043,-15.0611,2.36056,0.3028,0,0,3.55834,1
1772541787032,0.116479,-1.0914,-0.253928,-19.6014,3.24873,0.135909,0,0,3.29001,1
1772541787045,0.115729,-1.10905,-0.251852,-24.8085,4.15515,-0.095278,0,0,3.29047,1
1772541787059,0.114627,-1.12737,-0.251108,-30.5028,5.10663,-0.369164,0,0,4.05151,5
1772541787073,0.110815,-1.13974,-0.249563,-36.8865,6.19271,-0.411408,0,0,3.28412,5
1772541787087,0.111854,-1.15601,-0.248748,-43.5908,7.35188,-0.817436,0,0,3.85947,5
1772541787100,0.111168,-1.16287,-0.251058,-50.8545,8.49568,-1.39168,0,0,3.34027,5
1772541787113,0.106761,-1.17026,-0.253246,-58.2386,9.83524,-1.96067,0,0,3.27573,5
1772541787127,0.10058,-1.1705,-0.2574,-65.563,11.2285,-2.79922,0,0,3.30966,5
1772541787140,0.0955684,-1.16269,-0.264578,-72.3681,12.7107,-4.29772,0,0,3.28612,5
1772541787155,0.092764,-1.15579,-0.272777,-78.4706,14.3914,-5.8663,0,0,3.33068,5
1772541787169,0.0896231,-1.14546,-0.286931,-84.5014,16.1324,-5.95687,0,0,3.33653,5
1772541787182,0.0925602,-1.13355,-0.296533,-89.787,17.9333,-5.07588,0,0,3.35884,5
1772541787196,0.10398,-1.10616,-0.304059,-93.8057,19.4585,-5.97516,0,0,3.33968,5
1772541787209,0.121661,-1.07164,-0.304503,-96.2835,20.1843,-8.90422,0,0,3.27977,5
1772541787222,0.130887,-1.02018,-0.285689,-96.623,20.5495,-11.7662,0,0,3.30134,5
1772541787236,0.127243,-0.967201,-0.246281,-93.8454,21.5883,-11.086,0,0,3.28503,5
1772541787249,0.123492,-0.910849,-0.212989,-87.5445,23.8972,-6.09776,0,0,3.40173,5
1772541787263,0.120632,-0.861877,-0.17356,-78.2212,27.3367,-1.11487,0,0,3.44125,5
1772541787277,0.130574,-0.849624,-0.133925,-67.6074,31.2435,1.9669,0,0,3.72047,5
1772541787290,0.147505,-0.82351,-0.0991756,-55.857,35.1864,4.23478,0,0,3.32319,5
1772541787304,0.164153,-0.80688,-0.0669085,-43.3325,38.8353,7.01945,0,0,3.30606,5
1772541787317,0.179111,-0.790817,-0.0360644,-29.8698,42.1545,10.041,0,0,3.30903,5
1772541787331,0.195743,-0.784055,-0.00736056,-16.0807,44.9111,13.1521,0,0,3.30784,5
1772541787344,0.214382,-0.77808,0.0165201,-1.64733,46.8498,16.4317,0,0,3.3867,5
1772541787358,0.231478,-0.782245,0.0345715,12.4757,47.8256,19.7538,0,0,3.29479,5
1772541787371,0.244953,-0.795774,0.0429267,25.8064,47.9167,22.9409,0,0,3.3308,5
1772541787385,0.253589,-0.819305,0.0430353,38.3894,47.3767,25.8093,0,0,3.29192,5
1772541787399,0.257928,-0.852015,0.0315529,50.2666,46.4307,28.7334,0,0,3.29881,5
1772541787412,0.258307,-0.886978,0.0117097,61.4775,45.2812,32.134,0,0,3.29986,5
1772541787426,0.263112,-0.929744,-0.016406,72.0596,43.9098,35.4921,0,0,3.38525,5
1772541787440,0.273099,-0.976149,-0.0530088,82.048,42.1319,36.9803,0,0,3.62282,5
1772541787453,0.285682,-1.02692,-0.0988059,90.9958,39.9287,36.253,0,0,3.49182,5
1772541787467,0.297277,-1.06401,-0.151783,97.2673,37.4689,34.7766,0,0,3.75403,5
1772541787481,0.302278,-1.09593,-0.206948,100.989,35.0718,33.1997,0,0,3.29405,5
1772541787494,0.291139,-1.12042,-0.263224,101.367,33.1477,31.1456,0,0,3.30408,5
1772541787508,0.262464,-1.13331,-0.324854,99.1664,33.0183,29.193,0,0,3.31255,5
1772541787521,0.307054,-1.25869,-0.44543,96.0857,33.8004,29.3856,0,0,3.31451,5
1772541787535,0.311723,-1.25942,-0.47245,77.7733,34.5314,31.1396,0,0,3.5259,5
1772541787548,0.280376,-1.23821,-0.438184,67.7454,36.0846,30.1864,0,0,3.28247,5
1772541787562,0.263234,-1.24486,-0.418177,54.8644,35.8225,29.1401,0,0,3.72968,5
1772541787576,0.268848,-1.2297,-0.402173,44.7463,33.9476,27.39,0,0,3.29508,5
1772541787589,0.263507,-1.2256,-0.38594,33.9839,30.591,25.7941,0,0,3.33412,5
1772541787603,0.250691,-1.20832,-0.375852,25.2647,27.4243,23.2554,0,0,3.30762,5
1772541787616,0.239781,-1.20025,-0.364465,16.6943,24.8836,20.6835,0,0,3.47568,5
1772541787630,0.241487,-1.18834,-0.356843,9.57441,22.6944,19.0304,0,0,3.2909,5
1772541787643,0.243568,-1.1777,-0.353249,3.30608,20.6875,18.4091,0,0,3.29953,5
1772541787656,0.242824,-1.15789,-0.354872,-0.910318,18.9439,18.3845,0,0,3.32568,5
1772541787670,0.237351,-1.13408,-0.35665,-2.88715,17.6629,18.4336,0,0,3.28884,5
1772541787683,0.233206,-1.12686,-0.356192,-4.22857,16.5681,18.4683,0,0,3.42368,5
1772541787698,0.227182,-1.10731,-0.35536,-4.27655,15.4919,18.2738,0,0,3.40169,5
1772541787712,0.223098,-1.11225,-0.349503,-4.73161,14.3412,18.2653,0,0,3.57336,5
1772541787729,0.219117,-1.10409,-0.344308,-4.58396,13.2049,18.092,0,0,3.33923,5
1772541787742,0.211488,-1.10081,-0.338753,-4.9036,12.0519,17.6783,0,0,3.28731,5
1772541787757,0.204578,-1.09336,-0.333355,-4.81181,11.0059,16.9325,0,0,3.29032,1
1772541787770,0.200265,-1.08877,-0.329016,-4.84934,9.99163,16.1013,0,0,3.29097,1
1772541787785,0.194955,-1.08172,-0.324706,-4.53365,9.21494,15.2966,0,0,5.06185,1
1772541787799,0.190647,-1.07913,-0.320392,-4.33844,8.53191,14.687,0,0,3.29445,1
1772541787813,0.186612,-1.07583,-0.316342,-3.9996,7.94757,14.2708,0,0,4.1304,1
1772541787827,0.182903,-1.07357,-0.311871,-3.72601,7.41228,13.9083,0,0,3.37495,1
1772541787840,0.179218,-1.07117,-0.30829,-3.50887,6.90659,13.4866,0,0,3.38577,1
1772541787854,0.176825,-1.06882,-0.304342,-3.36001,6.38345,13.1073,0,0,3.28764,1
1772541787867,0.17174,-1.06809,-0.300193,-3.38991,5.87381,12.6525,0,0,3.28527,1
1772541787881,0.166012,-1.06583,-0.297507,-3.54146,5.36878,12.0798,0,0,3.3166,1
1772541787894,0.162404,-1.06259,-0.294586,-3.60058,4.88565,11.5277,0,0,3.35203,1
1772541787908,0.1578,-1.06054,-0.291835,-3.72146,4.46345,10.8982,0,0,3.30564,1
1772541787921,0.154668,-1.0559,-0.289835,-3.74137,4.12745,10.2831,0,0,3.65581,1
1772541787935,0.151683,-1.05352,-0.28758,-3.66981,3.86339,9.76792,0,0,3.9166,1
1772541787949,0.150068,-1.05043,-0.285745,-3.52006,3.6501,9.43325,0,0,3.28918,1
1772541787962,0.148598,-1.0481,-0.283242,-3.35472,3.50702,9.29762,0,0,3.31929,1
1772541787976,0.146327,-1.04569,-0.281532,-3.18068,3.38138,9.32417,0,0,3.30551,1
1772541787989,0.143452,-1.04327,-0.279523,-2.98086,3.26921,9.40533,0,0,3.31758,1
1772541788003,0.140328,-1.04045,-0.278008,-2.78496,3.17276,9.4875,0,0,3.64519,1
1772541788017,0.1367,-1.03747,-0.276196,-2.54226,3.11939,9.52438,0,0,3.48275,1
1772541788031,0.133412,-1.03476,-0.274537,-2.27205,3.05703,9.49839,0,0,3.57088,1
1772541788044,0.130215,-1.03202,-0.272728,-1.9759,2.99945,9.41863,0,0,3.2981,5
1772541788058,0.1261,-1.03019,-0.270848,-1.71092,2.96137,9.18747,0,0,3.92808,5
1772541788071,0.122743,-1.02732,-0.269295,-1.3833,2.97082,8.84383,0,0,3.29392,5
1772541788085,0.120055,-1.02591,-0.267587,-1.05308,2.96775,8.49206,0,0,3.31601,5
1772541788099,0.116854,-1.02431,-0.265921,-0.770927,2.97427,8.02128,0,0,3.88582,5
1772541788112,0.115118,-1.02346,-0.263964,-0.500317,2.94959,7.49684,0,0,3.2864,5
1772541788126,0.111973,-1.02293,-0.261966,-0.330951,2.91088,6.86909,0,0,3.29218,5
1772541788139,0.110215,-1.02265,-0.260001,-0.227178,2.82297,6.16221,0,0,3.28986,5
1772541788153,0.107168,-1.02239,-0.258261,-0.279948,2.72885,5.27062,0,0,4.01709,5
1772541788167,0.104211,-1.02241,-0.256458,-0.387135,2.59976,4.20981,0,0,3.29792,5
1772541788180,0.102301,-1.02211,-0.255632,-0.588932,2.44879,3.04323,0,0,3.34486,5
1772541788194,0.101756,-1.02083,-0.254552,-0.769991,2.26947,1.97033,0,0,3.33568,5
1772541788207,0.102388,-1.02,-0.253798,-0.955024,2.07794,1.05654,0,0,3.29618,5
1772541788221,0.103153,-1.01948,-0.252725,-1.15537,1.87746,0.277491,0,0,3.30244,5
1772541788234,0.102315,-1.01972,-0.251367,-1.43953,1.6544,-0.439015,0,0,3.29034,5
1772541788248,0.102826,-1.01872,-0.250613,-1.69363,1.4233,-1.07251,0,0,3.4371,5
1772541788261,0.102558,-1.01916,-0.249689,-2.04266,1.16619,-1.67604,0,0,3.40955,5
1772541788275,0.103069,-1.01923,-0.248731,-2.48044,0.893534,-2.19947,0,0,4.00907,5
1772541788289,0.103174,-1.0196,-0.248136,-3.01013,0.581792,-2.66828,0,0,3.28786,5
1772541788302,0.104631,-1.01925,-0.248089,-3.59147,0.254994,-3.02087,0,0,3.28575,5
1772541788316,0.105094,-1.01942,-0.24813,-4.25452,-0.102287,-3.27961,0,0,3.29421,5
1772541788329,0.106306,-1.01935,-0.248201,-5.01055,-0.471212,-3.41893,0,0,3.29329,5
1772541788343,0.107359,-1.01981,-0.248344,-5.87361,-0.854127,-3.41299,0,0,3.35918,1
1772541788356,0.108718,-1.01932,-0.248352,-6.82357,-1.23612,-3.24253,0,0,3.30225,1
1772541788371,0.109878,-1.01927,-0.249118,-7.78104,-1.60481,-2.94632,0,0,4.10199,1
1772541788385,0.109578,-1.02009,-0.249765,-8.93744,-1.94255,-2.66801,0,0,3.74307,1
1772541788398,0.108993,-1.02184,-0.251527,-10.2679,-2.25107,-2.45627,0,0,3.79823,1
1772541788412,0.108593,-1.0225,-0.252282,-11.7648,-2.52216,-2.32363,0,0,3.29242,1
1772541788425,0.107592,-1.02462,-0.254563,-13.507,-2.76606,-2.18216,0,0,3.27697,1
1772541788439,0.108994,-1.02858,-0.257641,-15.6289,-3.02282,-1.94072,0,0,3.34816,1
1772541788452,0.108893,-1.03394,-0.26067,-18.0638,-3.15213,-1.72353,0,0,3.27755,1
1772541788466,0.111434,-1.0296,-0.263578,-20.5801,-3.22924,-1.27146,0,0,3.34879,1
1772541788479,0.112315,-1.02879,-0.266027,-22.9155,-3.34441,-0.43026,0,0,3.28395,1
1772541788493,0.113265,-1.03713,-0.268977,-25.0552,-3.54389,0.766677,0,0,3.94853,1
1772541788512,0.114227,-1.0566,-0.273731,-27.4529,-3.61786,2.31952,0,0,8.68925,1
1772541788526,0.106989,-1.08084,-0.274295,-30.668,-3.32501,2.88179,0,0,4.03192,1
1772541788541,0.105844,-1.10824,-0.27493,-34.8238,-2.9578,3.2648,0,0,4.25529,1
1772541788554,0.105241,-1.13255,-0.273893,-39.8469,-2.44934,3.44563,0,0,3.2766,1
1772541788569,0.103895,-1.15916,-0.273115,-45.9186,-1.7506,3.18427,0,0,4.82494,1
1772541788582,0.105533,-1.18119,-0.270834,-53.1137,-1.14929,2.66482,0,0,3.28767,1
1772541788596,0.108797,-1.20495,-0.267702,-61.3387,-0.656207,1.96984,0,0,3.31979,1
1772541788609,0.107766,-1.22517,-0.263127,-70.42,-0.269999,0.966147,0,0,3.4081,1
1772541788623,0.101398,-1.25103,-0.259392,-80.0987,0.300075,-0.433408,0,0,3.33912,5
1772541788636,0.101768,-1.28107,-0.254252,-89.6366,0.723419,-2.1698,0,0,3.26186,5
1772541788649,0.102069,-1.31487,-0.251535,-98.6395,0.828852,-4.44122,0,0,3.28155,5
1772541788667,0.0932168,-1.34035,-0.254469,-107.137,0.918095,-5.84019,0,0,7.4115,5
1772541788680,0.0907951,-1.34117,-0.259985,-115.159,1.15519,-9.80988,0,0,3.30292,5
1772541788694,0.0906574,-1.34103,-0.266254,-122.73,0.866883,-13.3291,0,0,3.26908,5
1772541788707,0.0902801,-1.34189,-0.25997,-129.876,0.202526,-15.6896,0,0,3.2606,5
1772541788720,0.0763064,-1.34056,-0.24623,-136.622,0.0391595,-19.2285,0,0,3.30869,5
1772541788734,0.0692537,-1.34212,-0.21777,-142.99,-0.452454,-25.1884,0,0,3.27768,5
1772541788747,0.0543631,-1.3227,-0.143235,-149,-1.12844,-34.3333,0,0,3.28827,5
1772541788761,0.0368244,-1.13466,-0.138338,-150.812,-1.4548,-44.4507,0,0,3.26047,5
1772541788774,0.0350752,-1.03816,-0.125252,-142.465,-1.93626,-50.7253,0,0,3.28845,5
1772541788791,0.0260888,-0.981406,-0.109129,-127.419,-1.90087,-51.785,0,0,6.80724,5
1772541788804,0.0161501,-0.963075,-0.0881279,-111.606,-1.38747,-51.2494,0,0,3.31145,5
1772541788819,0.0098278,-0.937485,-0.0690593,-94.5299,-0.712749,-51.1079,0,0,4.90801,5
1772541788833,0.00697436,-0.902412,-0.051273,-75.8646,-0.249721,-51.7222,0,0,3.28149,5
1772541788848,0.00735267,-0.869428,-0.0322893,-57.5788,-0.185616,-52.1921,0,0,5.02066,2
1772541788861,0.00773579,-0.846012,-0.0101427,-40.3187,-0.595255,-51.8851,0,0,3.29523,2
1772541788875,0.0024007,-0.840521,0.0135765,-24.0268,-1.15019,-51.0527,0,0,3.3291,2
1772541788888,-0.0129722,-0.847368,0.0321371,-8.64866,-1.38969,-49.8264,0,0,3.45316,2
1772541788902,-0.0322853,-0.864826,0.0442272,5.86685,-0.826603,-47.458,0,0,3.9557,2
1772541788917,-0.0474119,-0.887404,0.0519663,19.5681,0.465785,-43.8569,0,0,3.29453,2
1772541788930,-0.062272,-0.90923,0.0473021,32.5009,2.36478,-39.7921,0,0,3.3186,2
1772541788948,-0.072062,-0.953281,0.0344498,44.7082,4.37735,-35.7492,0,0,7.37283,2
1772541788961,-0.0741636,-0.98397,0.0162979,56.2308,5.90065,-32.0376,0,0,3.31105,2
1772541788975,-0.0636492,-1.01681,-0.00525611,67.1071,5.98116,-28.9937,0,0,3.29484,2
1772541788988,-0.0429499,-1.05215,-0.0267537,77.3733,3.6015,-26.9953,0,0,3.2859,2
1772541789001,-0.0218852,-1.08852,-0.048539,87.0636,-1.65226,-25.3513,0,0,3.30918,2
1772541789015,-0.0100163,-1.12791,-0.0711226,96.2104,-9.44635,-22.4713,0,0,3.47856,5
1772541789029,-0.0121514,-1.16689,-0.0962633,104.844,-18.8337,-17.4385,0,0,3.34784,5
1772541789044,-0.0240052,-1.20771,-0.127661,112.994,-28.9213,-10.6109,0,0,3.28875,5
1772541789058,-0.0310591,-1.24317,-0.165725,120.686,-39.1379,-3.30303,0,0,4.09355,5
1772541789071,-0.0304269,-1.27295,-0.211969,127.947,-49.2058,2.72313,0,0,3.27829,5
1772541789085,-0.0237258,-1.30316,-0.264518,134.141,-59.0644,6.55594,0,0,3.2921,5
1772541789099,-0.0271511,-1.33054,-0.319211,137.987,-68.3058,7.3336,0,0,3.96503,5
1772541789112,-0.0655857,-1.35735,-0.375323,138.329,-75.1238,7.90408,0,0,3.28414,5
1772541789125,-0.124889,-1.37136,-0.441314,135.449,-77.757,11.8252,0,0,3.29949,5
1772541789141,-0.154533,-1.3674,-0.505571,130.138,-76.3379,17.6862,0,0,3.3181,1
1772541789154,-0.141945,-1.36152,-0.560858,123.243,-73.8937,21.4376,0,0,3.38895,1
1772541789168,-0.111821,-1.35052,-0.605506,115.148,-72.0773,21.115,0,0,3.26695,1
1772541789181,-0.0977276,-1.46639,-0.753956,106.16,-68.6578,15.7871,0,0,3.32412,1
1772541789197,-0.105113,-1.39378,-0.707915,86.1745,-65.7263,13.7518,0,0,3.27936,1
1772541789211,-0.0950815,-1.3758,-0.666888,70.8335,-63.2501,12.7831,0,0,4.00329,1
1772541789224,-0.0723456,-1.36872,-0.638022,52.8295,-61.4698,12.3144,0,0,3.30192,1
1772541789238,-0.0660534,-1.33541,-0.613376,39.0146,-59.3663,12.0206,0,0,3.28223,1
1772541789251,-0.0610613,-1.32848,-0.592466,26.1464,-56.5715,11.5626,0,0,3.29997,1
1772541789264,-0.0554014,-1.30899,-0.574938,14.6701,-53.6852,11.1816,0,0,3.29701,1
1772541789278,-0.0396538,-1.29216,-0.559553,5.19911,-51.0507,11.1359,0,0,3.33612,1
1772541789291,-0.0277553,-1.27374,-0.550083,-2.59006,-48.8397,11.371,0,0,3.30305,1
1772541789305,-0.0171458,-1.25005,-0.543462,-8.02362,-46.6302,12.0961,0,0,3.31232,1
1772541789318,-0.0101927,-1.2222,-0.541935,-10.937,-44.4372,12.9047,0,0,3.28171,1
1772541789333,-0.00682149,-1.20792,-0.53976,-12.7569,-42.4683,13.7707,0,0,3.30716,1
1772541789346,-0.0063203,-1.18772,-0.536227,-13.7134,-40.4827,14.1839,0,0,3.28982,1
1772541789360,-0.00721836,-1.17248,-0.52781,-13.6421,-38.6302,13.9865,0,0,3.28466,1
1772541789373,-0.00713757,-1.16766,-0.516792,-13.7225,-36.8577,13.5659,0,0,3.36747,1
1772541789387,-0.0055442,-1.15513,-0.506203,-13.2324,-35.1243,12.6799,0,0,3.2853,1
1772541789400,-0.00568611,-1.15214,-0.4955,-12.9145,-33.3523,11.514,0,0,3.29571,1
1772541789414,-0.00648378,-1.14276,-0.485052,-12.4158,-31.5804,10.1389,0,0,3.28506,1
1772541789427,-0.00608278,-1.13953,-0.474581,-12.0002,-29.8848,8.53398,0,0,3.54575,1
1772541789441,-0.00466366,-1.13217,-0.465549,-11.5849,-28.2444,6.70308,0,0,3.31371,1
1772541789454,-0.00234568,-1.12808,-0.456005,-11.2378,-26.6422,4.80959,0,0,3.29292,1
1772541789468,0.00211307,-1.12371,-0.446985,-10.9971,-25.1572,3.01675,0,0,3.4896,1
1772541789481,0.00735911,-1.11769,-0.438744,-10.7994,-23.767,1.44779,0,0,3.28223,1
1772541789495,0.0120981,-1.11232,-0.431013,-10.5914,-22.4908,0.0631854,0,0,3.29668,1
1772541789508,0.018178,-1.10695,-0.423845,-10.4007,-21.3085,-1.00569,0,0,3.29969,1
1772541789522,0.0236504,-1.10176,-0.416327,-10.2035,-20.1873,-1.76497,0,0,3.40579,1
1772541789535,0.0307946,-1.0967,-0.409705,-9.99598,-19.1449,-2.2042,0,0,3.45268,1
1772541789549,0.0362918,-1.09103,-0.403446,-9.7393,-18.1425,-2.45223,0,0,3.50955,1
1772541789563,0.0402566,-1.08567,-0.398006,-9.43107,-17.145,-2.57458,0,0,3.29316,1
1772541789576,0.0447207,-1.08018,-0.392569,-9.03223,-16.1584,-2.56933,0,0,3.29245,1
1772541789591,0.0492138,-1.0757,-0.387936,-8.60352,-15.2439,-2.39524,0,0,4.94283,5
1772541789605,0.0531901,-1.0709,-0.383035,-8.11065,-14.3833,-2.19152,0,0,3.29525,5
1772541789618,0.0565227,-1.06696,-0.377975,-7.68653,-13.5898,-1.99879,0,0,3.49644,5
1772541789632,0.0596348,-1.06301,-0.373575,-7.28663,-12.8879,-1.84942,0,0,3.99795,5
1772541789646,0.0636038,-1.05982,-0.368416,-6.94856,-12.2604,-1.70629,0,0,3.36886,5
1772541789659,0.0662248,-1.05867,-0.36422,-6.8217,-11.7376,-1.56605,0,0,3.27236,5
1772541789673,0.0683254,-1.05547,-0.360111,-6.75035,-11.2821,-1.52231,0,0,3.27442,5
1772541789690,0.0710068,-1.0532,-0.356085,-6.75879,-10.9036,-1.50629,0,0,7.03074,5
1772541789703,0.072642,-1.0506,-0.352706,-6.85324,-10.5519,-1.56652,0,0,3.30129,5
1772541789717,0.0749424,-1.04893,-0.348855,-6.98736,-10.2341,-1.68247,0,0,3.35492,5
1772541789730,0.0765443,-1.0461,-0.346005,-7.16705,-9.91224,-1.84886,0,0,3.30036,5
1772541789744,0.0790691,-1.0444,-0.342917,-7.29427,-9.61572,-2.03675,0,0,3.93649,5
1772541789760,0.0813875,-1.04237,-0.339825,-7.57065,-9.32684,-2.18412,0,0,3.29158,1
1772541789775,0.0848963,-1.04045,-0.337327,-7.84308,-9.05759,-2.19092,0,0,4.12644,1
1772541789788,0.0878993,-1.03931,-0.335323,-8.20471,-8.81586,-1.95285,0,0,3.28401,1
1772541789802,0.0911981,-1.03828,-0.333364,-8.65395,-8.63479,-1.57526,0,0,3.29212,1
1772541789815,0.0936159,-1.03829,-0.331331,-9.24542,-8.49256,-1.20601,0,0,3.2934,1
1772541789828,0.0968248,-1.03751,-0.330913,-10.0122,-8.41612,-0.777832,0,0,3.31488,1
1772541789842,0.0993382,-1.03902,-0.330407,-10.9506,-8.45016,-0.230654,0,0,3.33527,1
1772541789855,0.0999587,-1.04015,-0.329592,-12.2298,-8.52596,0.392878,0,0,3.28721,1
1772541789869,0.103114,-1.04206,-0.329261,-13.808,-8.75465,1.19767,0,0,3.3654,1
1772541789882,0.107093,-1.04591,-0.328432,-15.8771,-9.01077,2.18811,0,0,3.32203,1
1772541789899,0.10715,-1.05444,-0.324254,-18.4565,-9.32873,3.02836,0,0,3.38605,1
1772541789913,0.111006,-1.06354,-0.325961,-21.5845,-9.63443,4.06898,0,0,3.29362,1
1772541789926,0.115995,-1.0759,-0.32612,-24.7293,-9.96323,5.63698,0,0,3.29914,1
1772541789942,0.114873,-1.10156,-0.32341,-28.0959,-10.1331,6.19771,0,0,5.11501,1
1772541789955,0.108162,-1.11961,-0.32242,-32.3621,-9.80753,6.17806,0,0,3.29312,1
1772541789968,0.109721,-1.14199,-0.320887,-37.2437,-9.56527,6.57571,0,0,3.32173,1
1772541789982,0.105414,-1.16407,-0.31753,-43.0465,-9.00432,6.531,0,0,3.61119,1
1772541789996,0.0983372,-1.18076,-0.313531,-49.7137,-8.25219,6.06318,0,0,3.35303,1
1772541790009,0.0831676,-1.1964,-0.311564,-56.9113,-7.16286,4.5978,0,0,3.2756,1
1772541790023,0.0674015,-1.20716,-0.308647,-64.6789,-5.64223,1.83202,0,0,3.91127,1
1772541790036,0.0502216,-1.22275,-0.307887,-72.6076,-3.90374,-2.15226,0,0,3.27075,1
1772541790050,0.0308248,-1.25006,-0.306733,-81.3951,-1.8654,-7.59667,0,0,3.26599,1
1772541790063,0.0131091,-1.26867,-0.304647,-90.8602,0.476932,-13.6777,0,0,3.30706,1
1772541790077,-0.00100251,-1.28827,-0.30909,-99.7945,3.11864,-19.8086,0,0,3.27168,1
1772541790090,-0.0100874,-1.30418,-0.3143,-108.228,5.8832,-25.9278,0,0,3.35312,1
1772541790104,-0.0189458,-1.31712,-0.327194,-116.188,8.5535,-32.4399,0,0,3.28827,5
1772541790117,-0.032104,-1.31109,-0.341627,-123.701,11.1785,-40.0472,0,0,3.37473,5
1772541790131,-0.0469716,-1.30433,-0.340246,-130.793,13.586,-48.5762,0,0,3.27201,5
1772541790145,-0.059502,-1.31225,-0.313579,-137.488,15.7031,-58.1519,0,0,3.88916,5
1772541790158,-0.0776771,-1.30557,-0.274615,-143.806,17.2749,-68.9208,0,0,3.28958,5
1772541790172,-0.0699666,-1.27528,-0.270357,-149.771,16.8,-78.413,0,0,3.29123,5
1772541790185,-0.0592515,-1.21603,-0.269584,-155.132,14.7602,-85.4682,0,0,3.3699,5
1772541790199,-0.055347,-1.11522,-0.269699,-153.829,12.0658,-89.3316,0,0,3.66514,5
1772541790213,-0.0454634,-1.03986,-0.263179,-146.44,8.81307,-89.423,0,0,3.29368,5
1772541790226,-0.0376456,-0.971612,-0.252555,-134.675,5.05851,-87.2918,0,0,3.31186,5
1772541790240,-0.0262192,-0.922106,-0.239311,-119.69,0.884268,-84.6725,0,0,3.36588,5
1772541790253,-0.0151324,-0.885432,-0.226379,-102.859,-3.69212,-82.3658,0,0,3.2881,5
1772541790268,-0.008609,-0.842055,-0.21382,-84.1217,-8.4507,-80.2634,0,0,3.86244,5
1772541790282,-0.00650285,-0.787004,-0.198245,-65.3727,-12.9501,-77.6303,0,0,3.30816,5
1772541790297,-0.00710464,-0.736955,-0.17546,-47.6754,-16.968,-73.8727,0,0,4.93746,5
1772541790310,-0.0118655,-0.741519,-0.144501,-30.9708,-20.4055,-69.1629,0,0,3.36521,5
1772541790324,-0.0191727,-0.766329,-0.119219,-15.2032,-23.3176,-64.0575,0,0,3.46532,5
1772541790337,-0.0305593,-0.788763,-0.105208,-0.320042,-25.579,-59.1032,0,0,3.29647,5
1772541790351,-0.0424835,-0.795524,-0.0978733,13.7283,-27.0554,-54.5942,0,0,3.27106,5
1772541790364,-0.0529574,-0.804562,-0.0922584,26.9886,-27.8239,-50.6172,0,0,3.3279,2
1772541790379,-0.0644467,-0.824405,-0.087818,39.5051,-27.7704,-47.4714,0,0,3.28693,2
1772541790394,-0.0767895,-0.862738,-0.0889743,51.3196,-26.8426,-44.7658,0,0,4.99946,2
1772541790407,-0.0851225,-0.897387,-0.0988564,62.4713,-25.3117,-41.5847,0,0,3.3558,2
1772541790421,-0.0868771,-0.928225,-0.112641,72.9975,-23.9415,-38.1833,0,0,3.33053,2
1772541790435,-0.0791059,-0.959807,-0.129218,82.9333,-23.6224,-34.6688,0,0,3.61384,2
1772541790448,-0.0680124,-0.992506,-0.149181,92.3118,-24.9071,-30.7245,0,0,3.28277,2
1772541790461,-0.0601587,-1.03089,-0.172467,101.164,-27.6562,-25.6891,0,0,3.31468,2
1772541790475,-0.0590333,-1.07435,-0.200073,109.52,-31.384,-19.145,0,0,3.29377,1
1772541790489,-0.0600497,-1.1135,-0.232354,117.407,-35.4088,-11.4128,0,0,4.01199,1
1772541790503,-0.0580215,-1.15219,-0.269524,124.852,-39.1509,-3.79661,0,0,3.40731,1
1772541790516,-0.0485334,-1.19209,-0.311441,131.879,-42.2686,2.31419,0,0,3.52003,1
1772541790530,-0.0347731,-1.22636,-0.360302,137.143,-44.5923,6.19606,0,0,3.28821,1
1772541790543,-0.0205469,-1.2477,-0.413347,140.519,-46.1571,8.00914,0,0,3.28488,1
1772541790557,-0.0134557,-1.26627,-0.465642,142.038,-46.9464,8.35974,0,0,3.30794,1
1772541790570,-0.0207255,-1.28745,-0.516696,140.642,-46.4146,9.14926,0,0,3.29382,1
1772541790584,-0.0407778,-1.30107,-0.570461,136.31,-43.4245,11.2647,0,0,3.42892,1
1772541790597,-0.0453579,-1.30376,-0.620988,129.681,-38.1995,13.3861,0,0,3.31177,1
1772541790611,-0.0276152,-1.30245,-0.663657,121.485,-31.9612,13.5147,0,0,3.27034,1
1772541790624,-0.0246779,-1.42042,-0.641521,105.29,-23.7991,8.06157,0,0,3.28977,1
1772541790637,-0.0534833,-1.29696,-0.607016,86.0865,-13.8401,0.886423,0,0,3.29738,1
1772541790651,-0.0377982,-1.31566,-0.564081,74.1699,-5.70194,-4.6899,0,0,3.38336,1
1772541790664,0.00317778,-1.31457,-0.538249,58.4567,-1.0617,-8.56996,0,0,3.42503,1
1772541790678,0.042917,-1.29186,-0.513717,44.6816,-0.950764,-9.87051,0,0,3.35947,1
1772541790691,0.0485139,-1.27642,-0.495244,32.4319,-2.92447,-11.0883,0,0,3.28084,1
1772541790705,0.0504709,-1.26376,-0.479415,21.5685,-4.46589,-12.3687,0,0,3.3026,1
1772541790718,0.047527,-1.25259,-0.462389,11.5025,-4.47658,-12.977,0,0,3.31192,5
1772541790732,0.0628305,-1.2374,-0.448851,2.59847,-3.86837,-12.3074,0,0,3.3061,5
1772541790745,0.0736317,-1.22121,-0.438404,-4.81104,-4.10741,-11.2783,0,0,3.34558,5
1772541790759,0.0800849,-1.2061,-0.434777,-10.4711,-5.04682,-10.3828,0,0,3.28656,5
1772541790773,0.0710519,-1.17855,-0.438483,-13.5687,-5.59998,-9.91514,0,0,4.52525,5
1772541790787,0.0788778,-1.1701,-0.434767,-15.2016,-6.4698,-9.04212,0,0,3.29168,5
1772541790800,0.0769337,-1.15984,-0.431769,-16.474,-7.3041,-8.46042,0,0,3.29651,5
1772541790815,0.0793881,-1.15018,-0.43045,-17.0452,-8.13485,-8.25433,0,0,4.32472,5
1772541790828,0.0785641,-1.13811,-0.423797,-17.0752,-8.56104,-8.38993,0,0,3.27601,5
1772541790841,0.0759397,-1.13516,-0.415716,-16.9579,-8.72182,-8.37662,0,0,3.34245,3
1772541790855,0.0730031,-1.12594,-0.409515,-16.8421,-8.78496,-8.40602,0,0,3.27801,3
1772541790868,0.0774871,-1.12061,-0.401984,-16.4254,-8.80687,-8.23937,0,0,3.37158,3
1772541790882,0.0811345,-1.11472,-0.396331,-16.1934,-8.76932,-7.80333,0,0,3.30321,3
1772541790899,0.0848679,-1.11021,-0.390711,-15.873,-8.745,-6.98796,0,0,3.33168,3
1772541790912,0.0878508,-1.10482,-0.38524,-15.6527,-8.74689,-5.86679,0,0,3.2699,3
1772541790926,0.0905859,-1.09962,-0.379379,-15.411,-8.78678,-4.56315,0,0,3.93016,3
1772541790943,0.0905,-1.09404,-0.375173,-15.2556,-8.7602,-3.34634,0,0,6.89457,3
1772541790957,0.0904073,-1.08865,-0.370874,-14.9694,-8.61736,-2.33138,0,0,3.31918,3
1772541790972,0.0892188,-1.08122,-0.367776,-14.5014,-8.34295,-1.50695,0,0,5.04337,3
1772541790985,0.0903352,-1.07615,-0.363939,-13.8922,-7.98587,-0.758304,0,0,3.29018,3
1772541790999,0.088819,-1.07172,-0.359842,-13.2907,-7.60901,-0.0388059,0,0,3.34832,3
1772541791012,0.0882018,-1.06843,-0.35616,-12.7366,-7.20275,0.583813,0,0,3.29475,1
1772541791025,0.088359,-1.06462,-0.35314,-12.2688,-6.78888,1.07688,0,0,3.32056,1
1772541791039,0.0886055,-1.06064,-0.349846,-11.8307,-6.40679,1.46307,0,0,3.27008,1
1772541791052,0.086994,-1.05782,-0.347252,-11.4501,-6.04143,1.78393,0,0,3.38856,1
1772541791066,0.0844494,-1.05328,-0.344643,-11.0198,-5.68542,2.07994,0,0,3.28847,1
1772541791079,0.0841195,-1.05038,-0.342053,-10.5836,-5.30785,2.28184,0,0,3.26227,1
1772541791092,0.0830565,-1.04653,-0.339714,-10.1471,-4.91806,2.34182,0,0,3.28525,1
1772541791106,0.0821896,-1.04435,-0.337018,-9.72951,-4.53815,2.35305,0,0,3.28599,1
1772541791120,0.0814139,-1.04103,-0.334291,-9.34047,-4.17269,2.33025,0,0,3.79483,1
1772541791133,0.0821563,-1.03844,-0.33242,-9.01265,-3.82859,2.27832,0,0,3.28814,1
1772541791147,0.0814888,-1.03573,-0.330556,-8.70279,-3.52006,2.258,0,0,3.29684,1
1772541791160,0.0831675,-1.03439,-0.329371,-8.46983,-3.27851,2.31504,0,0,3.27088,1
1772541791175,0.0853493,-1.03221,-0.327512,-8.26321,-3.07149,2.48662,0,0,5.37944,1
1772541791189,0.0876065,-1.03052,-0.325639,-8.0275,-2.86837,2.69526,0,0,3.27079,5
1772541791202,0.0844051,-1.03027,-0.324818,-7.93861,-2.62141,2.93244,0,0,3.2789,5
1772541791216,0.0857641,-1.02919,-0.323159,-7.77335,-2.43541,3.2518,0,0,3.71157,5
1772541791229,0.0852805,-1.02777,-0.319991,-7.62635,-2.19004,3.62048,0,0,3.31766,5
1772541791243,0.084359,-1.02742,-0.320689,-7.54668,-2.00554,4.03484,0,0,3.32229,5
1772541791259,0.0859548,-1.02688,-0.319946,-7.38457,-1.81254,4.53729,0,0,3.33495,5
1772541791272,0.0818755,-1.02629,-0.319236,-7.21784,-1.65093,5.11817,0,0,3.30669,5
1772541791286,0.0814339,-1.0228,-0.319027,-7.05361,-1.52792,5.66647,0,0,3.28332,5
1772541791299,0.0806699,-1.02276,-0.318443,-6.93371,-1.37927,6.20543,0,0,3.38514,5
1772541791313,0.0768217,-1.0182,-0.320435,-6.77643,-1.14947,6.52318,0,0,3.37945,5
1772541791326,0.0759178,-1.01781,-0.319939,-6.47468,-0.93727,6.8625,0,0,3.30416,5
1772541791340,0.0751708,-1.01608,-0.318386,-6.0173,-0.624787,7.03935,0,0,3.28792,5
1772541791353,0.0700577,-1.01385,-0.316954,-5.47425,-0.221073,7.03457,0,0,3.28301,5
1772541791367,0.0658301,-1.01088,-0.315862,-4.7634,0.244777,6.941,0,0,3.40592,5
1772541791380,0.0592783,-1.00883,-0.315651,-3.91559,0.827082,6.69853,0,0,3.51412,5
1772541791394,0.0505147,-1.00824,-0.315716,-3.13632,1.53944,6.1421,0,0,3.50647,5
1772541791407,0.0444619,-1.00776,-0.315341,-2.13999,2.41308,5.44389,0,0,3.29434,5
1772541791421,0.0343389,-1.00417,-0.31322,-1.01414,3.69288,4.39863,0,0,3.30853,5
1772541791438,0.0288868,-1.01224,-0.310669,-0.351373,5.08587,3.31265,0,0,7.04046,5
1772541791451,0.0125264,-1.01462,-0.309339,0.207423,7.30719,2.47043,0,0,3.30086,5
1772541791465,-0.00147434,-1.02761,-0.302847,-0.0332914,10.1665,1.8373,0,0,3.32466,5
1772541791478,-0.0199983,-1.0404,-0.29429,-1.39434,13.9205,1.74452,0,0,3.32501,5
1772541791492,-0.0548166,-1.05577,-0.283171,-3.35173,19.4434,3.19113,0,0,3.63569,5
1772541791508,-0.103466,-1.08063,-0.267969,-6.88038,27.5875,6.0621,0,0,3.34932,5
1772541791521,-0.161219,-1.10205,-0.246811,-11.237,38.7349,9.92386,0,0,3.32618,5
1772541791536,-0.214941,-1.12808,-0.218636,-16.4185,50.5926,14.0987,0,0,4.2847,5
1772541791549,-0.260079,-1.15127,-0.185425,-22.1015,61.7851,18.4251,0,0,3.27751,5
1772541791562,-0.290687,-1.16975,-0.147698,-28.1619,72.3498,23.2398,0,0,3.28699,5
1772541791576,-0.312781,-1.18488,-0.106774,-34.4146,82.3219,28.5654,0,0,3.28868,5
1772541791589,-0.326275,-1.20153,-0.0661019,-40.5769,91.7347,34.172,0,0,3.32308,5
1772541791606,-0.329121,-1.2141,-0.024187,-46.6681,100.619,40.1004,0,0,6.50852,5
1772541791619,-0.323579,-1.22658,0.0147096,-52.37,109.006,45.4244,0,0,3.35277,5
1772541791633,-0.300107,-1.22969,0.0445595,-57.6797,116.922,50.6434,0,0,3.27786,5
1772541791647,-0.27149,-1.23228,0.0583592,-62.5876,124.394,56.0846,0,0,3.37169,5
1772541791660,-0.226786,-1.24418,0.0760931,-68.4619,131.447,62.7258,0,0,3.29164,5
1772541791674,-0.206672,-1.22064,0.101753,-72.2181,138.104,71.5819,0,0,3.26069,5
1772541791687,-0.156431,-1.22635,0.128779,-75.1377,144.388,80.9343,0,0,3.29523,5
1772541791701,-0.0960135,-1.22303,0.142557,-77.8138,150.319,89.0195,0,0,3.27503,5
1772541791714,-0.0356328,-1.20819,0.155445,-78.8284,155.918,96.3019,0,0,3.31382,5
1772541791727,0.0348982,-1.20694,0.162645,-79.2743,161.202,101.645,0,0,3.28225,5
1772541791742,0.0930879,-1.18838,0.164607,-78.5721,165.971,104.043,0,0,4.15123,5
1772541791757,0.143373,-1.18163,0.162267,-77.3715,168.59,105.391,0,0,3.31136,5
1772541791771,0.18375,-1.167,0.159868,-75.867,169.776,106.572,0,0,4.05881,4
1772541791784,0.208791,-1.14944,0.154126,-73.1465,170.652,107.884,0,0,3.28786,4
1772541791798,0.216957,-1.12715,0.156952,-70.144,171.871,109.777,0,0,3.2841,4
1772541791813,0.224306,-1.1027,0.159964,-64.5883,174.392,111.982,0,0,4.95396,4
1772541791826,0.23678,-1.07888,0.166891,-57.5836,178.211,115.082,0,0,3.29677,4
1772541791840,0.259598,-1.07289,0.176441,-49.6654,182.245,118.454,0,0,3.33869,4
1772541791854,0.290995,-1.05818,0.185007,-41.0815,185.908,120.818,0,0,3.46179,4
1772541791867,0.324575,-1.05171,0.191874,-32.1676,188.689,121.489,0,0,3.36981,4
1772541791881,0.353803,-1.04542,0.195132,-23.2288,190.67,120.591,0,0,3.31181,4
1772541791895,0.374643,-1.03479,0.195951,-14.0442,192.285,119.061,0,0,3.96136,4
1772541791909,0.392531,-1.0284,0.19682,-4.24398,193.816,117.841,0,0,3.30338,4
1772541791922,0.410439,-1.02674,0.19685,5.39405,195.053,116.506,0,0,3.28258,4
1772541791936,0.428652,-1.0242,0.196142,15.2164,195.793,114.17,0,0,3.31053,4
1772541791949,0.44894,-1.02499,0.193405,24.9129,195.803,110.837,0,0,3.29303,4
1772541791962,0.467114,-1.02483,0.189047,34.6364,194.973,106.741,0,0,3.34679,4
1772541791976,0.480297,-1.02735,0.183203,44.3813,193.368,102.212,0,0,3.33645,4
1772541791990,0.485365,-1.03475,0.175682,53.7381,191.127,97.38,0,0,3.40223,4
1772541792003,0.489048,-1.04916,0.167038,62.3392,188.427,92.3647,0,0,3.30951,4
1772541792016,0.495965,-1.06895,0.154896,69.58,184.831,87.7982,0,0,3.29434,4
1772541792031,0.5018,-1.07825,0.140499,76.2619,180.107,83.1427,0,0,4.3362,4
1772541792044,0.502949,-1.09144,0.124201,82.315,174.495,78.2187,0,0,3.28514,4
1772541792058,0.498891,-1.10783,0.105882,87.171,168.153,73.4651,0,0,3.33499,5
1772541792071,0.489341,-1.12002,0.0863896,90.9324,161.376,69.1542,0,0,3.28688,5
1772541792085,0.478074,-1.13195,0.0663827,93.588,154.451,65.8472,0,0,3.37258,5
1772541792098,0.468377,-1.14016,0.0475817,95.1949,147.625,63.1556,0,0,3.28732,5
1772541792112,0.45651,-1.14256,0.0295603,95.7638,140.946,60.3971,0,0,3.56181,5
1772541792125,0.439877,-1.13751,0.0130316,95.9081,134.746,57.0345,0,0,3.27336,5
1772541792138,0.421547,-1.13771,-0.00100187,95.2769,129.287,53.5133,0,0,3.2674,5
1772541792152,0.399589,-1.13435,-0.0128735,93.6454,124.76,50.2543,0,0,3.29793,5
1772541792166,0.37543,-1.13163,-0.0210121,91.2191,121.352,47.3455,0,0,3.29732,5
1772541792180,0.355947,-1.12564,-0.0267449,88.1384,118.776,44.7643,0,0,3.32273,5
1772541792194,0.341822,-1.11792,-0.0284687,84.6833,116.741,42.1617,0,0,3.27571,5
1772541792208,0.332585,-1.10933,-0.0270315,80.9373,114.906,39.2748,0,0,3.80368,5
1772541792221,0.32466,-1.09782,-0.0240343,77.1518,113.069,36.1803,0,0,3.28631,5
1772541792235,0.314477,-1.08818,-0.0196414,73.4176,111.206,33.05,0,0,3.77934,5
1772541792248,0.301823,-1.08372,-0.0143622,69.4245,109.312,29.8084,0,0,3.30551,5
1772541792262,0.289563,-1.0784,-0.00824615,65.1809,107.301,26.6917,0,0,3.2826,5
1772541792275,0.27722,-1.07438,-0.000635922,60.6633,105.047,23.6573,0,0,3.3596,5
1772541792289,0.266848,-1.06859,0.00797611,56.0346,102.341,20.9224,0,0,3.28466,5
1772541792302,0.256491,-1.0632,0.0161581,51.4322,99.093,18.5328,0,0,3.40168,5
1772541792316,0.248007,-1.05844,0.0237368,46.8474,95.2041,16.5722,0,0,3.28771,5
1772541792330,0.239852,-1.05507,0.029596,42.2457,90.7267,14.9819,0,0,3.90836,5
1772541792343,0.225679,-1.06308,0.0962173,40.2828,86.0641,13.2937,0,0,3.30416,5
1772541792357,0.209574,-1.06444,0.120741,28.5397,81.7945,11.3175,0,0,3.2924,5
1772541792370,0.219329,-1.02296,0.114724,23.0137,78.932,6.10618,0,0,3.30812,5
1772541792383,0.224781,-1.05898,0.115718,13.9868,74.7135,2.89354,0,0,3.30777,5
1772541792397,0.224485,-1.03418,0.119113,6.83036,69.7108,0.0156737,0,0,3.52869,5
1772541792411,0.221757,-1.04902,0.124346,-0.77156,64.2882,-2.67165,0,0,3.28519,5
1772541792424,0.221198,-1.0358,0.123339,-7.92781,59.0665,-4.81901,0,0,3.35279,5
1772541792439,0.216799,-1.03629,0.12133,-14.4262,54.6307,-6.0208,0,0,3.28864,5
1772541792453,0.215283,-1.03034,0.118223,-20.3249,51.1668,-6.41399,0,0,3.79453,5
1772541792466,0.214922,-1.02989,0.113939,-25.8624,48.5327,-5.93304,0,0,3.31866,5
1772541792480,0.214876,-1.02524,0.108647,-30.7998,46.3893,-4.75286,0,0,3.28934,5
1772541792494,0.215184,-1.02445,0.105209,-35.4235,44.4333,-2.9084,0,0,3.38277,5
1772541792507,0.20887,-1.02491,0.0998388,-39.9698,42.7172,-0.975991,0,0,3.51818,5
1772541792525,0.202565,-1.02246,0.0916503,-44.1716,41.0144,0.721277,0,0,3.48683,5
1772541792538,0.200198,-1.01685,0.0789085,-47.3237,38.9467,2.1966,0,0,3.30005,5
1772541792552,0.194816,-1.0061,0.0547765,-48.7789,36.3622,3.07748,0,0,3.2963,5
1772541792565,0.188144,-0.99334,0.0369528,-48.5301,33.7672,2.96481,0,0,3.2923,5
1772541792579,0.182564,-0.991891,0.0227487,-47.5202,31.1867,2.82591,0,0,3.73966,5
1772541792593,0.175498,-0.99074,0.00871741,-46.2219,28.9526,2.3287,0,0,3.30068,5
1772541792606,0.171624,-0.989746,-0.00235139,-44.7416,26.6435,1.71037,0,0,3.29649,5
1772541792619,0.168368,-0.989383,-0.0120927,-43.1226,24.5316,1.21965,0,0,3.30493,5
1772541792633,0.165446,-0.988801,-0.0238316,-41.5678,22.6169,0.797551,0,0,3.28784,5
1772541792646,0.162385,-0.987486,-0.0328363,-39.6734,20.7899,0.435529,0,0,3.30534,5
1772541792660,0.159032,-0.990585,-0.0402407,-38.0029,19.2067,0.209851,0,0,3.28288,5
1772541792673,0.156465,-0.988573,-0.0483037,-36.3697,17.6562,-0.0442734,0,0,3.36094,1
1772541792687,0.15259,-0.991273,-0.0548181,-34.816,16.1944,-0.330388,0,0,3.34379,1
1772541792700,0.149558,-0.993021,-0.0607061,-33.5572,14.818,-0.712638,0,0,3.26651,1
1772541792717,0.146071,-0.993294,-0.0666461,-32.3039,13.574,-1.25757,0,0,3.34575,1
1772541792730,0.141584,-0.99441,-0.0726574,-31.1316,12.4761,-1.94963,0,0,3.26775,1
1772541792744,0.139887,-0.994558,-0.0787261,-30.0037,11.5343,-2.58617,0,0,3.31918,1
1772541792757,0.137752,-0.994732,-0.0841664,-28.9296,10.669,-3.23025,0,0,3.27418,3
1772541792771,0.135859,-0.993115,-0.0905539,-27.8673,9.94764,-3.80695,0,0,3.38797,3
1772541792785,0.133879,-0.994431,-0.0961389,-26.848,9.19141,-4.44721,0,0,3.85897,3
1772541792799,0.134238,-0.993852,-0.102259,-25.9625,8.45147,-4.95308,0,0,4.05701,3
1772541792813,0.136247,-0.994334,-0.108218,-25.1103,7.71921,-5.10172,0,0,3.26881,3
1772541792826,0.136321,-0.99487,-0.113629,-24.4293,7.05586,-5.03992,0,0,3.28858,3
1772541792841,0.135591,-0.994678,-0.118824,-23.7711,6.4918,-4.87497,0,0,4.80107,3
1772541792854,0.134776,-0.995231,-0.124304,-23.1892,5.94439,-4.60452,0,0,3.27086,3
1772541792868,0.135138,-0.995269,-0.129929,-22.5628,5.41357,-4.25504,0,0,3.34918,3
1772541792881,0.134471,-0.994248,-0.135639,-21.9369,4.96561,-3.97183,0,0,3.27558,3
1772541792895,0.134024,-0.994137,-0.141484,-21.3333,4.56632,-3.79015,0,0,3.34168,3
1772541792908,0.132914,-0.993518,-0.147351,-20.8273,4.15818,-3.6786,0,0,3.27201,1
1772541792922,0.132782,-0.993203,-0.152449,-20.3468,3.75024,-3.56261,0,0,3.31192,1
1772541792936,0.133285,-0.993938,-0.156928,-20.0344,3.29624,-3.38461,0,0,4.1249,1
1772541792949,0.132923,-0.994588,-0.161938,-19.9019,2.81676,-3.19561,0,0,3.26616,1
1772541792963,0.132202,-0.995038,-0.166932,-19.8834,2.36588,-3.04719,0,0,3.33201,1
1772541792976,0.132443,-0.995693,-0.172284,-19.9473,1.91717,-2.92808,0,0,3.29618,1
1772541792990,0.130697,-0.996191,-0.17675,-20.1511,1.54544,-2.85033,0,0,3.33568,1
1772541793003,0.130395,-0.996496,-0.181042,-20.2912,1.20698,-2.82062,0,0,3.28538,1
1772541793017,0.129294,-0.997215,-0.184923,-20.5412,0.906342,-2.86194,0,0,3.73655,1
1772541793030,0.129352,-0.998415,-0.190342,-20.8448,0.618288,-2.8761,0,0,3.26832,1
1772541793044,0.131361,-0.998709,-0.195556,-21.2085,0.295865,-2.73533,0,0,3.26888,1
1772541793058,0.133058,-0.999481,-0.200606,-21.7415,-0.00675883,-2.52752,0,0,4.01197,1
1772541793071,0.1342,-1.00393,-0.20598,-22.528,-0.334799,-2.04748,0,0,3.28034,1
1772541793085,0.134257,-1.00623,-0.210692,-23.7367,-0.703528,-1.34002,0,0,3.41853,1
1772541793098,0.133884,-1.00589,-0.215806,-24.7538,-1.11923,-0.581041,0,0,3.28762,1
1772541793112,0.135588,-1.01475,-0.222149,-26.1854,-1.50904,0.066427,0,0,3.93038,1
1772541793126,0.135563,-1.01495,-0.228011,-27.9173,-1.8346,1.00856,0,0,3.27251,1
1772541793139,0.132037,-1.0253,-0.232048,-29.6043,-2.12091,2.41039,0,0,3.2968,1
1772541793154,0.128836,-1.02748,-0.236784,-31.5426,-2.26057,3.5773,0,0,5.13388,1
1772541793168,0.125048,-1.03509,-0.242038,-33.7319,-2.26565,4.33707,0,0,3.28706,1
1772541793181,0.121448,-1.04414,-0.248141,-36.2608,-2.03152,4.94888,0,0,3.35057,1
1772541793195,0.122757,-1.05457,-0.253347,-38.8333,-1.67136,5.302,0,0,3.48029,1
1772541793209,0.134279,-1.07325,-0.258422,-41.4563,-1.70606,5.71368,0,0,3.34642,1
1772541793222,0.129303,-1.10843,-0.259057,-45.307,-1.56155,6.15193,0,0,3.28527,1
1772541793236,0.128976,-1.13905,-0.257818,-50.8956,-1.32666,6.20549,0,0,3.98349,1
1772541793249,0.122279,-1.17119,-0.256397,-57.7653,-0.950378,5.89809,0,0,3.28729,1
1772541793263,0.113323,-1.19782,-0.25473,-66.0057,-0.416215,4.88601,0,0,3.29821,1
1772541793278,0.102548,-1.23165,-0.250668,-75.2906,0.597954,3.38776,0,0,5.01366,1
1772541793291,0.0978496,-1.26536,-0.245941,-85.0981,1.68284,1.29273,0,0,3.3031,1
1772541793305,0.0973607,-1.30756,-0.241635,-94.3556,2.67732,-0.758434,0,0,3.34334,5
1772541793318,0.0934125,-1.34925,-0.234868,-103.094,3.41306,-2.75149,0,0,3.28077,5
1772541793332,0.0829319,-1.36661,-0.231612,-111.342,4.21415,-3.84917,0,0,3.39445,5
1772541793345,0.0846328,-1.36811,-0.234615,-119.127,5.15314,-6.13687,0,0,3.28206,5
1772541793359,0.0857896,-1.36866,-0.239868,-126.476,5.65366,-6.81343,0,0,3.93038,5
1772541793373,0.0749911,-1.36411,-0.237226,-133.412,6.40914,-4.06423,0,0,3.29351,5
1772541793386,0.0587391,-1.35858,-0.221385,-139.96,8.03985,0.529955,0,0,3.3101,5
1772541793400,0.0408062,-1.34378,-0.186815,-146.14,10.8341,4.49478,0,0,3.31008,5
1772541793413,0.0333416,-1.32472,-0.136376,-151.973,14.5168,6.33435,0,0,3.28645,5
1772541793426,0.0388982,-1.25599,-0.133454,-157.48,17.5922,6.80372,0,0,3.3554,5
1772541793440,0.0545684,-1.18064,-0.137142,-162.577,19.7401,4.63869,0,0,3.28101,5
1772541793454,0.0784578,-1.05141,-0.140892,-160.993,19.9572,0.468726,0,0,3.81195,5
1772541793467,0.0901665,-0.929401,-0.137432,-150.316,19.1307,-5.87845,0,0,3.26869,5
1772541793481,0.0984269,-0.851067,-0.12872,-134.388,17.8092,-11.0064,0,0,3.26288,5
1772541793494,0.0962045,-0.769709,-0.11393,-113.823,16.8193,-13.4741,0,0,3.2926,5
1772541793507,0.0883137,-0.709131,-0.0950787,-93.4081,16.689,-13.3786,0,0,3.30699,5
1772541793521,0.0793693,-0.676123,-0.0744355,-74.1382,17.4236,-10.7158,0,0,3.3343,5
1772541793534,0.0712218,-0.652683,-0.0504351,-55.9493,19.0608,-6.51372,0,0,3.29479,5
1772541793548,0.0656728,-0.650586,-0.0238754,-38.7805,21.2857,-1.86049,0,0,3.37969,5
1772541793564,0.0643382,-0.691534,-0.00292959,-22.5749,24.2211,1.95967,0,0,3.30821,5
1772541793579,0.0713793,-0.742211,0.000956794,-7.2782,27.114,5.4281,0,0,3.91477,5
1772541793592,0.0809845,-0.757937,-0.00444485,7.16043,29.6245,7.57713,0,0,3.29488,5
1772541793606,0.0927749,-0.771225,-0.0125891,20.7892,31.6738,8.19603,0,0,3.33795,5
1772541793619,0.102469,-0.787177,-0.0201103,33.6534,33.2593,8.17433,0,0,3.30847,5
1772541793632,0.109808,-0.817614,-0.0292351,45.7961,34.3979,8.69251,0,0,3.29062,5
1772541793646,0.118725,-0.848812,-0.043737,57.2577,34.8029,10.3557,0,0,3.34236,5
1772541793659,0.134428,-0.87603,-0.0609145,68.0763,33.9066,12.7803,0,0,3.30295,5
1772541793673,0.155294,-0.899965,-0.0798606,78.2882,31.2631,15.3536,0,0,3.37766,5
1772541793689,0.171053,-0.925139,-0.100743,87.9272,26.7134,17.6562,0,0,3.33008,5
1772541793702,0.177815,-0.957315,-0.122368,97.0255,21.3185,20.0053,0,0,3.38395,5
1772541793716,0.174331,-0.991533,-0.14467,105.613,15.8939,22.6858,0,0,3.28873,5
1772541793729,0.166547,-1.02814,-0.168292,113.72,11.0853,25.8686,0,0,3.29058,5
1772541793743,0.16,-1.06394,-0.193016,121.371,7.28168,29.236,0,0,3.30086,5
1772541793756,0.157295,-1.09707,-0.219584,128.449,4.52506,31.8381,0,0,3.63934,5
1772541793770,0.158029,-1.12343,-0.249528,134.451,2.56064,32.9742,0,0,3.34936,5
1772541793783,0.159499,-1.14582,-0.282391,139.432,1.12003,32.9358,0,0,3.28414,5
1772541793797,0.156559,-1.17056,-0.31671,142.957,0.241507,32.7026,0,0,3.38968,5
1772541793810,0.154688,-1.20069,-0.354418,143.889,-0.145419,33.1192,0,0,3.32088,5
1772541793824,0.157831,-1.21987,-0.395026,142.199,-0.212194,34.0841,0,0,3.31505,5
1772541793838,0.168749,-1.23093,-0.436623,138.394,-0.202433,34.6604,0,0,3.30993,5
1772541793851,0.184581,-1.23797,-0.478728,132.621,-0.294699,34.4585,0,0,3.28699,5
1772541793865,0.200019,-1.2404,-0.519312,125.095,-0.516668,33.0425,0,0,3.34619,1
1772541793878,0.215956,-1.36109,-0.527426,113.383,0.119909,26.4507,0,0,3.39364,1
1772541793892,0.150491,-1.36231,-0.561705,96.2755,3.36611,21.1356,0,0,3.40005,1
1772541793905,0.161932,-1.33806,-0.530243,81.8409,4.95727,17.9526,0,0,3.30516,1
1772541793919,0.164,-1.33345,-0.50083,67.4328,5.15706,15.6927,0,0,3.33075,1
1772541793932,0.168007,-1.31086,-0.476739,54.0503,4.43532,13.0441,0,0,3.31414,1
1772541793946,0.165912,-1.29573,-0.457747,42.376,3.14733,11.0552,0,0,3.29558,1
1772541793959,0.163013,-1.27769,-0.441402,32.0506,2.52333,8.99728,0,0,3.37349,1
1772541793973,0.165194,-1.26573,-0.424853,22.799,2.23278,7.58656,0,0,3.38708,1
1772541793986,0.166031,-1.25082,-0.411697,14.4683,2.01034,6.56626,0,0,3.35588,1
1772541794001,0.170055,-1.23527,-0.4006,7.57308,1.46297,6.08961,0,0,3.31056,5
1772541794014,0.171427,-1.22253,-0.390992,1.61997,0.722784,6.24173,0,0,3.40701,5
1772541794028,0.169749,-1.20766,-0.382232,-3.20921,0.130737,6.62039,0,0,3.28817,5
1772541794041,0.166265,-1.19823,-0.372093,-7.58124,-0.211438,7.06002,0,0,3.29153,5
1772541794055,0.163798,-1.18829,-0.362643,-11.4447,-0.560539,7.56405,0,0,3.31045,5
1772541794068,0.160073,-1.17639,-0.354791,-14.6389,-1.00353,7.85227,0,0,3.33051,1
1772541794081,0.152005,-1.15822,-0.348073,-16.6292,-1.35787,7.38827,0,0,3.35169,1
1772541794095,0.151497,-1.1473,-0.348706,-17.4666,-1.97322,6.3868,0,0,3.2949,1
1772541794109,0.145448,-1.13819,-0.346365,-18.1525,-2.3815,5.15333,0,0,3.80914,1
1772541794122,0.14323,-1.12855,-0.343998,-18.2274,-2.72149,3.55702,0,0,3.27336,1
1772541794136,0.138738,-1.12207,-0.343282,-18.2348,-3.05654,1.95861,0,0,3.69299,1
1772541794150,0.13912,-1.11308,-0.339811,-17.6504,-3.21993,0.640834,0,0,3.29067,1
1772541794163,0.141641,-1.11127,-0.337859,-17.3262,-3.37116,-0.389789,0,0,3.26856,1
1772541794176,0.143284,-1.10323,-0.334572,-16.7491,-3.46381,-1.28467,0,0,3.30651,1
1772541794190,0.144972,-1.10002,-0.330435,-16.1864,-3.50545,-1.94353,0,0,3.64179,1
1772541794204,0.145839,-1.09404,-0.3279,-15.5846,-3.53019,-2.52004,0,0,3.34831,1
1772541794220,0.146967,-1.09022,-0.324194,-15.0153,-3.58481,-2.96958,0,0,3.27529,1
1772541794234,0.14796,-1.08563,-0.321217,-14.4535,-3.61709,-3.34209,0,0,3.92831,1
1772541794248,0.148899,-1.08252,-0.317472,-14.0102,-3.61801,-3.60465,0,0,3.27692,3
1772541794261,0.14858,-1.07817,-0.313582,-13.5189,-3.56579,-3.81951,0,0,3.28514,3
1772541794275,0.150474,-1.07595,-0.310257,-13.059,-3.49852,-3.8352,0,0,3.9916,3
1772541794289,0.152243,-1.07184,-0.307472,-12.613,-3.39862,-3.68302,0,0,3.26551,3
1772541794302,0.154212,-1.07009,-0.304542,-12.1671,-3.31803,-3.44688,0,0,3.33442,3
1772541794316,0.154643,-1.06657,-0.301965,-11.8773,-3.23896,-3.18118,0,0,3.51316,3
1772541794329,0.155257,-1.06285,-0.299746,-11.5249,-3.20628,-3.00488,0,0,3.2971,3
1772541794342,0.154799,-1.06119,-0.297656,-11.3953,-3.24567,-2.98105,0,0,3.27236,1
1772541794356,0.153923,-1.05726,-0.295315,-11.3401,-3.31967,-3.19921,0,0,3.32264,1
1772541794371,0.150928,-1.05494,-0.293387,-11.3682,-3.40065,-3.65904,0,0,3.3001,1
1772541794384,0.152987,-1.05096,-0.292418,-11.4276,-3.4728,-4.13846,0,0,3.27492,1
1772541794398,0.154752,-1.04796,-0.291407,-11.4841,-3.56617,-4.54561,0,0,3.28871,1
1772541794411,0.156291,-1.04498,-0.290995,-11.5858,-3.6299,-4.80831,0,0,3.27655,1
1772541794424,0.158457,-1.04186,-0.290173,-11.5868,-3.71532,-4.89828,0,0,3.30242,1
1772541794439,0.1604,-1.03934,-0.289271,-11.6429,-3.80793,-4.83419,0,0,4.12933,1
1772541794452,0.162482,-1.03708,-0.288792,-11.7469,-3.90477,-4.62597,0,0,3.30438,1
1772541794465,0.164024,-1.036,-0.288067,-11.9516,-4.03,-4.28214,0,0,3.28429,1
1772541794480,0.164741,-1.03581,-0.287384,-12.3346,-4.17861,-3.92034,0,0,3.94651,1
1772541794493,0.165758,-1.03528,-0.287468,-12.8964,-4.34415,-3.56898,0,0,3.28695,1
1772541794506,0.166517,-1.03483,-0.286876,-13.6049,-4.51882,-3.23006,0,0,3.27064,1
1772541794520,0.167883,-1.0342,-0.287559,-14.5168,-4.69567,-2.78254,0,0,3.39036,1
1772541794533,0.171239,-1.0329,-0.289141,-15.5437,-4.93711,-2.00303,0,0,3.26749,1
1772541794547,0.175292,-1.03458,-0.290547,-16.7597,-5.28319,-0.743132,0,0,3.27868,1
1772541794560,0.179606,-1.03238,-0.292511,-18.098,-5.70106,0.872994,0,0,3.28934,1
1772541794574,0.180826,-1.03637,-0.292958,-19.7371,-6.2552,2.58944,0,0,3.36306,1
1772541794589,0.177702,-1.04372,-0.291036,-22.0149,-6.86432,4.03576,0,0,3.30171,1
1772541794602,0.168628,-1.04656,-0.291057,-24.8833,-7.20549,5.14104,0,0,3.32227,1
1772541794616,0.161488,-1.05462,-0.298123,-27.9865,-7.2766,5.60585,0,0,3.2914,1
1772541794629,0.153347,-1.06446,-0.303247,-31.6474,-6.91255,6.12423,0,0,3.29303,1
1772541794643,0.15577,-1.06739,-0.309396,-34.7587,-6.71321,8.65298,0,0,3.39945,1
1772541794657,0.159581,-1.08927,-0.311047,-37.0943,-6.72458,9.75019,0,0,3.30677,1
1772541794671,0.156606,-1.11531,-0.31126,-40.0692,-6.39277,10.4626,0,0,3.42942,1
1772541794684,0.155352,-1.15552,-0.308613,-44.6773,-5.90145,11.3106,0,0,3.44055,1
1772541794698,0.149423,-1.19914,-0.303498,-50.8613,-5.07287,11.5466,0,0,4.01288,1
1772541794712,0.141233,-1.24452,-0.296301,-59.0221,-3.71828,11.0094,0,0,3.2999,1
1772541794725,0.135996,-1.28665,-0.286087,-68.8443,-2.20546,9.80483,0,0,3.29031,1
1772541794739,0.127059,-1.32738,-0.274184,-79.0135,-0.718405,8.07177,0,0,3.31355,1
1772541794752,0.117008,-1.37467,-0.261061,-88.6123,0.92074,5.89556,0,0,3.29869,1
1772541794766,0.111357,-1.41875,-0.249933,-97.6726,2.4521,3.28263,0,0,3.35256,1
1772541794779,0.0975931,-1.45712,-0.245323,-106.225,3.85346,1.53176,0,0,3.39375,1
1772541794794,0.105572,-1.46059,-0.244482,-114.297,5.17492,-1.96338,0,0,4.31775,5
1772541794808,0.0948901,-1.47616,-0.227063,-121.917,6.22316,-1.72822,0,0,3.2904,5
1772541794821,0.0801916,-1.47962,-0.192534,-129.109,7.69003,1.78608,0,0,3.2706,5
1772541794834,0.0610857,-1.45407,-0.139826,-135.898,10.1828,4.99663,0,0,3.29569,5
1772541794848,0.0392065,-1.42532,-0.0893059,-142.306,14.1242,5.94611,0,0,3.27814,5
1772541794861,0.0483503,-1.35156,-0.0781507,-148.354,17.7072,4.22568,0,0,3.3204,5
1772541794875,0.0586317,-1.24991,-0.0732916,-154.064,20.4186,-1.93745,0,0,3.47577,5
1772541794888,0.0786812,-1.11599,-0.0708337,-152.194,21.663,-9.94247,0,0,3.35051,5
1772541794902,0.09306,-1.01768,-0.0650027,-142.483,22.0022,-17.3007,0,0,3.29927,5
1772541794916,0.10113,-0.940286,-0.053501,-128.21,21.9669,-20.4451,0,0,3.71647,5
1772541794929,0.102868,-0.879434,-0.0394808,-110.174,21.914,-19.2212,0,0,3.29931,5
1772541794943,0.0995222,-0.82403,-0.0275791,-89.9638,21.7767,-15.5885,0,0,3.30229,5
1772541794956,0.0986292,-0.762998,-0.0118845,-70.8872,21.5832,-11.6714,0,0,3.39001,5
1772541794970,0.104779,-0.725157,0.00835549,-52.8805,21.1836,-7.43579,0,0,3.27119,5
1772541794983,0.110393,-0.710292,0.0338175,-35.884,20.4274,-2.72057,0,0,3.33832,5
1772541794999,0.109623,-0.735699,0.0540874,-19.8408,19.4819,2.26455,0,0,3.30801,5
1772541795012,0.104391,-0.773587,0.061171,-4.69746,18.7595,6.41639,0,0,3.36836,5
1772541795026,0.094199,-0.797753,0.0592646,9.59641,18.8218,8.86795,0,0,3.29243,5
1772541795039,0.0830327,-0.812566,0.0531388,23.0885,19.9425,10.3166,0,0,3.29238,5
1772541795053,0.0720344,-0.830159,0.0451668,35.8238,22.2956,11.9148,0,0,4.0354,5
1772541795067,0.0647949,-0.856762,0.0357391,47.8447,25.4472,13.9672,0,0,3.28332,5
1772541795080,0.0658476,-0.891395,0.0224849,59.1914,28.5757,16.1284,0,0,3.30916,5
1772541795094,0.0786416,-0.925345,0.00519799,69.9016,30.7392,18.1932,0,0,3.28966,5
1772541795109,0.102172,-0.955911,-0.0147816,80.011,30.7123,20.3986,0,0,4.82909,5
1772541795122,0.128485,-0.98861,-0.0372079,89.5534,28.2937,22.9424,0,0,3.29695,5
1772541795136,0.149196,-1.02477,-0.0602977,98.5605,23.7543,26.1061,0,0,3.96897,5
1772541795150,0.158729,-1.06204,-0.086467,107.062,17.8009,29.8433,0,0,3.72866,5
1772541795164,0.158183,-1.09792,-0.115965,115.087,11.7344,33.7777,0,0,3.58631,5
1772541795178,0.152173,-1.14028,-0.151552,122.662,6.5267,37.2979,0,0,3.3088,5
1772541795191,0.147141,-1.18041,-0.194272,129.812,2.61693,39.7304,0,0,3.28918,5
1772541795204,0.145671,-1.21577,-0.245311,136.13,-0.0411684,40.3322,0,0,3.31375,5
1772541795218,0.149123,-1.24526,-0.301922,140.186,-1.82525,39.2011,0,0,3.29481,5
1772541795231,0.151111,-1.27352,-0.362474,141.363,-3.01428,37.7395,0,0,3.38684,5
1772541795245,0.145218,-1.29816,-0.426827,138.977,-3.29994,37.0164,0,0,3.28666,5
1772541795258,0.148903,-1.30766,-0.493352,133.554,-2.77014,37.4261,0,0,3.28803,5
1772541795274,0.171859,-1.3083,-0.556444,125.887,-2.35228,36.8366,0,0,6.12915,5
1772541795288,0.20483,-1.30528,-0.611139,116.083,-2.85748,33.9195,0,0,3.28282,5
1772541795303,0.226216,-1.30323,-0.654293,104.851,-4.21297,28.9806,0,0,4.98251,5
1772541795316,0.228089,-1.30369,-0.659696,93.9424,-6.42246,23.0333,0,0,3.28429,5
1772541795330,0.188764,-1.35913,-0.455921,74.6421,-5.10735,22.6611,0,0,3.33729,5
1772541795343,0.166596,-1.29694,-0.395004,58.9726,-3.23744,18.5742,0,0,3.55655,5
1772541795357,0.175807,-1.30709,-0.377484,44.3931,-4.24705,15.7712,0,0,3.33755,1
1772541795370,0.168705,-1.28605,-0.36372,30.2242,-5.67533,14.3458,0,0,3.28477,1
1772541795384,0.162139,-1.26047,-0.353024,18.9328,-5.62375,12.5366,0,0,3.9649,1
1772541795398,0.157141,-1.25462,-0.341258,8.4841,-4.95504,11.2078,0,0,3.27353,1
1772541795411,0.17017,-1.24,-0.338121,-0.810723,-4.72506,11.0004,0,0,3.29729,1
1772541795425,0.170224,-1.22155,-0.336467,-7.86329,-4.96014,11.0381,0,0,3.30297,1
1772541795439,0.169527,-1.20402,-0.339123,-12.9685,-5.47492,11.0218,0,0,3.30175,1
1772541795452,0.171455,-1.18976,-0.337383,-16.2999,-5.98908,11.3148,0,0,3.35932,1
1772541795466,0.164416,-1.17262,-0.339209,-18.4942,-6.27529,11.1999,0,0,3.29497,1
1772541795480,0.163162,-1.15908,-0.335831,-19.459,-6.73556,10.6539,0,0,3.98886,1
1772541795497,0.155664,-1.15143,-0.335302,-20.4065,-7.18586,9.48123,0,0,3.28277,1
1772541795511,0.149967,-1.13745,-0.33691,-20.6745,-7.65586,7.71966,0,0,3.95631,3
1772541795524,0.140985,-1.1241,-0.339707,-20.2508,-7.78692,5.94899,0,0,3.27336,3
1772541795538,0.145272,-1.12458,-0.334695,-19.499,-7.80315,4.73109,0,0,3.29081,3
1772541795554,0.145602,-1.11716,-0.330126,-19.1726,-7.63821,3.42779,0,0,5.67402,3
1772541795567,0.148919,-1.11384,-0.324498,-18.5553,-7.41744,2.57183,0,0,3.26312,3
1772541795580,0.15193,-1.10824,-0.319638,-18.1182,-7.22446,2.34493,0,0,3.32516,3
1772541795594,0.153913,-1.10495,-0.315931,-17.6881,-7.04659,2.54995,0,0,3.28679,3
1772541795607,0.152317,-1.10075,-0.31278,-17.3785,-6.88726,2.95714,0,0,3.32375,3
1772541795621,0.151155,-1.09739,-0.309982,-17.0879,-6.81951,3.38302,0,0,4.07414,3
1772541795635,0.148569,-1.09411,-0.307647,-16.9473,-6.77482,3.65527,0,0,3.40369,3
1772541795648,0.145019,-1.08871,-0.305435,-16.7631,-6.67955,3.64934,0,0,3.27525,3
1772541795662,0.142574,-1.08342,-0.303203,-16.4655,-6.49928,3.53756,0,0,3.26849,3
1772541795675,0.142702,-1.07966,-0.301058,-16.1161,-6.27302,3.44104,0,0,3.30488,3
1772541795689,0.14165,-1.07596,-0.299017,-15.8103,-6.03034,3.4437,0,0,3.30545,3
1772541795702,0.141018,-1.07187,-0.297674,-15.472,-5.77515,3.47747,0,0,3.34862,3
1772541795715,0.14145,-1.06848,-0.296209,-15.1535,-5.58694,3.61083,0,0,3.27803,3
1772541795729,0.140111,-1.06514,-0.294807,-14.8708,-5.41914,3.71573,0,0,3.83042,3
1772541795745,0.138372,-1.06161,-0.293584,-14.622,-5.28858,3.74024,0,0,3.3001,1
1772541795758,0.136185,-1.05815,-0.292233,-14.385,-5.17862,3.60837,0,0,3.31025,1
1772541795772,0.13355,-1.05566,-0.291625,-14.2846,-5.04743,3.31134,0,0,3.28251,1
1772541795785,0.132077,-1.05147,-0.292025,-14.1651,-4.94714,2.98301,0,0,3.26977,1
1772541795798,0.130219,-1.04867,-0.292302,-14.0419,-4.84392,2.59774,0,0,3.3428,1
1772541795812,0.130258,-1.04473,-0.292213,-13.8991,-4.71822,2.21096,0,0,3.28851,1
1772541795826,0.128821,-1.04219,-0.292225,-13.7215,-4.55847,1.81461,0,0,3.4976,1
1772541795839,0.129786,-1.04065,-0.292001,-13.6022,-4.42181,1.49531,0,0,3.2746,1
1772541795853,0.12932,-1.03907,-0.291563,-13.6768,-4.25385,1.23288,0,0,3.9089,1
1772541795869,0.128373,-1.03885,-0.291379,-13.8726,-4.06406,1.02328,0,0,3.28121,1
1772541795882,0.127404,-1.03864,-0.291876,-14.2433,-3.8939,0.878532,0,0,3.31462,1
1772541795899,0.12795,-1.03837,-0.292244,-14.6822,-3.69732,0.727344,0,0,6.31261,1
1772541795912,0.12718,-1.04212,-0.292628,-15.556,-3.43298,0.665565,0,0,3.26982,1
1772541795925,0.124159,-1.0426,-0.29307,-16.5863,-3.10768,0.901414,0,0,3.27555,1
1772541795939,0.125776,-1.04725,-0.294656,-17.8401,-2.80362,1.35825,0,0,3.29023,1
1772541795952,0.129362,-1.05072,-0.296504,-19.501,-2.65706,1.79246,0,0,3.31918,1
1772541795966,0.131552,-1.05448,-0.298282,-21.2863,-2.62063,2.06102,0,0,3.26866,1
1772541795980,0.134607,-1.05843,-0.298306,-23.308,-2.70486,2.23957,0,0,4.34938,1
1772541795995,0.133984,-1.06569,-0.299984,-25.7853,-2.85629,2.31905,0,0,3.43294,1
1772541796009,0.136496,-1.0708,-0.300905,-28.5818,-2.9851,2.41591,0,0,3.44369,5
1772541796022,0.136516,-1.07978,-0.302821,-31.7037,-3.15593,2.47308,0,0,3.2844,5
1772541796036,0.136375,-1.09102,-0.304344,-35.4297,-3.25294,2.49878,0,0,3.72392,5
1772541796050,0.134191,-1.10164,-0.305256,-39.6172,-3.20578,2.43013,0,0,3.31382,5
1772541796063,0.13239,-1.11159,-0.306961,-44.2447,-3.05465,2.3118,0,0,3.29497,5
1772541796077,0.130786,-1.12282,-0.308591,-49.2754,-2.79681,2.156,0,0,3.33812,1
1772541796090,0.139864,-1.13155,-0.309552,-54.575,-2.56757,2.00124,0,0,3.28368,1
1772541796105,0.142439,-1.15896,-0.308368,-60.3725,-2.6886,1.73441,0,0,3.35097,1
1772541796118,0.1318,-1.19177,-0.304043,-68.023,-2.34896,1.47655,0,0,3.28184,1
1772541796132,0.130723,-1.21919,-0.297483,-76.9224,-1.92817,1.0606,0,0,3.32903,1
1772541796147,0.128284,-1.24814,-0.292193,-86.6385,-1.38798,0.165719,0,0,3.29364,1
1772541796162,0.127799,-1.28703,-0.289216,-95.8095,-0.898207,-0.886638,0,0,4.74581,1
1772541796176,0.131114,-1.32693,-0.286957,-104.466,-0.507416,-1.75065,0,0,3.29638,1
1772541796189,0.123149,-1.37047,-0.284412,-112.637,-0.234887,-1.37199,0,0,3.29286,5
1772541796203,0.124586,-1.39745,-0.285587,-120.35,0.383315,-3.47151,0,0,3.59021,5
1772541796216,0.131501,-1.41284,-0.286593,-127.63,0.52581,-3.61248,0,0,3.48934,5
1772541796230,0.125985,-1.42262,-0.27754,-134.502,1.01271,0.3659,0,0,3.30242,5
1772541796243,0.109425,-1.42685,-0.247786,-140.988,2.48367,5.67458,0,0,3.28721,5
1772541796257,0.0962583,-1.41275,-0.186885,-147.11,4.90405,7.75027,0,0,3.91664,5
1772541796271,0.0454227,-1.33978,-0.208287,-152.89,10.2686,5.89567,0,0,3.29964,5
1772541796284,0.0408738,-1.12918,-0.195121,-150.058,16.9962,1.01292,0,0,3.29662,5
1772541796298,0.0481083,-1.0281,-0.182926,-135.861,23.1482,-1.58475,0,0,3.43547,5
1772541796311,0.0665467,-1.00727,-0.166833,-120.105,27.9869,-1.30232,0,0,3.27599,5
1772541796325,0.083741,-0.973363,-0.148764,-103.123,31.4971,0.0176097,0,0,3.30282,5
1772541796338,0.0963397,-0.938322,-0.12999,-85.1406,33.3759,0.446949,0,0,3.29666,5
1772541796354,0.11111,-0.895835,-0.113767,-66.3345,33.3749,-0.05769,0,0,5.09859,5
1772541796367,0.124241,-0.851683,-0.0929903,-48.5833,32.0565,-0.313079,0,0,3.29923,5
1772541796382,0.128022,-0.82601,-0.0677193,-31.8277,30.1034,1.09994,0,0,4.53518,5
1772541796396,0.121644,-0.82307,-0.0457636,-16.0121,28.3442,4.32843,0,0,3.86225,5
1772541796410,0.11137,-0.827434,-0.0311101,-1.08352,27.0279,8.42017,0,0,3.35742,5
1772541796423,0.103467,-0.831959,-0.0226602,13.0076,26.2046,12.4802,0,0,3.30227,5
1772541796437,0.0988572,-0.845533,-0.0186583,26.3084,25.6875,16.2945,0,0,3.29294,5
1772541796451,0.0971711,-0.8662,-0.0195613,38.8631,25.2939,19.5716,0,0,4.51251,5
1772541796465,0.0973952,-0.897334,-0.0260942,50.7135,24.9524,22.2577,0,0,3.27858,5
1772541796478,0.102201,-0.92479,-0.037744,61.8993,24.3998,24.2643,0,0,3.33801,5
1772541796491,0.113629,-0.949177,-0.0522795,72.4576,23.1544,25.3859,0,0,3.26195,5
1772541796505,0.129597,-0.971589,-0.0671296,82.4236,20.7406,25.9012,0,0,3.33558,5
1772541796520,0.143959,-0.998755,-0.0834977,91.8307,16.9379,26.6667,0,0,3.30886,5
1772541796533,0.150091,-1.03073,-0.10136,100.71,12.2189,27.9447,0,0,3.28155,5
1772541796546,0.148332,-1.06267,-0.123481,109.091,7.03673,29.5758,0,0,3.31594,5
1772541796560,0.138407,-1.08744,-0.147207,117.003,1.93411,31.3843,0,0,3.41788,5
1772541796573,0.124987,-1.1199,-0.173227,124.47,-2.63222,33.7396,0,0,3.35805,5
1772541796587,0.111353,-1.15928,-0.203832,131.519,-6.33997,37.002,0,0,3.28918,5
1772541796601,0.107413,-1.20634,-0.24432,138.172,-9.27153,40.2449,0,0,3.9086,5
1772541796617,0.112463,-1.23158,-0.283112,141.572,-11.7316,41.9958,0,0,3.29505,5
1772541796631,0.120795,-1.24072,-0.32198,146.726,-13.8118,42.5565,0,0,3.81649,5
1772541796648,0.129232,-1.27889,-0.365276,147.186,-15.5257,42.1729,0,0,6.79972,5
1772541796662,0.115348,-1.29963,-0.411762,145.85,-15.9694,41.2242,0,0,3.80268,5
1772541796675,0.095367,-1.31448,-0.463709,141.66,-14.2425,41.0044,0,0,3.28725,5
1772541796689,0.0891891,-1.32235,-0.514677,135.284,-10.8749,41.2109,0,0,3.29586,1
1772541796702,0.10376,-1.3286,-0.562038,126.816,-7.06423,40.347,0,0,3.30138,1
1772541796715,0.128082,-1.32624,-0.600752,116.979,-3.92159,36.6725,0,0,3.28775,1
1772541796729,0.107138,-1.44317,-0.620102,100.536,-0.106137,30.0326,0,0,3.34423,1
1772541796742,0.0788563,-1.37067,-0.58315,81.4681,4.36494,21.9869,0,0,3.28836,5
1772541796756,0.10668,-1.35463,-0.542176,69.2912,5.59949,16.6126,0,0,3.41236,5
1772541796773,0.132038,-1.35377,-0.514974,52.7071,3.81543,13.2294,0,0,3.30423,5
1772541796787,0.135222,-1.31804,-0.490617,39.3097,1.27123,10.3391,0,0,3.93181,5
1772541796800,0.129404,-1.30875,-0.470634,27.3926,-0.465723,7.7698,0,0,3.27693,5
1772541796814,0.127333,-1.2937,-0.454462,16.1307,-1.08573,5.82119,0,0,3.27827,5
1772541796827,0.132825,-1.27618,-0.442872,6.46862,-1.14815,4.83697,0,0,3.3096,5
1772541796841,0.139936,-1.2599,-0.43622,-1.73517,-1.5449,4.6149,0,0,3.29095,5
1772541796854,0.145934,-1.24079,-0.428461,-7.84526,-2.55697,4.58212,0,0,3.35642,5
1772541796868,0.148617,-1.22386,-0.425141,-12.54,-3.81628,4.78497,0,0,3.27656,5
1772541796881,0.146345,-1.20262,-0.423386,-15.2111,-4.65042,4.89551,0,0,3.36531,5
1772541796895,0.144718,-1.19136,-0.417981,-16.8649,-5.26478,4.90908,0,0,3.30358,5
1772541796911,0.14282,-1.17774,-0.411436,-17.9554,-5.99711,4.67996,0,0,3.36808,5
1772541796924,0.136307,-1.16478,-0.408177,-18.545,-6.47299,4.38662,0,0,3.25582,5
1772541796938,0.132791,-1.15129,-0.40254,-18.4728,-6.51497,3.92519,0,0,3.30866,3
1772541796951,0.129076,-1.14485,-0.395741,-18.2378,-6.51177,3.085,0,0,3.27655,3
1772541796964,0.130329,-1.1373,-0.391588,-17.8459,-6.52974,2.21187,0,0,3.30045,3
1772541796978,0.131206,-1.13281,-0.382973,-17.357,-6.47562,1.33163,0,0,3.32914,3
1772541796991,0.132216,-1.12894,-0.375193,-17.0274,-6.37915,0.578685,0,0,3.30914,3
1772541797005,0.134356,-1.12358,-0.368672,-16.7351,-6.34418,0.132169,0,0,3.34969,3
1772541797018,0.137609,-1.1204,-0.36267,-16.4948,-6.37968,0.0451126,0,0,3.27431,3
1772541797032,0.139908,-1.11534,-0.357348,-16.3848,-6.41747,0.272518,0,0,3.27727,3
1772541797045,0.141413,-1.11088,-0.351906,-16.204,-6.54007,0.736373,0,0,3.29306,3
1772541797058,0.139991,-1.10634,-0.347012,-16.1429,-6.66306,1.14124,0,0,3.28073,3
1772541797072,0.139154,-1.1009,-0.342652,-15.964,-6.7706,1.42619,0,0,3.33803,3
1772541797085,0.13689,-1.09581,-0.338375,-15.7858,-6.82072,1.48107,0,0,3.26999,3
1772541797099,0.135292,-1.08999,-0.334895,-15.5182,-6.86717,1.43868,0,0,3.37066,3
1772541797113,0.135237,-1.08556,-0.330873,-15.2189,-6.87548,1.39951,0,0,3.30221,1
1772541797126,0.13433,-1.08198,-0.327806,-15.0144,-6.88075,1.3771,0,0,3.28401,1
1772541797140,0.136218,-1.07687,-0.324883,-14.7716,-6.93839,1.47199,0,0,3.2794,1
1772541797153,0.135877,-1.07286,-0.322548,-14.5802,-6.98295,1.50846,0,0,3.25494,1
1772541797166,0.135091,-1.06987,-0.319482,-14.4663,-7.06398,1.53217,0,0,3.30651,1
1772541797180,0.133913,-1.06689,-0.317405,-14.4487,-7.18285,1.46593,0,0,3.30769,1
1772541797193,0.133481,-1.06321,-0.315268,-14.4077,-7.29463,1.33746,0,0,3.29216,1
1772541797206,0.133761,-1.06038,-0.313503,-14.4581,-7.42411,1.2012,0,0,3.25451,1
1772541797220,0.134307,-1.05827,-0.309989,-14.6357,-7.62084,1.16851,0,0,3.2793,1
1772541797233,0.136142,-1.05748,-0.309351,-15.0493,-7.83522,1.17832,0,0,3.27234,1
1772541797247,0.136509,-1.05583,-0.308325,-15.5415,-8.08596,1.25353,0,0,3.27414,1
1772541797260,0.135781,-1.04941,-0.307771,-15.9239,-8.23871,1.3592,0,0,3.30799,1
1772541797273,0.13563,-1.04671,-0.307989,-16.0408,-8.27927,1.44738,0,0,3.27549,1
1772541797287,0.135069,-1.04575,-0.306702,-16.2958,-8.29529,1.6124,0,0,3.33784,1
1772541797300,0.131234,-1.04342,-0.305898,-16.5819,-8.21493,1.79386,0,0,3.28316,1
1772541797314,0.127544,-1.03769,-0.30544,-16.694,-7.91685,1.85509,0,0,3.94601,1
1772541797328,0.124251,-1.03572,-0.30656,-16.5699,-7.45778,1.86579,0,0,3.27469,3
1772541797341,0.120932,-1.03385,-0.307759,-16.3816,-6.86091,1.85619,0,0,3.27121,3
1772541797355,0.116177,-1.03294,-0.3077,-16.0472,-6.15278,1.68485,0,0,3.30282,3
1772541797368,0.113178,-1.03328,-0.308198,-15.8189,-5.30539,1.46873,0,0,3.27293,3
1772541797381,0.107353,-1.03447,-0.308439,-15.7747,-4.36381,1.02111,0,0,3.34362,3
1772541797395,0.102979,-1.03298,-0.310144,-15.8567,-3.34059,0.321123,0,0,3.27892,3
1772541797408,0.101497,-1.02784,-0.312051,-15.9615,-2.21676,-0.45478,0,0,3.3744,3
1772541797422,0.100539,-1.02242,-0.312455,-15.9697,-1.17182,-1.37856,0,0,3.27556,3
1772541797436,0.0968037,-1.01561,-0.313012,-15.9153,-0.0450438,-2.64617,0,0,3.85281,5
1772541797449,0.0851711,-1.01127,-0.314175,-15.7218,1.26174,-4.49308,0,0,3.29719,5
1772541797463,0.0680255,-1.01274,-0.313621,-15.5314,3.30278,-6.56825,0,0,3.27668,5
1772541797476,0.0435367,-1.02302,-0.313797,-15.8502,6.24542,-9.17058,0,0,3.34632,5
1772541797490,0.0147269,-1.03881,-0.313014,-16.9941,10.6171,-11.3854,0,0,3.29486,5
1772541797503,-0.00987604,-1.05471,-0.309948,-19.0339,16.3399,-12.9811,0,0,3.35286,5
1772541797517,-0.0263029,-1.07104,-0.306772,-21.8961,23.0592,-13.7405,0,0,3.30625,5
1772541797531,-0.0339718,-1.08433,-0.3073,-25.3116,30.3937,-13.7203,0,0,4.0144,5
1772541797544,-0.0401414,-1.09756,-0.302701,-29.4912,38.2879,-12.5063,0,0,3.27384,5
1772541797558,-0.0491909,-1.10712,-0.286944,-33.9001,46.7948,-9.72849,0,0,3.53938,5
1772541797573,-0.0488121,-1.10977,-0.27937,-38.5271,55.5837,-6.92839,0,0,4.87825,5
1772541797586,-0.0481508,-1.10706,-0.271487,-42.8984,64.4551,-3.88586,0,0,3.26445,5
1772541797600,-0.0446677,-1.10896,-0.263234,-47.2468,73.1924,-0.563971,0,0,3.33621,5
1772541797613,-0.0280229,-1.10401,-0.260926,-51.0682,81.3459,1.50797,0,0,3.2883,5
1772541797626,-0.0335345,-1.10677,-0.250241,-54.8834,89.8221,5.33016,0,0,3.3811,5
1772541797640,-0.0235798,-1.09827,-0.246984,-58.4186,97.8135,6.77475,0,0,3.32699,5
1772541797656,-0.015993,-1.09061,-0.243443,-61.2267,105.298,7.63134,0,0,4.65603,5
1772541797670,-0.0182618,-1.08926,-0.238125,-64.6622,112.962,10.2053,0,0,3.28025,5
1772541797683,-0.0220862,-1.07725,-0.233573,-67.7679,120.656,12.3266,0,0,3.27664,5
1772541797696,-0.0188355,-1.06567,-0.225419,-70.1814,127.919,15.0337,0,0,3.31556,5
1772541797710,-0.013773,-1.05463,-0.215582,-72.4689,134.774,17.5855,0,0,3.29788,5
1772541797723,-0.00908146,-1.04267,-0.203848,-74.1026,141.245,20.6274,0,0,3.34145,5
1772541797737,-0.00637809,-1.04127,-0.191879,-75.6512,147.352,24.4695,0,0,3.2871,5
1772541797751,0.00906202,-1.03395,-0.176761,-77.0161,153.117,27.7016,0,0,3.38379,5
1772541797766,0.02703,-1.02613,-0.159913,-77.8523,158.559,30.7178,0,0,5.27805,5
1772541797780,0.0444043,-1.02366,-0.144143,-78.237,163.695,33.5674,0,0,3.34042,5
1772541797793,0.0618303,-1.02604,-0.128732,-78.9473,168.544,37.03,0,0,3.26579,5
1772541797809,0.0805975,-1.02787,-0.109906,-79.8452,173.12,40.9398,0,0,3.31032,5
1772541797822,0.123378,-1.02871,-0.0930878,-80.7809,177.44,45.5967,0,0,3.29238,5
1772541797835,0.171132,-1.01777,-0.0790553,-81.2432,181.517,50.0618,0,0,3.27471,5
1772541797849,0.226994,-1.00431,-0.0643446,-80.8035,185.171,54.4673,0,0,3.30238,5
1772541797863,0.284438,-0.989057,-0.0471382,-79.6443,186.435,58.9127,0,0,3.34245,5
1772541797877,0.336189,-0.960559,-0.0319869,-76.4447,185.117,66.4502,0,0,3.32225,5
1772541797890,0.363051,-0.943193,-0.0141776,-71.4074,182.554,73.4476,0,0,3.27021,5
1772541797904,0.378756,-0.926182,0.00529779,-64.8235,180.283,78.0748,0,0,3.36282,5
1772541797920,0.383877,-0.92768,0.0297938,-57.8993,180.115,80.4397,0,0,6.61156,4
1772541797934,0.384172,-0.922088,0.0567312,-51.0617,182.269,81.8148,0,0,3.79994,4
1772541797948,0.398751,-0.917498,0.0867827,-43.9294,186.075,82.8379,0,0,3.28292,4
1772541797961,0.429636,-0.906404,0.117901,-36.461,189.668,83.0679,0,0,3.2854,4
1772541797974,0.467413,-0.893489,0.14674,-27.9678,192.744,81.7603,0,0,3.31212,4
1772541797988,0.507467,-0.889178,0.170474,-19.0989,194.408,79.6161,0,0,3.29408,4
1772541798001,0.540997,-0.889637,0.187127,-10.4367,194.688,77.51,0,0,3.34686,4
1772541798015,0.56216,-0.891751,0.195995,-1.83305,194.082,75.5635,0,0,3.27964,4
1772541798028,0.573044,-0.902123,0.199777,6.28542,193.149,73.4008,0,0,3.46497,4
1772541798045,0.576213,-0.914987,0.197072,13.4998,192.182,70.691,0,0,3.29223,4
1772541798058,0.578837,-0.922004,0.189233,20.2525,191.099,67.6931,0,0,3.42108,4
1772541798072,0.584625,-0.930925,0.180093,26.8071,189.325,64.2604,0,0,3.28934,4
1772541798085,0.590501,-0.950035,0.167028,32.2148,186.471,60.5638,0,0,3.29079,4
1772541798100,0.593323,-0.966133,0.150093,36.211,182.42,57.3658,0,0,4.93331,4
1772541798114,0.589018,-0.97954,0.13266,38.9135,177.546,54.8005,0,0,3.29968,4
1772541798127,0.581537,-0.98778,0.114313,40.4427,172.43,53.0476,0,0,3.34723,4
1772541798140,0.56202,-0.990621,0.0953697,41.323,167.686,50.9053,0,0,3.29734,4
1772541798154,0.529584,-0.989835,0.0759203,41.9425,164.14,48.0272,0,0,3.41477,5
1772541798168,0.490793,-0.993611,0.0560616,42.0827,161.987,45.3015,0,0,3.31745,5
1772541798183,0.453015,-1.00322,0.0370073,40.7807,161.074,43.3997,0,0,3.4554,5
1772541798196,0.421565,-1.00678,0.0204092,38.5159,160.636,42.1227,0,0,3.28555,5
1772541798210,0.400973,-1.00614,0.00625597,35.7448,159.864,41.1135,0,0,3.29384,5
1772541798223,0.388936,-1.00559,-0.00536715,32.5315,158.138,40.1253,0,0,3.31003,5
1772541798237,0.385892,-1.00255,-0.0170158,29.0231,154.862,38.9656,0,0,3.29038,5
1772541798250,0.389953,-1.00065,-0.0286248,25.3505,149.478,37.4517,0,0,3.35243,5
1772541798263,0.390292,-1.00462,-0.0299248,21.5834,141.684,35.4777,0,0,3.28021,5
1772541798277,0.339495,-1.08486,0.0549092,12.5908,133.424,31.6949,0,0,3.45114,5
1772541798291,0.33083,-1.0565,0.0857664,3.73064,123.931,26.1203,0,0,3.2866,5
1772541798304,0.341634,-1.0636,0.091785,-3.91665,112.664,22.7797,0,0,3.75886,5
1772541798318,0.327495,-1.06689,0.103957,-12.6019,102.316,19.8063,0,0,3.30816,5
1772541798331,0.313354,-1.06395,0.103852,-20.9645,94.2249,17.111,0,0,3.30497,5
1772541798345,0.303355,-1.05374,0.0958194,-28.467,88.3872,15.5376,0,0,3.34371,5
1772541798359,0.297925,-1.0495,0.0943302,-35.0606,84.4977,14.9598,0,0,3.49823,5
1772541798372,0.291335,-1.05069,0.0911445,-41.5866,81.785,15.1792,0,0,3.35477,5
1772541798386,0.288395,-1.04289,0.0842117,-47.368,79.4909,15.915,0,0,3.29086,5
1772541798399,0.287891,-1.03732,0.0782867,-52.0874,76.8,17.4249,0,0,3.67931,5
1772541798413,0.278365,-1.03523,0.0677416,-55.8972,73.7968,18.397,0,0,3.30251,5
1772541798426,0.270099,-1.03167,0.0492335,-59.0172,70.3879,18.8367,0,0,3.28151,5
1772541798441,0.258511,-1.0166,0.0252034,-60.073,66.4156,17.7399,0,0,5.00368,5
1772541798455,0.247141,-1.0041,0.00398598,-58.891,61.9837,15.5664,0,0,3.27506,5
1772541798468,0.231625,-1.00563,-0.0126841,-57.2742,57.8368,12.5836,0,0,3.34558,5
1772541798482,0.231574,-1.00447,-0.0251552,-55.7392,53.815,9.42469,0,0,3.49964,5
1772541798496,0.226593,-0.999446,-0.0366218,-53.6485,50.131,6.86472,0,0,3.37125,5
1772541798509,0.230532,-1.00106,-0.0450992,-51.3624,47.0189,5.70678,0,0,3.26547,5
1772541798523,0.233657,-0.998848,-0.0544978,-49.0603,44.0479,5.349,0,0,3.28368,5
1772541798536,0.234009,-1.00229,-0.0612219,-46.6864,41.3733,5.70237,0,0,3.27875,5
1772541798549,0.232979,-1.0019,-0.0665095,-44.6063,38.7944,6.49451,0,0,3.2609,5
1772541798563,0.229911,-1.00449,-0.0708398,-42.7221,36.3178,7.42934,0,0,3.2794,5
1772541798576,0.224918,-1.00317,-0.0784507,-41.0759,33.9214,8.28346,0,0,3.27955,5
1772541798591,0.218306,-1.00287,-0.0842767,-39.4107,31.721,8.94624,0,0,3.41051,5
1772541798604,0.21241,-1.00281,-0.0906914,-37.8492,29.7204,9.43567,0,0,3.29436,5
1772541798618,0.206591,-1.00208,-0.0961316,-36.3342,27.8918,9.74736,0,0,3.30084,3
1772541798631,0.202361,-1.00032,-0.102829,-34.7821,26.2485,10.0655,0,0,3.28534,1
1772541798646,0.198561,-0.999584,-0.109307,-33.1638,24.7659,10.4896,0,0,4.97759,1
1772541798659,0.195547,-0.999816,-0.11514,-31.6594,23.3647,11.0055,0,0,3.30266,1
1772541798673,0.191309,-1.00019,-0.121561,-30.2976,22.085,11.5212,0,0,3.30016,1
1772541798687,0.186156,-0.999613,-0.126313,-29.0353,20.8522,11.9801,0,0,3.78401,1
1772541798701,0.18077,-0.998722,-0.131861,-27.8618,19.6508,12.212,0,0,3.51055,1
1772541798714,0.17327,-0.99786,-0.13691,-26.7867,18.555,12.1714,0,0,3.32443,1
1772541798727,0.165201,-0.996566,-0.141269,-25.7213,17.4851,11.8184,0,0,3.29421,1
1772541798741,0.158073,-0.995947,-0.146643,-24.6892,16.5112,11.1773,0,0,3.45619,1
1772541798754,0.152153,-0.994822,-0.151462,-23.6948,15.6167,10.3196,0,0,3.30697,1
1772541798768,0.149043,-0.994386,-0.155867,-22.7048,14.745,9.47309,0,0,3.43062,1
1772541798781,0.146615,-0.994119,-0.160155,-21.788,13.9145,8.65355,0,0,3.29464,1
1772541798795,0.144708,-0.99444,-0.164468,-20.973,13.0916,7.97889,0,0,3.28247,1
1772541798808,0.142779,-0.994331,-0.168006,-20.1944,12.2793,7.39004,0,0,3.3204,5
1772541798822,0.140581,-0.99523,-0.171603,-19.5266,11.4955,6.82779,0,0,3.28636,5
1772541798837,0.138245,-0.995247,-0.175426,-18.97,10.7415,6.28637,0,0,3.77345,5
1772541798850,0.136459,-0.9957,-0.179403,-18.4711,10.0157,5.67727,0,0,3.35475,5
1772541798864,0.133855,-0.996668,-0.182981,-18.0936,9.29501,5.16956,0,0,3.53116,5
1772541798877,0.132154,-0.997433,-0.187119,-17.8695,8.65631,4.72544,0,0,3.29673,5
1772541798891,0.130283,-0.997075,-0.190392,-17.7154,8.059,4.35033,0,0,3.28629,5
1772541798904,0.127158,-0.997267,-0.194184,-17.6629,7.53929,3.93547,0,0,3.30875,5
1772541798918,0.125494,-0.997483,-0.197938,-17.5568,7.0693,3.52289,0,0,3.31069,5
1772541798932,0.121672,-0.997838,-0.201475,-17.4934,6.66977,3.01827,0,0,3.39129,5
1772541798946,0.120664,-0.999171,-0.204408,-17.5278,6.2464,2.54025,0,0,3.27773,5
1772541798960,0.117693,-1.00308,-0.207117,-17.9178,5.88147,1.9927,0,0,4.21849,1
1772541798974,0.116176,-1.00795,-0.211288,-18.9411,5.50232,1.5692,0,0,3.30544,1
1772541798987,0.114384,-1.01394,-0.214198,-20.3626,5.13502,1.31076,0,0,3.28218,1
1772541799002,0.113984,-1.02059,-0.217814,-22.308,4.80673,1.19271,0,0,4.49524,1
1772541799015,0.114006,-1.02744,-0.2214,-24.6787,4.45704,1.45208,0,0,3.2814,1
1772541799029,0.113483,-1.03725,-0.225523,-27.3943,4.19762,1.91229,0,0,3.3574,1
1772541799042,0.111777,-1.04623,-0.227789,-30.3772,4.04437,2.78942,0,0,3.2826,1
1772541799056,0.111832,-1.05274,-0.232796,-33.4771,4.0239,3.38742,0,0,3.38038,1
1772541799069,0.110251,-1.05935,-0.238449,-36.5795,4.16472,4.01268,0,0,3.27332,1
1772541799083,0.110608,-1.06729,-0.242403,-39.7995,4.32033,4.50695,0,0,3.5286,5
1772541799097,0.123067,-1.07696,-0.244924,-42.8256,4.50104,5.07412,0,0,3.71892,5
1772541799110,0.131629,-1.10501,-0.247014,-46.2374,4.01007,6.26803,0,0,3.2836,5
1772541799123,0.133603,-1.13592,-0.246248,-51.388,3.94313,7.71868,0,0,3.35419,5
1772541799137,0.139494,-1.16529,-0.243572,-57.7445,3.54897,9.43222,0,0,3.28427,5
1772541799150,0.140067,-1.20314,-0.239326,-64.8671,3.2771,11.5215,0,0,3.36327,5
1772541799164,0.138468,-1.24761,-0.232906,-73.5788,3.12368,13.7111,0,0,3.28095,5
1772541799178,0.137783,-1.28711,-0.226319,-83.4824,2.97716,15.9248,0,0,3.88173,5
1772541799191,0.129291,-1.32304,-0.222785,-92.8304,2.81102,17.2975,0,0,3.27023,5
1772541799204,0.121939,-1.35689,-0.224957,-101.654,2.86401,18.2695,0,0,3.2776,5
1772541799218,0.116745,-1.38581,-0.22523,-109.983,3.09815,19.9179,0,0,3.31056,5
1772541799231,0.106355,-1.39075,-0.226015,-117.845,3.88093,23.3681,0,0,3.28384,5
1772541799245,0.0933009,-1.41028,-0.206404,-125.265,5.5357,27.0684,0,0,3.37199,5
1772541799260,0.0964595,-1.42045,-0.170333,-132.27,7.97201,32.0259,0,0,3.31066,5
1772541799274,0.0769518,-1.40433,-0.125216,-138.881,11.0338,35.9959,0,0,3.37236,5
1772541799287,0.0202874,-1.27318,-0.133342,-145.122,19.1491,36.4826,0,0,3.28951,5
1772541799302,0.0205854,-1.17405,-0.137024,-143.287,28.1365,33.8209,0,0,3.89712,5
1772541799315,0.0384978,-1.12018,-0.127924,-139.715,37.25,30.9304,0,0,3.28069,5
1772541799328,0.0648944,-1.04939,-0.118305,-129.751,45.1463,29.1535,0,0,3.28751,5
1772541799342,0.0924962,-1.02765,-0.105892,-118.904,51.1824,27.7057,0,0,3.32575,5
1772541799355,0.116072,-0.981812,-0.0957945,-106.758,55.2232,25.6626,0,0,3.2821,5
1772541799369,0.135617,-0.933163,-0.0880284,-92.682,57.4673,22.7014,0,0,3.3741,5
1772541799385,0.155449,-0.88726,-0.0781996,-75.9689,57.6654,19.5928,0,0,3.31342,5
1772541799398,0.170165,-0.857587,-0.0640495,-58.0703,56.6052,17.3308,0,0,3.36916,5
1772541799412,0.176336,-0.838436,-0.0502619,-40.7826,54.8135,16.1493,0,0,3.28662,5
1772541799426,0.174679,-0.818703,-0.0383692,-24.4646,52.8436,15.8494,0,0,3.95194,5
1772541799439,0.16988,-0.808032,-0.0283526,-9.06198,50.9893,16.116,0,0,3.28051,5
1772541799453,0.164009,-0.809082,-0.0203221,5.47671,49.2579,16.6229,0,0,3.26901,5
1772541799467,0.15831,-0.818733,-0.0164866,19.1999,47.6617,17.184,0,0,3.70849,5
1772541799480,0.154355,-0.830771,-0.0170788,32.1533,46.0716,17.634,0,0,3.2738,5
1772541799493,0.151203,-0.845881,-0.0212647,44.3801,44.4105,18.1435,0,0,3.37564,5
1772541799507,0.150025,-0.862262,-0.0288442,55.9211,42.6109,19.0415,0,0,3.28064,5
1772541799520,0.152326,-0.880703,-0.0380461,66.8148,40.3441,19.8921,0,0,3.40005,5
1772541799534,0.156565,-0.901252,-0.0492266,77.0973,37.3193,20.2578,0,0,3.28158,5
1772541799548,0.157523,-0.921447,-0.0611566,86.8031,33.6096,20.4536,0,0,3.57038,5
1772541799561,0.153239,-0.948553,-0.0733122,95.9645,29.5128,21.3419,0,0,3.30871,5
1772541799574,0.145235,-0.978862,-0.0852673,104.612,25.1491,22.6326,0,0,3.28986,5
1772541799588,0.135606,-1.0113,-0.0987708,112.774,20.5835,23.9283,0,0,3.3886,5
1772541799601,0.123002,-1.04854,-0.114759,120.479,16.0668,25.7487,0,0,3.35655,5
1772541799615,0.107181,-1.08635,-0.134809,127.751,12.0535,28.8723,0,0,3.35438,5
1772541799628,0.0938776,-1.12072,-0.158083,134.616,8.81173,33.1519,0,0,3.30068,5
1772541799642,0.0931246,-1.1552,-0.185539,141.095,6.1868,37.9065,0,0,4.10144,5
1772541799660,0.105644,-1.18721,-0.219641,147.19,3.7652,40.9356,0,0,7.2687,1
1772541799674,0.126862,-1.22101,-0.258808,151.44,1.13775,41.322,0,0,3.81881,1
1772541799688,0.144568,-1.24658,-0.304813,153.716,-1.76666,39.968,0,0,3.82592,1
1772541799701,0.140274,-1.26994,-0.355278,153.79,-4.18059,38.3744,0,0,3.27214,1
1772541799715,0.123484,-1.29587,-0.410795,150.897,-5.16128,38.2309,0,0,3.30923,1
1772541799728,0.119077,-1.3126,-0.468358,145.102,-4.76858,39.3171,0,0,3.34244,1
1772541799742,0.138875,-1.32035,-0.523116,137.183,-4.29728,39.7202,0,0,3.3584,1
1772541799755,0.171228,-1.32002,-0.571368,127.528,-4.97641,37.881,0,0,3.28416,1
1772541799769,0.146571,-1.43723,-0.573553,110.041,-5.86965,32.5063,0,0,3.36827,1
1772541799782,0.14377,-1.40638,-0.492993,89.8378,-3.98566,27.9888,0,0,3.28225,1
1772541799796,0.14912,-1.3268,-0.453753,73.8062,-3.51203,25.5393,0,0,3.73849,1
1772541799810,0.147927,-1.3349,-0.432019,58.5749,-3.75735,21.8267,0,0,3.31806,1
1772541799823,0.156469,-1.32269,-0.414087,42.8394,-4.96988,19.2266,0,0,3.28175,1
1772541799837,0.151324,-1.29213,-0.401156,30.4665,-6.03647,16.4893,0,0,3.34071,1
1772541799852,0.151166,-1.2812,-0.390424,19.8667,-6.68356,14.2135,0,0,3.28947,1
1772541799865,0.161926,-1.26352,-0.38218,10.6211,-7.2845,13.498,0,0,3.35855,1
1772541799879,0.166215,-1.24335,-0.376719,3.27239,-7.71556,13.4088,0,0,3.28568,1
1772541799893,0.168203,-1.23263,-0.370558,-2.81714,-8.06508,13.7558,0,0,3.8797,1
1772541799907,0.165438,-1.21329,-0.36724,-7.66976,-8.3269,14.2864,0,0,3.2723,1
1772541799921,0.160862,-1.19185,-0.362849,-10.51,-8.49911,14.4304,0,0,3.30819,1
1772541799934,0.159219,-1.1773,-0.356686,-12.0439,-8.8462,14.1669,0,0,3.30949,1
1772541799948,0.14648,-1.16582,-0.365463,-13.2365,-9.1293,13.341,0,0,3.27671,1
1772541799961,0.141889,-1.14492,-0.360691,-12.98,-8.92337,11.9889,0,0,3.33503,3
1772541799975,0.133356,-1.15149,-0.354067,-13.2723,-8.80306,10.6177,0,0,3.29349,3
1772541799988,0.131923,-1.13543,-0.349335,-13.245,-8.62442,9.05696,0,0,3.35242,3
1772541800002,0.130851,-1.136,-0.344147,-13.0878,-8.36117,7.25666,0,0,3.28268,3
1772541800016,0.130788,-1.12835,-0.338546,-13.1095,-8.08272,5.53809,0,0,4.08371,3
1772541800029,0.131848,-1.12301,-0.333969,-12.7946,-7.78434,4.10088,0,0,3.29271,3
1772541800043,0.134228,-1.11778,-0.328866,-12.5796,-7.56608,2.90144,0,0,3.26931,3
1772541800056,0.136483,-1.11419,-0.323954,-12.4345,-7.46581,1.90501,0,0,3.31349,3
1772541800070,0.138116,-1.1109,-0.318638,-12.4966,-7.54673,1.08651,0,0,3.27197,3
1772541800083,0.139614,-1.10706,-0.313704,-12.6876,-7.73958,0.360164,0,0,3.36206,3
1772541800097,0.141399,-1.10252,-0.309711,-12.9098,-8.01623,-0.220106,0,0,3.27375,3
1772541800111,0.143265,-1.09778,-0.306288,-13.1105,-8.32062,-0.587561,0,0,3.68679,3
1772541800124,0.145253,-1.09268,-0.303282,-13.3197,-8.63191,-0.832925,0,0,3.27518,3
1772541800137,0.145521,-1.08818,-0.301507,-13.4794,-9.01309,-1.03241,0,0,3.26888,3
1772541800151,0.14709,-1.08147,-0.299233,-13.5266,-9.25771,-1.11238,0,0,3.31964,3
1772541800164,0.142782,-1.076,-0.297187,-13.4329,-9.20215,-1.33901,0,0,3.28718,3
1772541800178,0.143723,-1.07059,-0.295796,-13.3178,-9.0358,-1.52552,0,0,3.35297,3
1772541800191,0.144207,-1.06623,-0.294829,-13.1415,-8.88093,-1.67674,0,0,3.29781,3
1772541800205,0.144328,-1.06337,-0.293242,-13.0193,-8.76815,-1.82504,0,0,3.41125,3
1772541800219,0.145415,-1.06035,-0.291906,-13.0135,-8.68438,-1.92477,0,0,3.29405,3
1772541800234,0.145825,-1.0578,-0.290938,-13.0877,-8.62758,-1.93841,0,0,4.90177,3
1772541800247,0.146697,-1.05438,-0.290056,-13.1782,-8.53757,-1.8391,0,0,3.30671,3
1772541800262,0.146741,-1.05101,-0.289703,-13.2449,-8.37297,-1.62162,0,0,4.45099,3
1772541800277,0.147755,-1.04608,-0.289258,-13.1288,-8.1144,-1.28659,0,0,4.90003,3
1772541800290,0.147037,-1.04356,-0.288865,-12.7949,-7.77314,-0.949374,0,0,3.3148,3
1772541800304,0.146116,-1.04194,-0.288607,-12.5508,-7.33756,-0.635784,0,0,3.31853,3
1772541800317,0.145481,-1.03961,-0.288008,-12.3229,-6.90243,-0.360337,0,0,3.28236,3
1772541800331,0.144222,-1.04061,-0.288096,-12.3061,-6.42276,-0.220661,0,0,3.35573,3
1772541800344,0.145421,-1.03636,-0.288875,-12.5034,-5.98414,-0.0614157,0,0,3.31368,3
1772541800359,0.144005,-1.03379,-0.289375,-12.5386,-5.52644,-0.0703881,0,0,3.38986,3
1772541800373,0.145725,-1.03271,-0.289842,-12.7417,-5.12353,0.00934908,0,0,3.29553,3
1772541800386,0.148599,-1.03179,-0.290245,-13.0761,-4.76035,0.228912,0,0,3.27427,3
1772541800400,0.15172,-1.03548,-0.291774,-13.9753,-4.51603,0.718763,0,0,3.3211,3
1772541800413,0.156029,-1.03725,-0.293406,-15.2783,-4.48494,1.5922,0,0,3.29068,3
1772541800427,0.161227,-1.04715,-0.293109,-16.993,-4.48771,2.47701,0,0,3.34244,3
1772541800440,0.163476,-1.06409,-0.29258,-19.5227,-4.53657,3.3229,0,0,3.28268,5
1772541800454,0.16695,-1.07719,-0.288775,-22.6534,-4.5433,4.27291,0,0,3.39936,5
1772541800467,0.165415,-1.08582,-0.28867,-25.9656,-4.70679,4.94185,0,0,3.28797,5
1772541800481,0.170288,-1.09687,-0.289146,-29.2586,-4.95232,5.21101,0,0,3.8821,5
1772541800499,0.17134,-1.11674,-0.287883,-32.795,-5.29926,5.4548,0,0,7.37882,5
1772541800512,0.169046,-1.13941,-0.285756,-37.8394,-5.3163,5.5753,0,0,3.28577,5
1772541800525,0.168978,-1.15761,-0.282452,-43.5938,-5.32082,5.67706,0,0,3.29036,5
1772541800539,0.161802,-1.17769,-0.278353,-50.2441,-5.04249,5.55087,0,0,3.28658,1
1772541800552,0.152622,-1.19633,-0.274188,-57.5477,-4.55839,4.84087,0,0,3.29392,1
1772541800566,0.134054,-1.21721,-0.270727,-65.5424,-3.76362,3.33787,0,0,3.28749,1
1772541800579,0.112229,-1.23557,-0.267024,-74.0291,-2.42552,0.939486,0,0,3.3966,1
1772541800593,0.090772,-1.25537,-0.266909,-82.7603,-0.627675,-2.20686,0,0,3.27693,1
1772541800606,0.0792217,-1.28129,-0.269853,-91.4214,1.52063,-5.96115,0,0,3.32031,1
1772541800620,0.0780313,-1.32009,-0.273886,-100.324,3.56214,-10.0739,0,0,3.29229,1
1772541800633,0.0649776,-1.35144,-0.279226,-108.728,5.65141,-14.3512,0,0,3.26984,5
1772541800646,0.0578439,-1.36804,-0.286628,-116.66,7.67188,-17.7677,0,0,3.31481,5
1772541800660,0.046367,-1.37414,-0.289201,-124.147,9.62055,-21.6241,0,0,3.30395,5
1772541800673,0.0285267,-1.36738,-0.282575,-131.214,11.7468,-27.0429,0,0,3.30542,5
1772541800687,0.0105272,-1.36131,-0.247476,-137.884,13.7054,-34.5668,0,0,3.30149,5
1772541800701,-0.0369009,-1.33624,-0.223745,-144.181,17.081,-42.5853,0,0,3.86727,5
1772541800714,-0.0385008,-1.24444,-0.220248,-149.279,20.1671,-46.9508,0,0,3.30843,5
1772541800727,-0.0363046,-1.18475,-0.214471,-149.598,23.421,-47.5761,0,0,3.29345,5
1772541800741,-0.0248301,-1.09991,-0.205294,-144.414,26.354,-46.3676,0,0,3.28214,5
1772541800754,-0.00668256,-1.04404,-0.189846,-134.642,28.1882,-44.2013,0,0,3.27695,5
1772541800770,0.0154332,-1.00895,-0.173942,-123.489,28.289,-41.0891,0,0,6.12117,5
1772541800784,0.0306669,-0.954353,-0.15916,-109.531,27.1882,-37.4955,0,0,3.28936,5
1772541800798,0.041476,-0.90935,-0.144576,-93.683,25.2139,-32.7028,0,0,4.47349,5
1772541800812,0.0480435,-0.869624,-0.128665,-76.1726,22.9505,-26.31,0,0,3.29925,5
1772541800826,0.0489534,-0.841245,-0.111582,-57.8695,21.0025,-18.6182,0,0,4.43574,5
1772541800840,0.0475492,-0.826087,-0.0951608,-40.5931,19.6296,-11.0046,0,0,3.34673,5
1772541800853,0.0455231,-0.812969,-0.0809736,-24.2857,19.1327,-4.30926,0,0,3.26934,5
1772541800867,0.0416745,-0.804439,-0.0689656,-8.8931,19.8857,1.75922,0,0,3.30038,5
1772541800880,0.0379302,-0.800905,-0.0582836,5.63611,22.0326,7.58536,0,0,3.29273,5
1772541800894,0.0399335,-0.81021,-0.0492859,19.3504,25.2644,13.3056,0,0,3.32399,5
1772541800907,0.0487573,-0.824948,-0.0630711,32.2953,29.3165,19.2009,0,0,3.31116,5
1772541800923,0.0717477,-0.844038,-0.0566079,44.5142,33.2359,24.6657,0,0,4.05275,5
1772541800936,0.111702,-0.865999,-0.0653324,56.0477,35.5606,30.068,0,0,3.28851,5
1772541800950,0.158322,-0.903366,-0.075138,66.9342,35.393,35.0834,0,0,3.31592,5
1772541800963,0.211723,-0.914244,-0.0906434,77.2101,32.3158,38.8986,0,0,3.31262,5
1772541800977,0.257631,-0.939967,-0.104371,86.9096,26.5472,41.8404,0,0,3.28842,5
1772541800990,0.28715,-0.959142,-0.117124,96.065,18.9915,43.8365,0,0,3.32081,5
1772541801004,0.300121,-0.987739,-0.128776,104.707,10.6325,45.4021,0,0,3.37077,5
1772541801018,0.297779,-1.01786,-0.140505,112.864,2.40198,46.4017,0,0,4.14979,5
1772541801032,0.285974,-1.05835,-0.155853,120.564,-4.98752,47.3584,0,0,3.34803,5
1772541801048,0.29717,-1.18699,-0.268778,127.831,-12.7474,52.0287,0,0,4.73781,5
1772541801062,0.264817,-1.17913,-0.331036,129.347,-17.6883,54.1834,0,0,3.27636,5
1772541801076,0.249264,-1.15173,-0.366751,136,-22.2758,53.5638,0,0,3.8351,5
1772541801089,0.252969,-1.19265,-0.395491,141.86,-26.612,51.5094,0,0,3.29912,5
1772541801103,0.252882,-1.22689,-0.42749,143.935,-30.7015,48.0661,0,0,3.28216,5
1772541801116,0.223683,-1.26186,-0.468425,142.344,-33.2206,45.408,0,0,3.30856,1
1772541801130,0.184411,-1.27265,-0.515792,138.136,-32.9162,45.2789,0,0,3.39114,1
1772541801143,0.163011,-1.28033,-0.560392,131.904,-30.3595,46.0554,0,0,3.62492,1
1772541801157,0.163409,-1.28492,-0.60048,123.732,-26.8719,45.2431,0,0,3.29053,1
1772541801171,0.16001,-1.40366,-0.704029,114.774,-23.761,44.6668,0,0,3.83323,1
1772541801184,0.125402,-1.43049,-0.636405,94.3051,-18.2486,41.7494,0,0,3.30031,1
1772541801199,0.139072,-1.355,-0.593092,76.4515,-14.605,39.214,0,0,4.42168,1
1772541801212,0.131154,-1.32338,-0.566493,64.0725,-12.7778,36.1208,0,0,3.45547,1
1772541801226,0.14406,-1.32454,-0.538046,51.2743,-12.7346,33.3475,0,0,3.49079,1
1772541801239,0.138774,-1.31556,-0.516234,38.415,-12.937,30.4793,0,0,3.33368,1
1772541801253,0.135225,-1.29584,-0.496242,27.0662,-12.7427,27.3631,0,0,3.3031,1
1772541801267,0.132856,-1.28034,-0.479441,17.1932,-12.3975,24.4824,0,0,3.31838,1
1772541801280,0.144343,-1.26497,-0.465317,8.72654,-12.3251,22.7058,0,0,3.29995,5
1772541801294,0.1456,-1.24709,-0.455303,1.6965,-12.422,21.5015,0,0,4.03001,5
1772541801308,0.146482,-1.23093,-0.446357,-3.56258,-12.4956,20.7146,0,0,3.8411,5
1772541801322,0.148084,-1.21559,-0.437492,-7.74652,-12.4768,20.457,0,0,3.37877,5
1772541801335,0.149498,-1.20049,-0.431812,-10.696,-12.4128,20.4571,0,0,3.30564,5
1772541801349,0.142778,-1.1833,-0.425196,-12.4236,-12.3348,20.127,0,0,3.29182,5
1772541801364,0.146816,-1.17582,-0.414651,-13.5662,-12.4792,19.8193,0,0,4.79762,5
1772541801377,0.140994,-1.16709,-0.408444,-14.8379,-12.5837,19.2403,0,0,3.28836,5
1772541801391,0.133706,-1.14591,-0.411316,-15.3698,-12.515,18.5168,0,0,3.41064,5
1772541801405,0.131799,-1.14585,-0.401848,-15.2266,-12.4973,17.518,0,0,3.90307,3
1772541801419,0.126313,-1.13875,-0.394556,-15.8215,-12.3092,16.0391,0,0,3.44127,3
1772541801432,0.121568,-1.12732,-0.38628,-15.5921,-11.9472,14.4325,0,0,3.30081,3
1772541801445,0.121654,-1.12362,-0.379264,-15.3748,-11.5344,12.9862,0,0,3.28275,3
1772541801460,0.123925,-1.11891,-0.371529,-15.1666,-11.0981,11.8365,0,0,4.66407,3
1772541801474,0.1252,-1.11388,-0.364804,-14.9098,-10.6425,10.9503,0,0,3.26845,3
1772541801487,0.125084,-1.10947,-0.358193,-14.6785,-10.2327,10.2003,0,0,3.30175,3
1772541801500,0.123874,-1.1047,-0.35313,-14.5351,-9.88694,9.44192,0,0,3.29342,3
1772541801514,0.122802,-1.09968,-0.347894,-14.3749,-9.6201,8.64554,0,0,3.28436,3
1772541801527,0.122066,-1.09453,-0.342599,-14.2691,-9.38493,7.72427,0,0,3.28653,3
1772541801541,0.120881,-1.08932,-0.337727,-14.1067,-9.14282,6.77161,0,0,3.26801,3
1772541801554,0.12152,-1.08476,-0.334051,-13.9145,-8.88132,5.85868,0,0,3.33566,1
1772541801567,0.122516,-1.07972,-0.330023,-13.6444,-8.59981,5.11557,0,0,3.29797,1
1772541801581,0.124076,-1.07558,-0.326491,-13.3064,-8.30197,4.59012,0,0,3.34236,1
1772541801594,0.124576,-1.07149,-0.323391,-12.9389,-7.94077,4.30439,0,0,3.28618,1
1772541801608,0.127146,-1.06709,-0.319755,-12.4529,-7.5553,4.27918,0,0,3.8756,1
1772541801622,0.127693,-1.06393,-0.316661,-11.9634,-7.16276,4.39754,0,0,3.26923,1
1772541801635,0.127746,-1.06002,-0.313671,-11.4709,-6.76912,4.53624,0,0,3.26838,1
1772541801649,0.12753,-1.05605,-0.31093,-10.9375,-6.4027,4.66245,0,0,3.31158,1
1772541801662,0.125775,-1.05312,-0.307923,-10.4649,-6.03071,4.65912,0,0,3.27442,1
1772541801675,0.12509,-1.04992,-0.305102,-10.0311,-5.67831,4.60202,0,0,3.34662,1
1772541801689,0.124627,-1.04655,-0.30266,-9.5995,-5.35808,4.49118,0,0,3.31903,1
1772541801702,0.123447,-1.04356,-0.300432,-9.19249,-5.02456,4.26538,0,0,3.3684,1
1772541801716,0.122383,-1.04113,-0.298344,-8.82459,-4.71446,3.96661,0,0,3.27338,1
1772541801730,0.121953,-1.03795,-0.296134,-8.46062,-4.4269,3.63535,0,0,3.86044,1
1772541801743,0.121542,-1.03562,-0.294255,-8.07082,-4.12677,3.21734,0,0,3.29697,1
1772541801756,0.12132,-1.03445,-0.292138,-7.74785,-3.84519,2.79238,0,0,3.27825,1
1772541801770,0.122719,-1.03296,-0.290455,-7.45756,-3.58968,2.53684,0,0,3.34495,5
1772541801783,0.123801,-1.03141,-0.288729,-7.20024,-3.36564,2.37827,0,0,3.27486,5
1772541801797,0.123928,-1.03022,-0.287249,-7.02159,-3.1897,2.28597,0,0,3.35629,5
1772541801811,0.124285,-1.02819,-0.286089,-6.8414,-3.02191,2.21598,0,0,3.27973,5
1772541801825,0.122992,-1.02629,-0.28449,-6.66275,-2.8447,2.03259,0,0,3.38662,5
1772541801838,0.122653,-1.02415,-0.282917,-6.46629,-2.63289,1.81281,0,0,3.27114,5
1772541801851,0.122328,-1.02253,-0.281894,-6.27956,-2.44624,1.54628,0,0,3.26188,5
1772541801865,0.123929,-1.02076,-0.280542,-6.09603,-2.29661,1.29512,0,0,3.29279,5
1772541801878,0.123549,-1.01941,-0.280007,-5.97032,-2.15451,1.10387,0,0,3.27266,5
1772541801892,0.12389,-1.01813,-0.279293,-5.82384,-2.03751,0.910066,0,0,3.35832,5
1772541801905,0.124665,-1.01752,-0.278428,-5.74594,-1.93307,0.767815,0,0,3.28238,5
1772541801919,0.124936,-1.01628,-0.277879,-5.69939,-1.83064,0.682784,0,0,3.37601,5
1772541801932,0.125568,-1.01552,-0.277535,-5.66958,-1.7348,0.646197,0,0,3.27299,5
1772541801946,0.126483,-1.01471,-0.276694,-5.67227,-1.65633,0.70929,0,0,3.31527,5
1772541801960,0.126215,-1.01392,-0.27637,-5.74589,-1.56857,0.766274,0,0,4.49305,5
1772541801974,0.126749,-1.01246,-0.276701,-5.82523,-1.51184,0.853033,0,0,3.26871,5
1772541801987,0.128104,-1.00991,-0.277135,-5.84102,-1.48912,0.982025,0,0,3.32012,5
1772541802001,0.127242,-1.00882,-0.277197,-5.81526,-1.48181,1.05582,0,0,3.52758,5
1772541802014,0.125777,-1.00846,-0.277375,-5.85345,-1.45393,1.01673,0,0,3.34927,5
1772541802028,0.125797,-1.00622,-0.27716,-5.87837,-1.40278,0.939999,0,0,3.27808,5
1772541802041,0.125463,-1.00485,-0.277125,-5.78971,-1.3425,0.81448,0,0,3.41595,5
1772541802055,0.126521,-1.00503,-0.27722,-5.77025,-1.30745,0.763228,0,0,3.27573,5
1772541802068,0.126412,-1.0059,-0.277802,-5.91544,-1.24696,0.729836,0,0,3.41921,5
