timestamp,ax,ay,az,gx,gy,gz,roll_k,pitch_k,delay_ms,classe_prevista
1774535837405,0.00439422,0.897886,-0.553184,7.89312,-34.5267,27.3435,0,0,3.3071,-1
1774535837419,-0.0117176,0.889405,-0.548584,2.80153,-2.83973,-4.21371,0,0,3.27393,-1
1774535837432,-0.0100099,0.884766,-0.554443,2.0458,-2.19847,-0.633591,0,0,3.25573,-1
1774535837446,-0.0195306,0.897216,-0.550782,1.32061,-2.23664,0.0534344,0,0,3.64557,-1
1774535837459,-0.013184,0.882569,-0.559326,0.984733,-1.9313,0.687022,0,0,3.25736,-1
1774535837473,-0.00976586,0.897216,-0.556153,0.297711,-1.54199,0.748092,0,0,3.24999,-1
1774535837486,-0.0095215,0.902099,-0.549317,-0.0534348,-1.58015,0.679389,0,0,3.2723,-1
1774535837499,-0.00805674,0.90332,-0.546875,0.0305343,-1.17557,1.18321,0,0,3.25069,-1
1774535837513,-0.00927726,0.901611,-0.554931,0.259542,-0.603054,1.67939,0,0,3.26436,-1
1774535837526,-0.0168452,0.895996,-0.554932,-0.10687,-0.687023,2.06107,0,0,3.35758,0
1774535837540,-0.0217282,0.903564,-0.550782,0.0458014,-0.343512,2.60305,0,0,3.91802,0
1774535837554,-0.0136724,0.899414,-0.558593,0.114504,-0.251908,3.10687,0,0,3.2846,0
1774535837567,-0.013916,0.905029,-0.548829,0.038168,0.175572,3.63359,0,0,3.34475,0
1774535837581,-0.0144043,0.887941,-0.551758,0.29771,0.534351,3.94656,0,0,3.31601,0
1774535837594,-0.00488348,0.900634,-0.550537,0.160305,0.465649,4.51908,0,0,3.29934,5
1774535837607,-0.00537106,0.898682,-0.556396,0.549618,0.748091,4.51145,0,0,3.31784,5
1774535837621,-0.00610346,0.899414,-0.555664,0.549618,1.1145,5.1603,0,0,3.29049,5
1774535837635,0.00048782,0.896485,-0.552002,0.267176,1.24427,4.90076,0,0,4.03322,5
1774535837648,0.005859,0.903564,-0.552002,0.358779,0.854962,4.83206,0,0,3.27264,5
1774535837662,0.00683587,0.894776,-0.553955,0.183206,0.740458,4.16794,0,0,3.31356,5
1774535837675,0.00927717,0.893555,-0.553955,0.0305345,0.259542,3.38168,0,0,3.29845,5
1774535837689,-0.00268471,0.890869,-0.54834,0.00763361,0.312977,3.14504,0,0,3.26873,5
1774535837702,0.00732352,0.890137,-0.552734,-0.389313,-0.0534347,2.70992,0,0,3.29786,5
1774535837715,0.00341824,0.896728,-0.554931,-0.755725,0.0687022,2.80153,0,0,3.27427,5
1774535837730,0.0026856,0.890381,-0.550537,-0.89313,-0.244274,2.75573,0,0,4.31674,5
1774535837743,0.00390616,0.894775,-0.549805,-1.45801,-0.251908,2.76336,0,0,3.28173,5
1774535837759,0.0085446,0.902831,-0.549805,-1.46565,-0.29771,2.42748,0,0,6.03088,5
1774535837773,0.00976554,0.898438,-0.548828,-1.70229,-0.450382,2.06107,0,0,3.27208,5
1774535837788,0.0170893,0.891846,-0.551513,-1.9313,-0.862595,1.52672,0,0,5.04749,5
1774535837801,0.00952201,0.904052,-0.549805,-1.80153,-0.961832,1.10687,0,0,3.29204,5
1774535837816,0.00170953,0.911132,-0.553955,-1.87023,-0.946565,1.29771,0,0,4.80342,5
1774535837830,0.0146475,0.892091,-0.549561,-1.66412,-1,0.923664,0,0,3.29578,5
1774535837843,0.00146577,0.892578,-0.559081,-2.20611,-0.740458,1.1145,0,0,3.27004,5
1774535837857,0.00366196,0.895263,-0.547608,-2.58779,-0.580153,0.954199,0,0,3.27156,5
1774535837870,0.001465,0.931394,-0.54126,-1.8397,-0.259542,1.96183,0,0,3.24208,5
1774535837884,-0.000976392,0.913087,-0.552734,-1.14504,0.328244,2.17557,0,0,3.99533,5
1774535837897,0.00122055,0.902833,-0.551514,-1.30534,0.503817,3.0229,0,0,3.26228,5
1774535837911,-0.000976409,0.903076,-0.550781,-1.19084,0.847328,3.48092,0,0,3.28499,5
1774535837924,0.0090325,0.898682,-0.545411,-1.92366,0.969466,3.89313,0,0,3.30584,5
1774535837938,0.0163569,0.889893,-0.555419,-2.1374,1.03053,4.32824,0,0,3.37525,5
1774535837951,0.00659248,0.909178,-0.541261,-2.48855,1.32824,4.75572,0,0,3.31108,5
1774535837965,0.0119625,0.942625,-0.541504,-0.106873,1.60305,4.43511,0,0,3.27464,5
1774535837978,0.01416,0.922853,-0.552734,0.923663,1.25954,3.54199,0,0,3.31143,5
1774535837993,0.0153808,0.914307,-0.546875,1.16031,1.21374,3.44275,0,0,3.27969,5
1774535838008,0.0219722,0.898194,-0.549804,0.755726,1.22137,3.15267,0,0,4.11276,5
1774535838021,0.0178226,0.901611,-0.551025,0.442748,1.28244,3.37405,0,0,3.27432,5
1774535838034,0.0163575,0.901123,-0.550781,-0.366411,1.07634,3.44275,0,0,3.2803,5
1774535838048,0.0158692,0.905273,-0.55249,-0.778626,0.763359,3.83206,0,0,3.29817,5
1774535838061,0.0107425,0.924071,-0.549805,-0.778626,0.526718,4.42748,0,0,3.25154,5
1774535838075,0.0239249,0.927246,-0.551269,0.0610679,0.648855,4.69466,0,0,3.42936,5
1774535838089,0.00708126,0.936523,-0.54834,0.687022,1.10687,5.70992,0,0,3.28614,5
1774535838103,0.0205069,0.919923,-0.545654,1.27481,1.47328,6.10687,0,0,4.19989,5
1774535838116,0.0212402,0.91919,-0.552978,1.66412,1.62595,6.32061,0,0,3.27306,5
1774535838131,0.024658,0.90796,-0.550293,1.90076,1.52672,6.68702,0,0,4.05202,5
1774535838144,0.0278318,0.90625,-0.541016,1.90076,1.19847,6.72519,0,0,3.27997,5
1774535838157,0.0363764,0.88257,-0.534668,1.91603,0.877863,5.87023,0,0,3.27826,5
1774535838171,0.0473625,0.892333,-0.538574,1.71756,0.229008,4.37405,0,0,3.27743,5
1774535838184,0.0649402,0.894775,-0.540283,2.29008,-0.900762,1.41985,0,0,3.25101,5
1774535838198,0.0625002,0.900146,-0.548339,2.69466,-2.28244,-1.51908,0,0,3.31897,5
1774535838211,0.0505379,0.908447,-0.542237,3.54198,-2.78626,-3.92366,0,0,3.25982,5
1774535838225,0.042481,0.899659,-0.535401,3.83969,-3.12214,-5.38168,0,0,3.42034,5
1774535838238,0.0471188,0.917479,-0.5354,4.71756,-2.68702,-6.0458,0,0,3.3596,5
1774535838251,0.0183126,0.920898,-0.540771,5.58015,-2.74046,-5.67939,0,0,3.2488,5
1774535838265,-0.00268408,0.909913,-0.557128,6.52672,-1.58015,-3.70993,0,0,3.27723,5
1774535838278,-0.0180653,0.887209,-0.563964,6.35115,0.099235,-0.389316,0,0,3.25619,5
1774535838292,-0.0283196,0.888428,-0.566162,5.76336,2.37404,3.14503,0,0,3.33514,5
1774535838305,-0.0239261,0.922361,-0.559571,5.92366,4,6.01526,0,0,3.26697,5
1774535838319,-0.0466293,1.01757,-0.5625,9.48855,7.61068,10.7023,0,0,3.27465,5
1774535838332,0.0615159,0.97388,-0.580809,13.603,7.67939,11.3206,0,0,3.27358,5
1774535838345,0.144037,0.991698,-0.545657,18.1679,5.45802,6.40459,0,0,3.27875,5
1774535838359,0.18115,1.22191,-0.560546,29.7099,1.16031,4.56489,0,0,3.27373,5
1774535838372,0.244869,1.72604,-0.698477,43.3511,-8.07633,0.511454,0,0,3.25214,5
1774535838386,0.0681276,1.51955,-0.614996,96.7786,-14.4885,-6.44274,0,0,3.29162,5
1774535838399,0.35081,1.61816,-0.708245,100.137,-19.916,44.458,0,0,3.26436,5
1774535838412,-0.144741,2.24385,-0.742429,156.374,-16.7939,-16.5038,0,0,3.29806,5
1774535838426,0.268038,2.19043,-0.678227,193.565,-25.5496,-4.31299,0,0,3.36432,5
1774535838440,0.13209,2.312,-0.693114,244.137,-32.145,-10.3435,0,0,3.32569,5
1774535838454,0.321764,2.51439,-0.668215,250.13,-38.4656,-6.40458,0,0,3.34262,5
1774535838467,0.495349,2.67846,-0.500744,250.13,-49.3053,-19.7481,0,0,3.25834,5
1774535838481,0.605949,1.96611,-0.688463,250.13,-68.8168,-34.0687,0,0,3.29406,5
1774535838494,0.268334,1.79689,-0.24051,250.13,-82.3664,-87.519,0,0,3.2801,5
1774535838508,0.50804,0.761791,0.456982,250.13,-90.7099,-126.969,0,0,3.31823,5
1774535838521,-0.344667,-1.17125,2.58188,222.763,-63.2367,-146.885,0,0,3.26901,5
1774535838535,-0.170178,0.752307,1.17564,-10.1143,53.2213,-21.2444,0,0,3.38575,5
1774535838548,0.273651,1.15769,1.7131,-48.7404,106.58,25.5572,0,0,3.2791,3
1774535838562,0.543926,1.14966,1.34866,-84.8091,103.275,44.458,0,0,3.64231,3
1774535838575,0.411142,0.343318,1.26807,-134.29,87.9695,47.1832,0,0,3.28128,3
1774535838589,0.368411,0.53026,1.06398,-206.641,67.4504,39.3741,0,0,3.74398,3
1774535838603,0.362793,0.860573,0.795673,-250.137,44.4428,31.9695,0,0,3.28893,3
1774535838616,0.322024,0.990225,0.580826,-250.137,18.5267,37.8015,0,0,3.27978,3
1774535838630,0.142591,1.13842,0.346208,-250.137,4.74047,54.5191,0,0,3.29702,3
1774535838643,-0.0751801,1.34325,0.10988,-250.137,5.32061,64.542,0,0,3.28175,3
1774535838657,-0.315901,1.56761,-0.135481,-250.137,18.313,57.4428,0,0,3.87122,3
1774535838671,-0.543441,1.76952,-0.389142,-250.137,39.1145,35.1527,0,0,3.27971,3
1774535838684,-0.643059,1.95018,-0.61351,-250.137,73.771,9.60308,0,0,3.25156,3
1774535838697,-0.434097,2.04223,-0.864484,-250.137,104.45,-12.6259,0,0,3.27228,5
1774535838711,-0.119407,2.05957,-1.2092,-250.137,121.206,-15.5191,0,0,3.28325,5
1774535838724,0.168681,2.0249,-1.55369,-250.137,121.092,-15.0458,0,0,3.27701,5
1774535838738,0.425275,2.00977,-1.8679,-250.137,101.008,-21.7557,0,0,3.29932,5
1774535838751,0.540763,1.77175,-2.10277,-250.137,74.6794,-14.5725,0,0,3.33251,5
1774535838765,0.612788,1.47365,-2.29393,-233.985,49.5267,8.33585,0,0,3.27871,5
1774535838779,0.469737,0.953161,-2.46263,-193.298,29.1909,47.8473,0,0,3.64212,5
1774535838792,0.0183421,0.770521,-2.65917,-151.298,16.9695,59.0534,0,0,3.29315,5
1774535838806,-0.533165,1.02781,-2.79613,-86.3283,14.0153,22.0916,0,0,3.26343,5
1774535838819,-0.698231,1.15893,-2.72901,-3.09932,20.313,-32.9999,0,0,3.28091,5
1774535838833,1.54574,3.99968,-3.59491,250.13,-45.0381,85.7861,0,0,3.26595,5
1774535838846,0.901412,-0.259468,-0.748734,141.458,-88.832,-22.9541,0,0,3.3003,5
1774535838859,0.748058,0.107884,0.263357,212.481,-125.084,-87.6106,0,0,3.27436,5
1774535838874,-0.157896,0.882758,-0.255091,248.313,-85.3207,-110.221,0,0,3.8104,5
1774535838887,-0.738485,0.738047,-0.551005,232.053,-21.313,-85.9313,0,0,3.27969,5
1774535838900,-0.12724,0.77612,-0.487309,197.397,25.7328,-74.542,0,0,3.25749,3
1774535838914,0.0822607,0.94823,-0.398688,171.351,20.3206,-71.3435,0,0,3.27688,3
1774535838928,-0.143051,0.865973,-0.387208,156.13,12.0687,-45.2977,0,0,3.88229,3
1774535838942,-0.344712,0.811283,-0.418699,138.145,9.36641,-5.14508,0,0,4.27159,3
1774535838956,-0.254889,0.922844,-0.440916,131.191,13.5878,18.916,0,0,3.65046,3
1774535838970,-0.0114916,0.897463,-0.587636,121.206,19.7405,31.2443,0,0,3.8237,3
1774535838984,0.0419884,0.817388,-0.660639,99.8092,17.1832,35.6641,0,0,3.27639,3
1774535838998,0.257309,0.834716,-0.7622,59.0535,10.4886,31.5191,0,0,3.26917,2
1774535839011,-0.0126764,0.903804,-0.633798,45.5191,14.7481,34.8092,0,0,3.29051,2
1774535839025,0.127187,0.923583,-0.635498,42.374,13.0382,26.5191,0,0,3.26486,2
1774535839038,0.164548,0.74635,-0.615968,30.0153,6.06108,13.8321,0,0,3.27171,5
1774535839051,0.221432,0.806392,-0.610596,21.6031,-0.816787,-0.343497,0,0,3.27945,5
1774535839065,0.107918,0.930655,-0.566653,16.8779,-4.05343,-5.59541,0,0,3.31238,5
1774535839078,0.0971687,0.857183,-0.556153,13.7328,-5.66412,-7.81679,0,0,3.24165,5
1774535839092,0.031987,0.921138,-0.563232,15.0763,-4.26718,-7.20611,0,0,3.54088,5
1774535839106,0.00146698,0.925781,-0.555665,16.0076,-0.137409,-1.67939,0,0,3.92011,5
1774535839120,0.00122072,0.886721,-0.57202,15,3.90076,2.12213,0,0,3.27195,5
1774535839134,0.0349098,0.894775,-0.572266,14.9084,6.82442,5.64885,0,0,3.26991,5
1774535839147,0.060301,0.881104,-0.57373,13.7023,6.89313,6.50382,0,0,3.29276,5
1774535839161,0.108639,0.853518,-0.553224,11.5802,5.32825,4.22901,0,0,3.29193,5
1774535839174,0.125243,0.851074,-0.570311,8.85496,2.12977,0.145042,0,0,3.25826,5
1774535839188,0.134277,0.862548,-0.562012,6.98473,-2.49618,-3.64122,0,0,3.61029,5
1774535839201,0.105227,0.855713,-0.560547,3.9084,-7.17557,-8.64122,0,0,3.24269,5
1774535839214,0.117187,0.862792,-0.565185,2.94657,-10.3588,-12.5496,0,0,3.23617,5
1774535839228,0.0661657,0.896238,-0.576903,3.18321,-11.2672,-14.9389,0,0,3.24606,5
1774535839241,0.062012,0.888428,-0.556154,3.42748,-10.6565,-16.4885,0,0,3.24778,5
1774535839254,0.0422377,0.895996,-0.56787,4.87786,-10.5649,-18.1145,0,0,3.26817,5
1774535839268,0.0637192,0.877199,-0.596189,6.12214,-9.9771,-19.374,0,0,3.30065,5
1774535839282,0.0612795,0.915281,-0.571291,7.44275,-9.32824,-19.7481,0,0,3.61031,5
1774535839295,0.00464264,0.880618,-0.575195,7.49618,-8.22138,-18.0534,0,0,3.3741,5
1774535839309,0.0231921,0.897216,-0.581543,8.01527,-8.1374,-15.771,0,0,3.50227,5
1774535839322,-0.000730747,0.929929,-0.570557,8.58779,-9,-14.2824,0,0,3.2618,5
1774535839336,-0.00610314,0.872563,-0.573486,8.23664,-9.30534,-10.9466,0,0,3.23265,5
1774535839349,-0.00317403,0.898924,-0.58789,8.45038,-9.64885,-8.48092,0,0,3.26615,5
1774535839362,0.0258769,0.926023,-0.59082,8.25191,-10.1145,-6.25954,0,0,3.22541,5
1774535839376,-0.00414829,0.865971,-0.598388,7.93893,-9.90076,-3.42748,0,0,3.2441,3
1774535839389,-0.052731,0.830569,-0.603027,9.80916,-7.20611,-1.26718,0,0,3.22865,3
1774535839403,-0.0544432,0.924798,-0.597413,9.78626,-4.35878,2.63358,0,0,3.63886,3
1774535839416,-0.000980305,0.927734,-0.606933,9.9771,-2.84733,6.35114,0,0,3.27841,3
1774535839429,0.00195292,0.974606,-0.593019,11.1298,-3.28244,9.21374,0,0,3.25538,3
1774535839444,0.0498013,1.03857,-0.621092,17.9542,-4.09924,6.27481,0,0,4.12861,3
1774535839459,0.0107449,1.16332,-0.643797,24.6565,-4.35878,10.5038,0,0,4.94147,3
1774535839472,-0.229231,1.57688,-0.740716,53.3664,2.09923,14.8321,0,0,3.26869,3
1774535839486,0.145482,1.13333,-0.635505,59.7023,-1.29771,20.6717,0,0,3.2391,3
1774535839499,0.0551821,1.51389,-0.725091,73.6412,-4.65649,14.5649,0,0,3.25878,3
1774535839512,-0.0988662,1.72435,-0.76196,106.702,-2.94657,9.7481,0,0,3.23412,3
1774535839526,0.0644417,1.61646,-0.66944,135.328,-4.71756,5.56489,0,0,3.54629,3
1774535839539,0.068115,1.65112,-0.68579,164.382,-8.58778,1.9771,0,0,3.24441,3
1774535839553,0.123531,1.53223,-0.597174,191.931,-14.6641,0.824429,0,0,3.25589,3
1774535839566,0.0515187,1.66747,-0.646969,216.45,-16.8702,5.45038,0,0,3.28097,5
1774535839579,0.12646,1.94725,-0.623049,250.13,-21.084,1.17558,0,0,3.26564,5
1774535839593,0.156004,2.05712,-0.632079,250.13,-27.8855,-8.81678,0,0,3.27502,5
1774535839606,0.17993,2.38084,-0.677243,250.13,-37.0458,-10.855,0,0,3.38053,5
1774535839620,0.107671,2.79831,-0.797355,250.13,-37.0076,-2.43512,0,0,3.28969,5
1774535839633,0.111572,2.47146,-0.813475,250.13,-40.7481,12.9618,0,0,3.26515,5
1774535839646,0.156247,1.75957,-0.830809,250.13,-51.4733,-14.0687,0,0,3.24521,5
1774535839660,0.210934,2.18234,-0.864744,250.13,-38.5191,-38.1374,0,0,3.26967,3
1774535839673,0.662322,1.94533,-0.491481,250.13,-43.9008,6.63354,0,0,3.22976,3
1774535839686,0.436295,2.03539,-0.225116,250.13,-46.7405,32.7328,0,0,3.25321,3
1774535839700,0.307626,2.58126,0.903241,250.13,-53.4046,38.4275,0,0,3.27784,3
1774535839713,0.026631,0.254313,0.116022,250.13,-51.5725,11.0916,0,0,3.29128,3
1774535839726,0.105463,-2.3919,1.02191,227.916,-55.3664,-39.0534,0,0,3.28488,3
1774535839740,-0.411341,-2.0159,0.812026,-2.74786,-23.2672,-29.9771,0,0,3.24095,3
1774535839753,-0.371341,-0.449328,0.18437,-123.717,15.4656,-12.0993,0,0,3.28402,3
1774535839766,-0.157974,0.161578,0.341298,-190.023,42.1755,-9.46565,0,0,3.26086,3
1774535839780,0.0637052,0.272941,0.251227,-234.992,45.0305,-16.0992,0,0,3.26886,3
1774535839793,-0.00146028,0.0212579,0.40453,-250.137,47.3588,-7.67176,0,0,3.24617,3
1774535839807,0.0231916,0.0610324,0.544668,-250.137,53.2519,7.96182,0,0,3.2475,2
1774535839820,0.120843,0.452609,0.452155,-250.137,52.8397,14.1069,0,0,3.23578,2
1774535839833,0.291736,0.810522,0.343758,-250.137,41.7328,18.2137,0,0,3.28125,2
1774535839847,0.299804,1.06663,0.188732,-250.137,26.8321,31.2366,0,0,3.26384,2
1774535839860,0.247074,1.11059,0.103522,-250.137,16.7634,57.5649,0,0,3.27793,2
1774535839873,0.210452,1.1272,-0.0161049,-250.137,10.6947,80.5878,0,0,3.25982,2
1774535839887,0.119147,1.19921,-0.139884,-250.137,7.64122,91.4427,0,0,3.23252,2
1774535839900,-0.000724031,1.34008,-0.25756,-250.137,3.99237,86.5038,0,0,3.25067,2
1774535839913,-0.148671,1.50267,-0.436511,-250.137,3.15267,73.5878,0,0,3.237,5
1774535839927,-0.328601,1.57104,-0.52929,-250.137,9.12977,56.1069,0,0,3.2323,5
1774535839940,-0.47997,1.55859,-0.534912,-250.137,24.9542,41.0916,0,0,3.23247,5
1774535839953,-0.499266,1.75145,-0.594966,-250.137,45.0229,26.7939,0,0,3.26032,5
1774535839967,-0.434819,1.91722,-0.716056,-250.137,63.2901,18.313,0,0,3.38523,5
1774535839980,-0.251478,2.08031,-0.935287,-250.137,74.8244,15.855,0,0,3.34564,5
1774535839994,-0.107676,2.22973,-1.28001,-250.137,77.8015,16.0229,0,0,3.2798,5
1774535840007,0.032705,2.2312,-1.73703,-250.137,70.1221,16.145,0,0,3.36876,5
1774535840020,-2.30428,3.99975,-2.15329,-154.504,51.9695,-68.7862,0,0,3.24632,5
1774535840034,0.448782,1.07906,-2.46604,-250.137,23.397,-36.3817,0,0,3.236,5
1774535840047,-0.0336576,-0.114907,-2.08011,-250.137,53.1526,18.9236,0,0,3.22874,5
1774535840060,0.190414,1.77331,-2.96356,-186.13,54.4122,3.6107,0,0,3.25649,5
1774535840074,0.361804,0.99151,-2.78688,-91.6337,42.0687,-4.35114,0,0,3.22526,5
1774535840087,0.0571502,0.710713,-2.89404,-43.4504,33.0687,20.8931,0,0,3.23467,5
1774535840100,-0.161606,0.649662,-2.80762,3.77858,21.3283,2.64887,0,0,3.25097,5
1774535840114,0.990886,3.99964,-3.44136,250.13,-50.9236,22.8855,0,0,3.26928,5
1774535840128,0.493687,0.725571,0.29466,214.092,-140.672,-58.893,0,0,3.29697,5
1774535840141,0.452395,1.02024,0.326414,212.519,-182.076,-58.5802,0,0,3.24939,5
1774535840155,-0.382754,1.00171,-0.208947,250.13,-115.985,-73.4275,0,0,3.32923,5
1774535840168,-0.59227,0.660424,-0.523171,248.664,-53.8856,-63.4428,0,0,3.24015,5
1774535840182,-0.318867,0.741694,-0.530517,216.992,4.28238,-67.4656,0,0,3.25756,5
1774535840195,0.136931,0.842522,-0.678701,181.115,7.1374,-69.9618,0,0,3.28858,5
1774535840209,-0.0417355,0.815432,-0.604253,153.71,-5.48854,-41.084,0,0,4.05511,3
1774535840222,-0.224352,0.672862,-0.601074,119.252,-7.1374,-6.37408,0,0,3.22917,3
1774535840236,-0.141607,0.769524,-0.583253,95.5802,2.90839,6.90075,0,0,3.23936,3
1774535840249,0.0497913,0.45803,-0.634274,56.5497,14.374,4.49619,0,0,3.24658,3
1774535840262,-0.040521,0.697737,-0.56397,45.2977,13.6794,5.38168,0,0,3.25086,3
1774535840276,-0.0405273,0.863026,-0.553712,43.4351,16.7328,14,0,0,3.25965,3
1774535840289,-0.0253917,0.879393,-0.582029,41.0076,15.4351,15.2214,0,0,3.2413,3
1774535840302,0.152575,0.674331,-0.640133,28.4504,9.59543,5.18322,0,0,3.25524,3
1774535840316,0.119875,0.765374,-0.58765,10.3283,2.17558,-5.63358,0,0,3.23367,5
1774535840329,0.142577,0.86718,-0.56299,10.3588,-4.06106,-13.1603,0,0,3.65451,5
1774535840343,0.0656792,0.856934,-0.565185,5.67939,-9.2748,-19.3053,0,0,3.28674,5
1774535840356,0.0114784,0.914791,-0.564453,3.8626,-12.0229,-18.4809,0,0,3.27221,5
1774535840370,-0.0429649,0.947019,-0.562988,4.55725,-10.3817,-13.7557,0,0,3.27115,5
1774535840383,-0.0722636,0.931398,-0.572265,5.64122,-7.87787,-7.92367,0,0,3.2748,5
1774535840397,-0.121334,0.916749,-0.583007,4.67176,-2.51909,1.35877,0,0,3.2655,5
1774535840410,-0.0844752,0.947508,-0.569825,5.17557,3.36641,10.4733,0,0,3.24152,5
1774535840424,-0.0944817,0.905521,-0.575927,4.61069,9.54198,18.0687,0,0,3.65282,5
1774535840437,-0.0354045,0.940427,-0.556154,5.96183,13.6947,21.2901,0,0,3.23397,5
1774535840450,0.0678639,0.90967,-0.548096,7.55725,12.1527,18.4122,0,0,3.24084,5
1774535840464,0.122067,0.88135,-0.546631,7.89313,8.43512,12.4351,0,0,3.27508,5
1774535840477,0.107179,0.873536,-0.559081,6.93893,3.07634,5.96947,0,0,3.27889,5
1774535840491,0.0625031,0.875732,-0.557373,6.80153,-0.396943,2.54962,0,0,3.27445,5
1774535840504,0.034914,0.884765,-0.563232,5.9084,-3.80152,1.37405,0,0,3.2366,5
1774535840517,-0.00390353,0.909178,-0.573241,5.57252,-4.77862,2.21374,0,0,3.28208,5
1774535840531,0.0219708,0.907959,-0.573975,5.39695,-5.19084,2.68702,0,0,3.27706,5
1774535840544,0.00854586,0.903565,-0.562501,5.92366,-4.08397,2.87023,0,0,3.43702,5
1774535840558,0.0200187,0.90625,-0.562744,7.0458,-2.36641,2.20611,0,0,3.28463,5
1774535840571,0.0380847,0.881105,-0.561768,7.90076,-1.30534,1.21374,0,0,3.28004,5
1774535840585,0.0483391,0.905028,-0.562012,9.12214,-1.27481,-0.419846,0,0,3.2686,5
1774535840598,0.026857,0.901612,-0.557129,9.59542,-1.24427,-0.824427,0,0,3.24082,5
1774535840611,0.0288085,0.893799,-0.569091,10.313,-1.82443,-0.755725,0,0,3.25058,5
1774535840625,0.0187995,0.889649,-0.586913,10.1221,-2.45801,-0.0610694,0,0,3.23669,5
1774535840639,0.0393052,0.920896,-0.578858,11.2901,-3.80916,0.877862,0,0,3.67649,5
1774535840652,0.0168473,0.868412,-0.588866,9.76336,-4.61832,4.40458,0,0,3.27082,5
1774535840666,0.011475,0.958978,-0.591308,10.7328,-4.87786,5.98473,0,0,3.40952,5
1774535840679,0.022216,0.98242,-0.595947,15.3817,-3.42748,6.19847,0,0,3.26765,5
1774535840692,0.036376,0.986572,-0.607177,17.229,-3.23664,6.85496,0,0,3.26886,5
1774535840706,0.0292974,0.893317,-0.600342,19.0916,-1.74046,12.3435,0,0,3.28008,5
1774535840719,0.0222173,1.05199,-0.620116,25.4351,-3.41985,10.5038,0,0,3.2621,5
1774535840733,-0.171861,1.35887,-0.687007,34.687,-1.27481,4.61069,0,0,3.70938,5
1774535840746,-0.0734932,1.21534,-0.725827,47.2443,0.885494,25.9618,0,0,3.24339,5
1774535840760,0.00927155,1.05934,-0.647222,57.6336,7.19083,33.8473,0,0,3.23574,5
1774535840773,0.0190423,1.16869,-0.677976,67.1756,8.1374,34.6641,0,0,3.27291,5
1774535840786,0.0249019,1.34593,-0.722409,79.5954,7.0916,33.145,0,0,3.25328,5
1774535840800,0.00854607,1.65135,-0.700929,109.038,7.01527,22.1679,0,0,3.28445,5
1774535840813,0.0952088,1.46974,-0.677736,133.198,3.99237,23.7252,0,0,3.24145,5
1774535840827,0.105956,1.49634,-0.703123,155.458,1.58779,20.626,0,0,3.27202,5
1774535840840,0.141599,1.7429,-0.649174,187.824,-1.62595,19.0534,0,0,3.23487,5
1774535840854,0.136231,1.82055,-0.741693,220.985,-6.12213,23.4275,0,0,3.55125,5
1774535840867,0.0979031,1.94311,-0.602549,250.13,-9.56488,19.5344,0,0,3.30939,5
1774535840880,0.206291,2.37643,-0.746572,250.13,-16.3969,18.3359,0,0,3.28134,5
1774535840894,-0.0273274,2.83517,-0.808101,250.13,-16.0687,17.9313,0,0,3.27597,5
1774535840907,0.0124484,2.71192,-0.817138,250.13,-16.2901,12.0534,0,0,3.23915,5
1774535840921,-0.116934,2.2886,-0.631117,250.13,-9.47329,7.35878,0,0,3.25432,5
1774535840934,0.45577,2.0696,-0.853256,250.13,-20.3817,-1.57251,0,0,3.2405,5
1774535840948,0.0888929,2.77241,-0.87451,250.13,-10.3283,1.35114,0,0,3.6086,5
1774535840961,0.112303,2.52541,-0.271282,250.13,6.6183,67.8091,0,0,3.23815,5
1774535840974,0.0856952,2.68383,0.570986,250.13,6.12214,105.733,0,0,3.26315,5
1774535840988,0.841744,-0.507833,1.29536,250.13,-24.9847,92.5954,0,0,3.28651,5
1774535841001,-0.0861167,-3.99976,0.957299,69.0307,-51.6336,65.1222,0,0,3.28008,5
1774535841015,-0.0668959,-1.06515,0.0491358,-26.8091,-34.3283,5.85502,0,0,3.28261,5
1774535841028,-0.485322,0.498426,0.157219,-97.206,-10.4199,-24.145,0,0,3.27663,5
1774535841042,-0.147729,0.786601,-0.0331898,-117.412,2.75571,-39.9313,0,0,3.92084,5
1774535841055,-0.0996127,0.55031,0.0351515,-131.343,-2.29007,-48.3206,0,0,3.28048,5
1774535841069,-0.127684,0.0159065,0.257065,-168.992,-0.816795,-48.084,0,0,3.30165,2
1774535841082,-0.0717813,-0.253399,0.416981,-231.87,-3.91603,-59.0458,0,0,3.27195,2
1774535841096,0.0688378,-0.112803,0.523918,-250.137,-12.7481,-67.8244,0,0,3.23995,2
1774535841109,0.168938,0.355436,0.477298,-250.137,-23.7099,-54.6107,0,0,3.25249,2
1774535841122,0.216549,0.746799,0.327647,-250.137,-32.8168,-29.8932,0,0,3.23915,2
1774535841136,0.159916,0.905506,0.169933,-250.137,-38.1069,-2.61071,0,0,3.25982,2
1774535841149,0.129885,0.949948,0.0449306,-250.137,-41.4198,12.4275,0,0,3.24963,2
1774535841163,0.0854523,1.05834,-0.0942285,-250.137,-43.8244,17.6336,0,0,3.62379,2
1774535841176,0.0625016,1.16308,-0.230215,-250.137,-44.3588,21.3817,0,0,3.28052,2
1774535841190,0.0334493,1.25439,-0.365225,-250.137,-41.8168,26.3206,0,0,3.27499,2
1774535841203,-0.0407663,1.29419,-0.0881542,-250.137,-37.3435,30.2443,0,0,3.28678,3
1774535841216,-0.130609,1.42895,-0.532195,-250.137,-27.0229,25.0611,0,0,3.25567,3
1774535841230,-0.249748,1.57641,-0.658927,-250.137,-10.3435,11.6718,0,0,3.32271,3
1774535841243,-0.249512,1.77977,-0.785392,-250.137,9.43509,0.282454,0,0,3.26585,3
1774535841257,-0.164801,1.99583,-1.04417,-250.137,31.0076,-2.76336,0,0,3.81203,3
1774535841271,0.00487094,2.10766,-1.36692,-250.137,47.6183,11.145,0,0,3.37189,3
1774535841284,0.253401,2.10352,-1.74338,-250.137,50.0534,28.2595,0,0,3.23521,3
1774535841298,0.28076,2.01734,-2.15354,-250.137,41,44.9694,0,0,3.25978,3
1774535841311,-0.0314723,1.92042,-2.5427,-250.137,36.6489,62.7404,0,0,3.26006,3
1774535841324,-0.247055,0.387558,-2.83103,-182.664,42.1374,49.9695,0,0,3.26211,3
1774535841338,-0.629368,2.42051,-3.32882,-128.366,46.7557,-9.58773,0,0,3.24252,3
1774535841351,0.0907699,1.66851,-3.53514,-84.7481,40.9237,-31.4809,0,0,3.26486,3
1774535841364,0.316635,1.58179,-3.75731,31.9159,17.5344,-30.084,0,0,3.24243,5
1774535841378,0.734834,1.2698,-3.8894,172.939,-26.229,-2.87026,0,0,3.62918,5
1774535841392,0.895008,-0.0653362,-0.356937,250.13,-85.7099,50.0457,0,0,3.27391,5
1774535841405,0.652361,0.156234,0.222127,250.13,-90.6947,38.1756,0,0,3.27441,5
1774535841418,-0.0521968,1.06341,0.0249161,250.13,-45.5115,-7.54957,0,0,3.27167,5
1774535841432,0.074454,0.857192,-0.560262,250.13,-30.4657,-40.2213,0,0,3.24373,5
1774535841445,-0.173567,0.467801,-0.722645,208.046,-10.2825,-39.2824,0,0,3.26187,5
1774535841458,0.0920224,0.423343,-0.839347,147.664,-3.55726,-32.1221,0,0,3.23761,5
1774535841472,-0.130111,0.235853,-1.09886,87.2978,-2.82443,-22.4122,0,0,3.73638,5
1774535841486,-0.25048,0.734096,-0.619907,61.2901,3.30534,-16.5038,0,0,3.25637,5
1774535841499,-0.164313,0.826654,-0.554936,48.9771,11.5572,-9.6565,0,0,3.26106,5
1774535841513,0.00145324,0.814942,-0.607906,40.855,11.0382,-2.36642,0,0,3.27569,3
1774535841526,-0.0407685,0.480736,-0.649655,18.4046,9.11451,8.31297,0,0,3.26489,3
1774535841539,-0.144768,0.950162,-0.577642,15.0458,16.1221,15.374,0,0,3.2605,3
1774535841553,0.081283,0.904544,-0.555666,9.38169,11.0916,10.7099,0,0,3.2775,3
1774535841566,0.0424832,0.896485,-0.575438,6.27481,9.51145,13.4351,0,0,3.28841,3
1774535841580,0.0917934,0.890381,-0.550783,3.9313,6.12977,8.03054,0,0,3.27769,3
1774535841593,0.160396,0.875978,-0.551269,4.39695,1.03054,-0.14503,0,0,3.24632,5
1774535841606,0.140138,0.900389,-0.552734,4.54198,-5.58015,-10.5878,0,0,3.2495,5
1774535841620,0.0771528,0.895752,-0.557373,4.58779,-10.2824,-16.0916,0,0,3.24206,5
1774535841633,0.0305208,0.910643,-0.55957,5.12214,-11.5878,-16.542,0,0,3.24139,5
1774535841646,-0.0720143,0.92993,-0.573241,5.54198,-9.10687,-11.3359,0,0,3.24065,5
1774535841660,-0.0817864,0.925049,-0.59619,6.05343,-4.12978,-2.87787,0,0,3.36582,5
1774535841673,-0.0688486,0.918702,-0.588868,4.9542,0.999995,4.99236,0,0,3.27061,5
1774535841687,-0.0383322,0.954343,-0.568361,5.32061,5.58015,9.33587,0,0,3.27176,5
1774535841700,0.0380806,0.906009,-0.570312,5.90076,5.61832,9.03817,0,0,3.25461,5
1774535841713,0.071775,0.892823,-0.564942,5.73282,4.37405,6.9542,0,0,3.27411,5
1774535841727,0.0910631,0.889649,-0.56128,5.29008,2.0687,3.05344,0,0,3.26882,5
1774535841740,0.0859379,0.880128,-0.567382,5.58779,-2.0687,-1.72519,0,0,3.27482,5
1774535841754,0.0776373,0.889892,-0.564942,6.1145,-5.96946,-5.98473,0,0,3.26234,5
1774535841767,0.0349151,0.907958,-0.563965,6.75572,-7.87023,-7.92366,0,0,3.23174,5
1774535841780,0.0114762,0.904297,-0.573242,6.9771,-8.25954,-7.80916,0,0,3.26508,5
1774535841794,0.00170967,0.897706,-0.571533,7.67176,-7.42748,-7.21374,0,0,3.25262,5
1774535841807,-0.0173327,0.886475,-0.575683,7.76336,-5.8397,-5.39695,0,0,3.24502,5
1774535841820,-0.0019542,0.875001,-0.583984,7.06107,-3.69466,-3.51145,0,0,3.25556,5
1774535841834,-0.0183094,0.906492,-0.587646,7.62595,-1.58015,-1.77099,0,0,3.24385,5
1774535841847,0.00585768,0.9021,-0.57959,7.68702,-1.03053,-0.687024,0,0,3.25093,5
1774535841860,-0.00927628,0.902588,-0.585693,7.93893,-0.603054,0.595419,0,0,3.23197,5
1774535841874,-0.00293013,0.905517,-0.582764,8.05343,-0.664122,1.45801,0,0,3.25084,5
1774535841887,-0.00830041,0.907226,-0.589355,8.79389,-1.0687,2.59542,0,0,3.27737,5
1774535841900,0.00146416,0.866946,-0.584717,8.73282,-1.12214,3.31298,0,0,3.24671,5
1774535841914,0.017577,0.907956,-0.593749,9.41221,-1.50382,3.96946,0,0,3.27526,5
1774535841927,0.000489477,0.937254,-0.596191,8.43512,-0.503818,6.30534,0,0,3.25035,3
1774535841941,-0.0463834,0.892093,-0.605224,10.687,2.0229,9.35878,0,0,3.25404,3
1774535841954,-0.00610633,0.901855,-0.593263,12.3893,2.64122,9.8855,0,0,3.24215,3
1774535841967,0.0473595,0.959469,-0.587403,12.8092,2.13741,12.4275,0,0,3.26954,3
1774535841981,0.0732404,1.04565,-0.605712,19.3435,-0.954195,10.9313,0,0,3.43788,3
1774535841994,-0.00243611,1.28978,-0.630613,27.3817,-3.68702,6.16794,0,0,3.23561,3
1774535842007,-0.285136,1.27564,-0.71972,36.5114,0.145034,25.7862,0,0,3.27376,5
1774535842021,-0.104261,1.27515,-0.700197,63.4198,6.69465,25.2595,0,0,3.30976,5
1774535842034,0.150861,1.22437,-0.699951,61.687,3.45802,40.2443,0,0,3.26435,5
1774535842048,-0.0317255,1.39379,-0.706787,76.2519,3.72519,28.2748,0,0,3.2845,5
1774535842061,0.0349074,1.55297,-0.713867,110.114,4.19084,21.4886,0,0,3.36456,5
1774535842075,0.0444329,1.38331,-0.683108,132.519,0.519088,21.6718,0,0,3.23952,5
1774535842088,-0.0119589,1.45483,-0.667726,154.931,0.946564,14.4733,0,0,3.28185,5
1774535842101,0.175524,1.31617,-0.614994,172.42,-3.32824,10.6183,0,0,3.27448,5
1774535842115,0.185546,1.72385,-0.729484,199.298,-8.26717,8.21374,0,0,3.23848,5
1774535842128,0.34618,2.17941,-0.726563,240.878,-17.0229,2.49619,0,0,3.25978,5
1774535842142,0.445061,2.17188,-0.650152,250.13,-31.5343,-10.1985,0,0,3.24671,5
1774535842155,0.414553,2.12207,-0.705318,250.13,-44.2214,-18.9542,0,0,3.26611,5
1774535842168,0.389406,2.35936,-0.698243,250.13,-55.3893,-22.5725,0,0,3.26495,5
1774535842183,0.191664,2.3523,-0.774897,250.13,-56.313,-24.5496,0,0,3.95758,5
1774535842196,0.281732,1.48737,-0.765137,250.13,-64.7175,-24.6641,0,0,3.27278,5
1774535842209,-0.0226838,2.14351,-0.833735,250.13,-46.6718,-18.8702,0,0,3.27713,5
1774535842223,0.332495,1.82253,-0.448513,250.13,-39.0763,34.2748,0,0,3.25815,5
1774535842236,0.30884,1.92822,-0.0935307,250.13,-37.8015,80.5114,0,0,3.23378,5
1774535842249,0.229009,2.39157,0.465049,250.13,-49.8931,111.893,0,0,3.25337,5
1774535842263,0.164311,-0.0457278,1.32538,250.13,-64.8244,79.5497,0,0,3.23604,5
1774535842277,-0.431355,-3.99972,0.755655,143.13,-59.4886,71.8931,0,0,3.71614,5
1774535842290,-0.323006,-1.57854,0.160198,24.8016,-32.3588,38.9237,0,0,3.26382,5
1774535842303,-0.625711,-0.392661,0.325672,-90.1831,3.70989,7.64889,0,0,3.23996,3
1774535842317,-0.330587,0.116908,0.168712,-166.893,27.3969,-18.7633,0,0,3.25522,2
1774535842330,0.00534758,0.256094,0.145754,-218.527,25.229,-46.2748,0,0,3.25756,2
1774535842344,0.200914,0.0161301,0.326892,-250.137,12.687,-44.4657,0,0,3.45902,2
1774535842357,0.272456,0.16869,0.344237,-250.137,4.01528,-9.02294,0,0,3.25019,2
1774535842371,0.36596,0.656216,0.210459,-250.137,-4.70991,28.1068,0,0,3.31978,2
1774535842384,0.361328,0.865464,0.0319949,-250.137,-16.5343,46.4809,0,0,3.56614,2
1774535842398,0.162612,0.895017,-0.0810468,-250.137,-25.5267,61.916,0,0,3.60228,2
1774535842411,0.0178324,0.832768,-0.116208,-250.137,-28.2061,68.6565,0,0,3.26098,2
1774535842425,-0.0707946,0.926507,-0.231437,-250.137,-23.2901,62.1298,0,0,3.27004,2
1774535842438,-0.164788,1.0913,-0.336907,-250.137,-12.5954,51.8931,0,0,3.26384,2
1774535842452,-0.228999,1.16577,-0.503162,-250.137,2.5954,46.7328,0,0,3.25219,2
1774535842465,-0.360831,1.25829,-0.62255,-250.137,24.5878,44.8168,0,0,3.26137,2
1774535842478,-0.486563,1.26709,-1.54608,-250.137,59.1145,22.8244,0,0,3.23361,5
1774535842492,-0.520261,1.23291,-0.598699,-250.137,86.2061,9.07635,0,0,3.70032,5
1774535842505,-0.272478,1.24438,-0.831527,-250.137,112.527,0.916039,0,0,3.25274,5
1774535842519,-0.0390788,1.39818,-0.900142,-250.137,130.924,-0.984731,0,0,3.2936,5
1774535842532,0.209455,1.63255,-1.08397,-250.137,135.015,-7.2748,0,0,3.28152,5
1774535842546,0.44847,1.73632,-1.26512,-250.137,125.679,-17.3053,0,0,3.28369,5
1774535842559,0.604481,1.68164,-1.38256,-250.137,110.443,-15.1527,0,0,3.28126,5
1774535842573,0.643552,1.52223,-1.4309,-250.137,94.8626,2.4122,0,0,3.23963,5
1774535842586,0.51954,1.52148,-1.52026,-250.137,80.0764,24.1145,0,0,3.64136,5
1774535842600,0.247578,1.5459,-1.63158,-240.908,71.5344,42.7023,0,0,3.2365,5
1774535842613,0.0371241,1.53345,-1.76171,-211.458,63.7023,46.0992,0,0,3.23406,5
1774535842626,-0.120106,1.42774,-1.94847,-176.618,55.7405,31.6336,0,0,3.26215,5
1774535842640,-0.125244,1.22096,-2.11449,-135.221,46.9466,5.51148,0,0,3.23846,5
1774535842653,0.195534,0.969988,-2.19946,-95.2061,30.5725,-7.96945,0,0,3.25465,5
1774535842666,0.369617,0.780043,-2.32958,-55.4275,4.64125,14.0229,0,0,3.23758,5
1774535842680,0.224864,0.818601,-2.37378,-7.78631,-23.8855,31.1679,0,0,3.40771,5
1774535842694,-1.37489,3.99966,-2.88082,250.13,-67.9923,-60.893,0,0,3.44191,5
1774535842707,0.93685,-0.596602,0.0928094,209.282,-134.359,-60.1679,0,0,3.5923,5
1774535842721,-0.396391,0.354426,-0.0578508,225.626,-121.794,-31.0993,0,0,3.2848,5
1774535842734,-0.405761,1.34832,-0.0568848,250.13,-59.1604,-38.0076,0,0,3.26487,5
1774535842747,-0.259776,1.12331,-0.364725,250.13,-27.3512,-40.4504,0,0,3.25234,5
1774535842761,-0.177496,0.958019,-0.414059,232.344,3.22898,-37,0,0,3.23878,5
1774535842774,0.285368,0.963134,-0.474117,209.626,-9.21373,-42.6259,0,0,3.27715,5
1774535842788,0.0473799,0.950684,-0.585441,173.511,-18.0458,-11.5649,0,0,3.52136,5
1774535842801,-0.224102,0.662374,-0.731923,141.901,-10.1908,10.5725,0,0,3.27891,1
1774535842815,-0.00660702,0.677245,-0.841057,107.374,-1.90841,6.10687,0,0,3.24871,1
1774535842828,0.0512655,0.671875,-0.769292,69.939,5.38931,-1.10686,0,0,3.29261,2
1774535842841,-0.0749423,0.792472,-0.626963,51.6718,11.6794,7.70228,0,0,3.30409,2
1774535842855,-0.0505388,0.884515,-0.602541,44.4275,14.6718,18.4122,0,0,3.32648,2
1774535842868,0.0866603,0.752451,-0.612792,35.7863,13.8244,15.6412,0,0,3.31428,2
1774535842882,0.186516,0.698002,-0.638182,21.3588,8.78626,5.17558,0,0,3.36578,2
1774535842895,0.11231,0.880358,-0.5752,16.0229,4.80153,2.21374,0,0,3.32334,2
1774535842909,0.112305,0.814946,-0.599852,12.3588,1.74046,-5.70992,0,0,3.283,2
1774535842922,0.0944837,0.861813,-0.578615,8.37405,-3.70228,-9.33587,0,0,3.30872,2
1774535842935,0.0834969,0.899411,-0.570557,7.24428,-6.1832,-13.9695,0,0,3.2598,2
1774535842949,0.0127003,0.899658,-0.564454,6.15267,-7.06107,-12.9313,0,0,3.27295,5
1774535842962,-0.031491,0.962154,-0.587401,7.32061,-5.39695,-9.09924,0,0,3.27465,5
1774535842976,-0.0463857,0.941164,-0.594726,10.6641,-1.66413,-2.55726,0,0,3.26837,5
1774535842989,-0.0532222,0.930909,-0.594971,13.6183,2.51908,3.68702,0,0,3.28635,5
1774535843002,-0.0229513,0.902102,-0.620115,13.2366,5.15267,8.67175,0,0,3.32567,5
1774535843016,0.0290491,0.87842,-0.581546,11.6183,6.44275,10.0534,0,0,3.26226,5
1774535843029,0.0297851,0.843997,-0.596435,9.35878,6.54962,10.8626,0,0,3.34763,5
1774535843043,0.0388177,0.861815,-0.596436,7.71756,4.23664,9.53435,0,0,3.33293,5
1774535843056,0.0988727,0.856202,-0.584473,5.83206,3.58015,6.80916,0,0,3.30095,5
1774535843069,0.130613,0.816165,-0.573487,4.13741,0.305347,4.22138,0,0,3.26919,5
1774535843083,0.0903349,0.837645,-0.578369,4.12977,-1.90076,-0.236637,0,0,3.3115,5
1774535843096,0.0742199,0.887204,-0.588378,3.12977,-3.99236,-3.61068,0,0,3.2775,5
1774535843110,0.0354031,0.890381,-0.594482,3.03053,-4.62595,-6.57252,0,0,3.25147,5
1774535843123,0.0429682,0.895019,-0.598144,2.98473,-5.99237,-9.45801,0,0,3.27321,5
1774535843137,0.0202653,0.908202,-0.600342,3.24427,-6.12977,-9.55725,0,0,3.24985,5
1774535843150,0.00341915,0.884767,-0.599365,3.83206,-5.74809,-9.67939,0,0,3.29343,5
1774535843163,0.025145,0.92114,-0.595703,4.22901,-7.45038,-8.39695,0,0,3.25202,5
1774535843177,0.00512835,0.866947,-0.620604,6.50381,-4.85496,-6.26718,0,0,3.28141,5
1774535843190,-0.00317325,0.909177,-0.59717,5.94657,-3.58015,-3.23664,0,0,3.33841,5
1774535843204,0.0131824,0.897462,-0.598144,6.81679,-3.30534,-1.55725,0,0,3.2782,5
1774535843217,0.0312487,0.895996,-0.597412,6.27481,-3.58015,-1.03053,0,0,3.2765,5
1774535843230,-0.0200159,0.854495,-0.608886,5.27481,-3.53435,-0.145039,0,0,3.26104,5
1774535843244,0.0310023,0.879637,-0.614746,5.23664,-3.37405,0.717556,0,0,3.27982,5
1774535843257,0.00683763,0.846194,-0.602784,3.9771,-3.66412,2.20611,0,0,3.25017,5
1774535843271,0.0144038,0.835938,-0.583986,8.96183,-2.77099,2.69466,0,0,3.25772,3
1774535843284,0.045408,0.919428,-0.601561,10.8473,-4.69465,1.80916,0,0,3.26422,3
1774535843298,-0.00609991,0.872074,-0.605468,9.65649,-3.80916,4.40458,0,0,4.13766,3
1774535843312,0.0480919,0.875244,-0.625975,10.6031,-3.9313,5.35114,0,0,3.27739,3
1774535843325,0.0341807,0.825687,-0.623779,11.0305,-3.38168,5.20611,0,0,3.25426,3
1774535843338,0.0305178,0.906977,-0.62915,18.2595,-5.22137,1.76336,0,0,3.27795,3
1774535843352,0.00244337,1.00243,-0.649169,20.0229,-4.36641,4.45801,0,0,3.26946,3
1774535843367,-0.135733,1.25682,-0.685788,39.5267,1.24427,4.19847,0,0,4.72469,3
1774535843380,0.412071,1.08693,-0.573494,41.0076,-0.190838,27.7252,0,0,3.27069,3
1774535843394,0.010282,1.14672,-0.71996,49.0992,3.03816,25.2748,0,0,3.98529,3
1774535843408,0.0185541,1.28539,-0.707276,61.7633,2.51908,20.8473,0,0,3.27328,3
1774535843421,0.0908153,1.44799,-0.711181,87.6641,0.297712,18.0763,0,0,3.24291,3
1774535843434,-0.0378328,1.42432,-0.723876,110.954,1.67939,19.4656,0,0,3.27289,3
1774535843448,0.0515074,1.52245,-0.727539,134.13,1.99237,22.0687,0,0,3.2365,3
1774535843461,-0.00878484,1.53076,-0.666508,159.916,2.29771,21.0229,0,0,3.29759,5
1774535843474,0.153797,1.42213,-0.701658,182.763,-2.84732,14.6641,0,0,3.24584,5
1774535843488,0.127687,1.79905,-0.748044,205.702,-6.46565,13.9542,0,0,3.27502,5
1774535843501,0.139159,2.38082,-0.878165,248.893,-13.3588,12.374,0,0,3.29167,5
1774535843514,-0.0161024,2.68821,-0.863771,250.13,-14.6947,9.76336,0,0,3.26824,5
1774535843528,0.0480912,2.29715,-0.812992,250.13,-16.2137,4.32062,0,0,3.27302,5
1774535843542,0.249253,2.18067,-0.727789,250.13,-20.9771,-20.4656,0,0,3.28491,5
1774535843556,0.430895,1.39898,-0.697512,250.13,-33.9008,-21.229,0,0,3.27622,5
1774535843570,0.250745,2.019,-0.650638,250.13,-27.4886,-18.6641,0,0,3.28954,5
1774535843583,0.443346,1.67996,-0.190706,250.13,-26.8397,12.3587,0,0,3.27445,5
1774535843597,0.508052,1.50416,0.247772,250.13,-38.5572,25.4351,0,0,3.25439,5
1774535843611,0.487794,0.999303,0.599097,250.13,-60.7939,20.0534,0,0,3.95405,5
1774535843624,0.142602,-1.42244,0.0017508,250.13,-67.1298,18.7252,0,0,3.24933,5
1774535843638,-0.144511,0.123427,-0.160877,250.13,-54.4199,26.7023,0,0,3.28572,5
1774535843651,-0.203365,-0.203835,-0.144044,249.786,-34.1832,15.5878,0,0,3.27287,3
1774535843664,-0.505838,-0.61545,0.0773771,168.069,-11.7786,2.92368,0,0,3.24556,3
1774535843678,-0.31642,-1.07882,0.287339,67.9009,2.35876,-53.3893,0,0,3.28715,3
1774535843691,-0.215827,-1.0066,0.293945,-39.6716,8.39694,-95.9007,0,0,3.25309,3
1774535843704,-0.0666608,-0.58084,0.211676,-127.305,18.5496,-94.229,0,0,3.28193,3
1774535843718,0.0466229,-0.358658,0.176516,-198.015,27.4885,-62.0535,0,0,3.28289,3
1774535843732,0.177237,-0.340333,0.195311,-250.137,34.3206,-25.3741,0,0,3.74256,3
1774535843745,0.341053,-0.224129,0.216551,-250.137,28.626,1.12211,0,0,3.30252,2
1774535843758,0.347412,0.00120493,0.167972,-250.137,21.3283,24.3511,0,0,3.26933,2
1774535843772,0.278325,0.373265,0.102788,-250.137,16.7176,39.4275,0,0,3.27022,2
1774535843785,0.2854,0.616926,-0.0673709,-250.137,11.0534,45.145,0,0,3.27335,2
1774535843799,0.242435,0.739005,-0.19213,-250.137,7.12977,53.9695,0,0,3.27735,2
1774535843812,0.190189,1.15915,-0.417465,-250.137,6.38931,66.0611,0,0,3.28413,5
1774535843826,0.0595795,1.4055,-0.684063,-250.137,13.7252,76.4962,0,0,3.66488,5
1774535843839,-0.10741,1.15041,-0.884752,-250.137,23.0763,77.8855,0,0,3.25419,5
1774535843853,-0.193597,1.12818,-1.01635,-250.137,33.6107,55.9542,0,0,3.27145,5
1774535843866,-0.265864,1.20117,-1.17406,-250.137,46.3282,23.7176,0,0,3.28452,5
1774535843880,-0.30737,1.23315,-1.2229,-250.137,60.542,-2.87784,0,0,3.27659,5
1774535843893,-0.3208,1.08546,-1.18018,-250.137,78.6107,-15.8091,0,0,3.26922,5
1774535843906,-0.221687,1.08813,-1.11744,-250.137,96.6259,-16.6565,0,0,3.31487,5
1774535843920,-0.0605582,1.16479,-1.07862,-250.137,107.519,-17.7176,0,0,3.32285,5
1774535843933,0.106678,1.27953,-1.10986,-250.137,107.847,-24.4275,0,0,3.23965,5
1774535843947,0.269764,1.31665,-1.1394,-250.137,96.1909,-28.0458,0,0,3.60056,5
1774535843960,0.430409,1.25538,-1.12525,-243.29,78.9008,-23.2366,0,0,3.26765,5
1774535843974,0.567373,1.26807,-1.1167,-230.595,55.9848,-13.6947,0,0,3.27808,5
1774535843987,0.648676,1.26416,-1.094,-216.038,30.9924,-3.51909,0,0,3.27552,5
1774535844000,0.628664,1.19727,-1.06079,-202.756,7.2672,6.97709,0,0,3.26932,5
1774535844014,0.574467,1.1272,-1.04443,-192.656,-14.3893,12.2672,0,0,3.28572,5
1774535844027,0.527103,1.07959,-1.01245,-183.382,-33.1069,15.9313,0,0,3.28004,5
1774535844041,0.431647,1.1477,-1.01587,-165.046,-45.4275,23.3282,0,0,3.83721,5
1774535844055,0.278331,1.19995,-1.02344,-137.084,-50.0153,32.4962,0,0,3.30085,5
1774535844068,0.0566561,1.06812,-0.962407,-112.786,-44.9389,35.6489,0,0,3.28911,3
1774535844082,-0.0580974,0.995611,-0.901371,-93.8015,-36.0611,21.6336,0,0,3.31646,3
1774535844095,-0.0227076,1.11523,-0.901855,-68.4809,-28.3893,-2.53433,0,0,3.27437,3
1774535844109,0.0866623,1.01148,-0.85889,-43.7023,-21.1374,-13.2901,0,0,3.30089,3
1774535844122,0.238759,1.00977,-0.843263,-22.4886,-17.0763,-8.22901,0,0,3.26622,3
1774535844136,0.21509,0.902595,-0.766851,-7.15269,-15.9466,-5.20611,0,0,3.59721,3
1774535844149,0.13648,0.985834,-0.754884,7.93892,-16.9389,-9.35114,0,0,3.26933,3
1774535844163,-1.64782,3.99967,-1.62103,250.13,-45.4504,-136.42,0,0,3.24859,3
1774535844176,0.789136,0.588862,-0.338957,133.328,-86.4427,-139.275,0,0,3.2793,3
1774535844189,-0.00385074,0.768542,0.0434303,163.458,-78.5802,-116.74,0,0,3.25876,3
1774535844203,-0.4653,0.871087,-0.0256299,194.183,-30.481,-66.9619,0,0,3.28663,3
1774535844216,-0.12478,1.00536,-0.0742153,211.366,-8.96949,-46.2367,0,0,3.28319,3
1774535844230,-0.0412656,0.977785,-0.272935,211.679,-4.56489,-40.5267,0,0,3.33476,2
1774535844243,-0.0817843,0.770034,-0.447742,186.053,-1.93893,-22.4122,0,0,3.26852,2
1774535844257,0.00634149,0.935047,-0.407962,169.908,-8.74808,-6.94658,0,0,3.59149,2
1774535844271,-0.216049,0.864507,-0.457028,156.565,-2.26718,11.5954,0,0,3.28315,2
1774535844284,-0.178714,0.796636,-0.564934,132.26,11.4809,21.5649,0,0,3.25613,2
1774535844297,-1.25082e-05,0.840085,-0.618649,110.786,17.3893,22.8931,0,0,3.28445,2
1774535844311,0.0646927,0.778813,-0.58594,91.1145,15.9618,22.4886,0,0,3.27717,2
1774535844324,0.0480969,0.500264,-0.623777,53.7329,11.5191,21.6565,0,0,3.34395,2
1774535844338,0.0354013,0.787822,-0.589114,45.6718,12.458,15.626,0,0,3.27113,2
1774535844352,0.119135,0.864741,-0.523442,41.7863,10.0763,7.20612,0,0,3.76891,2
1774535844365,0.119873,0.71046,-0.539061,36.4428,7.58779,1.84733,0,0,3.27409,5
1774535844379,0.146238,0.431172,-0.523439,11.3741,0.832068,-8.98472,0,0,3.26959,5
1774535844392,0.113039,0.759254,-0.531738,16,-1.34351,-11.2977,0,0,3.2827,5
1774535844405,0.0266174,1.05345,-0.590816,12.2824,-6.69465,-16.7557,0,0,3.27148,5
1774535844419,0.0698212,0.984624,-0.559084,9.87023,-9.41221,-18.0916,0,0,3.29324,5
1774535844432,0.00439911,0.90357,-0.543214,9.34351,-9.51908,-19.0153,0,0,3.25882,5
1774535844446,-0.00537041,0.958492,-0.570066,11.626,-9.12214,-19.4198,0,0,3.3113,5
1774535844459,-0.0292952,0.913821,-0.586181,12.2901,-7.74046,-15.6641,0,0,3.2717,5
1774535844473,-0.0422354,0.934569,-0.580323,12.4275,-3.7481,-9.71756,0,0,3.59412,5
1774535844486,-0.0402833,0.914064,-0.595214,10.6641,0.198469,-4.20611,0,0,3.29246,5
1774535844500,-0.00146756,0.911865,-0.573,10.4809,3.71755,0.183202,0,0,3.25896,5
1774535844513,0.0341772,0.865238,-0.588134,9.0687,2.53435,0.908396,0,0,3.2932,5
1774535844526,0.0439446,0.932368,-0.572755,7.8168,2.39695,2.64122,0,0,3.25556,5
1774535844540,0.0424806,0.891116,-0.584228,7.85496,0.54962,2.32824,0,0,3.28141,5
1774535844553,0.0529778,0.898193,-0.573975,7.59542,-1.70229,1.18321,0,0,3.27046,5
1774535844567,0.0444342,0.882814,-0.578125,6.83206,-2.75572,1.07634,0,0,3.71775,5
1774535844580,0.0202654,0.890136,-0.581054,6.35115,-2.48855,1.83969,0,0,3.29928,5
1774535844594,0.0183107,0.899169,-0.580078,6.12977,-2.03053,2.55725,0,0,3.28195,5
1774535844607,0.0258784,0.877687,-0.580078,5.89313,-1.64886,2.84733,0,0,3.28943,5
1774535844621,0.0383292,0.900389,-0.581055,6.45801,-1.20611,2.53435,0,0,3.2748,5
1774535844634,0.03418,0.885255,-0.567384,6.53435,-1.09924,2.48092,0,0,3.3173,5
1774535844648,0.0434564,0.882569,-0.577636,6.29771,-1.10687,2.41985,0,0,3.26141,5
1774535844661,0.0407717,0.863527,-0.581054,6.80916,-1.44275,1.35878,0,0,3.59291,5
1774535844675,0.0825166,0.88452,-0.572754,6.90076,-2.83969,-1.96183,0,0,3.27393,5
1774535844688,0.0566424,0.887939,-0.578613,7.60305,-4.25191,-3.58015,0,0,3.25754,5
1774535844701,0.0402843,0.874024,-0.577393,7.61069,-5.32061,-4.80916,0,0,3.282,5
1774535844715,0.0188003,0.871826,-0.593749,8.85496,-6.14504,-5.76336,0,0,3.30809,5
1774535844730,0.0561497,0.949457,-0.588135,13.1298,-7.34351,-6.38931,0,0,5.11765,5
1774535844744,0.0224633,0.91138,-0.590576,12.9237,-7.67176,-4.77099,0,0,3.28231,5
1774535844757,0.0717739,0.96899,-0.585694,15.2061,-9.61069,-6.19847,0,0,3.31863,5
1774535844770,0.00635224,0.923831,-0.607664,18.5725,-11.3588,-8.51145,0,0,3.29759,5
1774535844784,-0.0122057,0.868168,-0.599366,14.7557,-10.7481,-5.40458,0,0,3.30687,5
1774535844799,-0.0466284,0.931636,-0.626951,16.6947,-7.80916,-0.946569,0,0,3.30893,5
1774535844812,-0.0793434,0.979001,-0.639159,18.7023,-3.70993,10.3359,0,0,3.24537,5
1774535844828,-0.153315,1.13353,-0.670408,37.1298,7.88548,18.3817,0,0,3.32454,5
1774535844841,-0.0146581,0.981456,-0.678466,33.145,8.79389,29.229,0,0,3.26604,5
1774535844856,0.0268526,1.17601,-0.69287,42.9008,11.0305,32.2595,0,0,3.31782,5
1774535844870,0.0671359,1.36229,-0.689942,58.9694,9.12977,20.5649,0,0,3.27741,5
1774535844884,0.201407,1.3064,-0.684082,75.6183,2.09161,16.4657,0,0,3.29432,5
1774535844897,0.0429798,1.38867,-0.708983,93.3511,0.114506,14.4733,0,0,3.24776,5
1774535844911,0.170157,1.31958,-0.677981,113.267,-4.87022,8.84733,0,0,3.25622,5
1774535844924,0.0385834,1.27222,-0.696044,129.458,-7.49618,7.43512,0,0,3.2713,5
1774535844937,0.0407713,1.20337,-0.65015,145.053,-8.34351,6.60305,0,0,3.24441,5
1774535844951,0.0883756,1.16065,-0.666991,158.198,-10.1679,2.74046,0,0,3.253,5
1774535844964,0.212882,1.47068,-0.748774,173.809,-14.1221,0.282445,0,0,3.23796,5
1774535844977,0.284663,1.7573,-0.785642,207.206,-22.2443,-7.30534,0,0,3.25424,5
1774535844991,0.319822,1.77881,-0.758059,239.031,-34.0229,-16.3053,0,0,3.23889,5
1774535845004,0.246099,1.87035,-0.790525,250.13,-41.2672,-21.1145,0,0,3.25489,5
1774535845017,0.380118,2.09911,-0.810545,250.13,-49.9847,-27.6183,0,0,3.24774,5
1774535845031,0.384033,1.86086,-0.99779,250.13,-58.2672,-18.2977,0,0,3.3068,5
1774535845044,0.467768,1.37748,-0.822766,250.13,-66.084,-15.8244,0,0,3.25146,5
1774535845058,0.152854,1.59618,-1.23361,250.13,-61.0763,-18.9466,0,0,3.23046,5
1774535845071,0.675989,1.51026,-0.847439,250.13,-60.1527,25.9694,0,0,3.24981,5
1774535845085,0.386251,1.21291,-0.410187,250.13,-67.3359,40.916,0,0,3.61671,5
1774535845100,0.400634,1.60446,0.0754055,250.13,-82.9465,40.2824,0,0,3.2867,3
1774535845114,-0.0509938,1.5647,-0.0883674,250.13,-89.6107,6.18324,0,0,3.34704,3
1774535845127,-0.20702,-1.09918,-0.369365,250.13,-67.5115,-8.94655,0,0,3.2867,3
1774535845140,-0.231444,-0.857683,-0.0674039,250.13,-44.7176,-25.0382,0,0,3.27133,3
1774535845154,-0.524882,-0.62819,-0.132808,200.382,-5.97714,-39.7252,0,0,3.24437,3
1774535845167,-0.4087,-0.394059,-0.150634,132.298,31.519,-61.687,0,0,3.24754,3
1774535845180,-0.234875,-0.636458,-0.0185639,57.252,55.3053,-76.1679,0,0,3.23318,3
1774535845194,-0.0764271,-0.658934,0.122549,-19.9694,69.6717,-77.1985,0,0,3.24924,3
1774535845207,0.00975959,-0.354758,0.0473685,-84.2747,82.2824,-57.5115,0,0,3.25083,3
1774535845220,0.0971619,-0.174329,-0.00487916,-134.626,90.3511,-31.4275,0,0,3.27728,3
1774535845234,0.145016,-0.24853,0.0493126,-184.397,90.1985,-16.1222,0,0,3.26991,3
1774535845247,0.212154,-0.356438,0.127192,-242.359,82.2595,-9.6794,0,0,3.35604,2
1774535845261,0.253659,-0.37744,0.198725,-250.137,68.1527,-8.57252,0,0,3.25363,2
1774535845274,0.250244,-0.183851,0.26147,-250.137,53.5038,-9.60305,0,0,3.26407,2
1774535845287,0.235841,0.0929982,0.26001,-250.137,41.2596,-1.6565,0,0,3.28381,2
1774535845301,0.30688,0.5964,0.155769,-250.137,29.5649,15.3817,0,0,3.25133,5
1774535845314,0.372798,1.15182,-0.0956855,-250.137,15.0611,35.4046,0,0,3.26326,5
1774535845327,0.265144,1.47752,-0.415261,-250.137,10.7939,72.4503,0,0,3.27243,5
1774535845341,0.0371253,1.26686,-0.568349,-250.137,15.7405,105.26,0,0,3.2703,5
1774535845354,-0.102041,1.06373,-0.651606,-250.137,20.0687,97.3588,0,0,3.25405,5
1774535845367,-0.317368,1.1001,-0.805897,-250.137,26.1603,55.9466,0,0,3.23998,5
1774535845381,-0.447501,1.24755,-0.913567,-250.137,36.5954,-6.65643,0,0,3.25107,5
1774535845394,-0.366461,1.45848,-1.02538,-250.137,48.5114,-41.3587,0,0,3.42598,5
1774535845408,-0.39575,1.50341,-1.13573,-250.137,74.1984,-30.5649,0,0,3.29711,5
1774535845421,-0.34766,1.40626,-1.10498,-250.137,104.107,-11.313,0,0,3.27563,5
1774535845435,-0.282964,1.40454,-1.11963,-250.137,125.992,-19.0382,0,0,3.31611,5
1774535845448,-0.117199,1.45215,-1.1228,-250.137,134.939,-45.3511,0,0,3.26672,5
1774535845461,0.134992,1.50805,-1.19287,-250.137,131.542,-54.8092,0,0,3.25156,5
1774535845475,0.379622,1.54712,-1.27856,-250.137,116.053,-48.3741,0,0,3.26609,5
1774535845488,0.514395,1.49781,-1.31909,-236.328,91.7481,-37.4122,0,0,3.23513,5
1774535845501,0.527587,1.44117,-1.33179,-216.328,62.5496,-31.6412,0,0,3.29074,5
1774535845515,0.450689,1.34742,-1.31836,-198.053,33.4199,-35.1069,0,0,3.23885,5
1774535845528,0.447754,1.27881,-1.3103,-179.084,6.45804,-41.2824,0,0,3.51882,5
1774535845542,0.487302,1.15333,-1.28321,-159.397,-16.3969,-39.6107,0,0,3.2685,5
1774535845555,0.466066,1.29809,-1.40136,-126.351,-34.3435,-22.6794,0,0,3.26585,5
1774535845569,0.137718,1.20191,-1.46093,-86.9008,-38.0611,1.13738,0,0,3.27778,5
1774535845582,-0.179665,1.01173,-1.44898,-54.4275,-30.7481,0.67939,0,0,3.26372,5
1774535845596,-0.318838,0.961429,-1.40332,-23.9008,-18.1603,-26.6107,0,0,3.39169,3
1774535845609,-0.133558,1.05541,-1.31202,12.0916,-10.4199,-52.6946,0,0,3.30589,3
1774535845623,0.145977,0.979253,-1.09401,40.5801,-9.99237,-55.6947,0,0,3.3377,3
1774535845636,0.330309,0.880866,-0.82912,54.832,-15.0916,-41.7328,0,0,3.27796,3
1774535845650,3.99962,3.52301,-0.0635302,32.9466,-46.3969,21.3587,0,0,3.34363,3
1774535845663,0.624992,-1.94737,0.755802,68.9084,-28.9618,-7.22135,0,0,3.27654,3
1774535845676,0.0869517,1.03495,0.00273826,158.618,-66.0152,-48.4885,0,0,3.26046,3
1774535845690,-0.511433,1.55367,-0.301737,160.366,-54.687,-26.084,0,0,3.27198,3
1774535845703,-0.0713199,1.42433,-0.221197,153.611,-21.1298,-7.58017,0,0,3.25209,3
1774535845717,0.131822,1.23536,-0.224365,152.947,-21.5344,-14.1145,0,0,3.26645,3
1774535845730,-0.0285532,1.05665,-0.29394,150.023,-17.5496,-14.9237,0,0,3.33346,3
1774535845743,-0.0424795,0.934579,-0.354488,140.832,-12.8779,-9.31298,0,0,3.29185,3
1774535845757,0.0151327,0.943359,-0.38574,132.847,-11.5954,-3.18321,0,0,3.32087,3
1774535845770,0.0629849,0.987546,-0.379395,127.244,-13.9924,0.282439,0,0,3.2732,3
1774535845784,-0.0229432,0.93018,-0.449458,117.008,-9.9542,12.8473,0,0,3.27944,3
1774535845797,-0.0346671,0.877201,-0.484128,105.794,-2.8855,18.5191,0,0,3.31133,3
1774535845811,0.0288042,0.90161,-0.515135,95.9313,2.75572,19.2824,0,0,3.31563,3
1774535845824,0.0610329,0.848881,-0.572506,84.5802,6.229,17.5267,0,0,3.26469,3
1774535845837,0.0561527,0.830812,-0.617917,71.5802,6.70229,16.4351,0,0,3.3268,3
1774535845851,0.129389,0.796389,-0.607178,56.6336,2.61069,9.48856,0,0,3.29683,3
1774535845864,0.0722696,0.822752,-0.542973,44.2596,2.59542,5.04581,0,0,3.26744,3
1774535845880,0.100584,0.808595,-0.548339,31.3206,1.82443,3.79389,0,0,3.27789,3
1774535845893,0.0979006,0.882807,-0.529542,28.0687,1.75573,0.526721,0,0,3.24061,3
1774535845907,0.0747087,0.868409,-0.526367,26.1221,0.404582,-2.19847,0,0,3.25813,3
1774535845920,0.105711,0.900877,-0.520508,25.2519,0.0534355,-6.1374,0,0,3.27974,3
1774535845934,0.0910655,0.86426,-0.53369,23.1374,-0.740457,-7.33588,0,0,3.32372,5
1774535845947,0.0559107,0.839601,-0.570554,19.0229,-0.40458,-8.64885,0,0,3.25654,5
1774535845960,0.0839824,0.8396,-0.588134,15.1145,-0.343512,-7.25954,0,0,3.26598,5
1774535845974,0.0490747,0.866941,-0.58252,10.9618,-2.85496,-5.23664,0,0,3.2742,5
1774535845987,0.0363778,0.879394,-0.577149,9.50382,1.17557,-4.80153,0,0,3.25224,5
1774535846000,0.0336916,0.899169,-0.571289,6.41985,0.610688,-0.969469,0,0,3.274,5
1774535846014,0.0622539,0.888428,-0.570313,7.27481,2.32824,0.267174,0,0,3.25248,5
1774535846027,0.0512703,0.934323,-0.550783,5.92367,2.42748,2.34351,0,0,3.28454,5
1774535846040,0.070067,0.888919,-0.566649,5.93893,1.85496,1.10687,0,0,3.26568,5
1774535846054,0.0830069,0.899169,-0.5542,5.9771,0.900764,-0.809158,0,0,3.28252,5
1774535846067,0.0778812,0.911864,-0.569335,5.64886,0.106871,-2.91603,0,0,3.26368,5
1774535846081,0.0832516,0.916748,-0.566895,6.00763,-0.824427,-4.78626,0,0,3.24735,5
1774535846094,0.0668957,0.887697,-0.564453,5.17557,-1.83206,-5.68702,0,0,3.27346,5
1774535846107,0.0517589,0.89624,-0.566894,4.96183,-1.94656,-5.50382,0,0,3.41624,5
1774535846124,0.0502931,0.903076,-0.561524,5.29008,-2.08397,-4.91603,0,0,3.29756,5
1774535846137,0.040528,0.879396,-0.571288,4.67176,-2.26718,-4.22137,0,0,3.26894,5
1774535846151,0.0427245,0.882568,-0.56836,3.53435,-2.16031,-3.80153,0,0,3.28044,5
1774535846164,0.0541984,0.880859,-0.567383,4.08397,-2.06107,-3.50382,0,0,3.25107,5
1774535846178,0.0446784,0.890868,-0.57373,3.43512,-1.74046,-4.10687,0,0,3.27118,5
1774535846191,0.0524897,0.878175,-0.557374,2.70992,-1.38168,-3.91603,0,0,3.26296,5
1774535846204,0.0427253,0.861329,-0.573973,2,-1.59542,-3.73282,0,0,3.25011,5
1774535846218,0.027589,0.879882,-0.566163,1.45802,-0.954199,-2.25191,0,0,3.26869,5
1774535846231,0.035644,0.89038,-0.566162,1.25191,-1.00763,-0.778627,0,0,3.25304,5
1774535846244,0.0354004,0.894775,-0.56543,0.748092,-1.24427,0.366411,0,0,3.28246,5
1774535846258,0.0568833,0.888184,-0.565918,0.549619,-1.50382,0.877862,0,0,3.38085,5
1774535846271,0.063232,0.883057,-0.576171,-0.114503,-1.91603,0.717557,0,0,3.31307,5
1774535846285,0.0339376,0.885254,-0.572754,-0.274809,-1.8626,0.969465,0,0,3.27157,5
1774535846298,0.0358885,0.885742,-0.562745,-0.519084,-1.71756,1.47328,0,0,3.24796,5
1774535846311,0.038574,0.890136,-0.575439,-0.786259,-1.26718,2.08397,0,0,3.25359,5
1774535846325,0.0441891,0.878419,-0.574951,-1.17557,-0.969466,2.33588,0,0,3.23624,5
1774535846338,0.035401,0.895751,-0.566651,-1.54198,-0.946565,2.54962,0,0,3.28863,5
1774535846351,0.0568833,0.896484,-0.573974,-1.45038,-1.21374,2.40458,0,0,3.243,5
1774535846365,0.0607907,0.881837,-0.567627,-2.0229,-1.40458,1.77863,0,0,3.24522,5
1774535846378,0.0563968,0.883301,-0.574951,-2.32824,-2.29771,1.41221,0,0,3.24235,5
1774535846391,0.0610348,0.885498,-0.565674,-2.68702,-2.64122,0.778627,0,0,3.26367,5
1774535846405,0.0568851,0.885254,-0.573974,-2.9084,-3.40458,-0.206106,0,0,3.25146,5
1774535846418,0.051514,0.905516,-0.565919,-3.07634,-3.92366,-0.755725,0,0,3.26791,5
1774535846431,0.0471194,0.894044,-0.570312,-3.29008,-4.75572,-0.885496,0,0,3.26933,5
1774535846445,0.0556635,0.897217,-0.579589,-3.57252,-4.27481,-0.618321,0,0,3.26757,5
1774535846459,0.0356459,0.901855,-0.567384,-3,-4.38931,-0.938931,0,0,3.35672,3
1774535846472,0.0400388,0.894044,-0.564942,-3.06107,-4.09924,-1.07634,0,0,3.25622,3
1774535846485,0.045898,0.894775,-0.574462,-2.62595,-4.09924,-1.74809,0,0,3.2853,3
1774535846499,0.0488279,0.902343,-0.562745,-2.49618,-3.98473,-2.0916,0,0,3.26368,3
1774535846512,0.0537106,0.900147,-0.575927,-2.22901,-4.55725,-3.25191,0,0,3.24598,3
1774535846525,0.0727526,0.901611,-0.568848,-2.40458,-4.9313,-3.9084,0,0,3.27442,3
1774535846539,0.0366236,0.926024,-0.575927,-2,-4.93893,-2.77863,0,0,3.27802,3
1774535846552,0.00854689,0.928711,-0.589843,-1.46565,-3.80916,-0.381682,0,0,3.29007,3
1774535846565,5.98198e-07,0.932129,-0.572023,-1.29008,-3.03817,2.47328,0,0,3.23987,3
1774535846579,0.0258771,0.922608,-0.57788,-1.14504,-2.8626,4.51145,0,0,3.25911,3
1774535846592,0.0473618,0.908448,-0.56421,-1.0687,-2.9084,5.36641,0,0,3.26639,3
1774535846605,0.0595695,0.899659,-0.552003,-1.32824,-3.69466,4.78626,0,0,3.24996,3
1774535846621,0.0822738,0.890626,-0.569091,-1.67176,-6.06107,1.80916,0,0,5.68964,3
1774535846635,0.0600601,0.899169,-0.543703,-0.954199,-7.39695,-0.862593,0,0,3.27735,3
1774535846648,0.0759266,0.895508,-0.552245,-0.0381689,-9.0458,-4.12977,0,0,3.34217,3
1774535846661,0.07251,0.919188,-0.539552,0.847327,-10.1832,-6.52672,0,0,3.23554,3
1774535846675,0.0747069,0.915039,-0.536865,2.52672,-11.2672,-9.38168,0,0,3.28726,3
1774535846688,0.0461446,0.897218,-0.564695,3.90076,-12.687,-10.8931,0,0,3.25128,3
1774535846701,0.0244156,0.894531,-0.561524,4.44275,-12.2824,-11.0458,0,0,3.25091,3
1774535846715,0.0339349,0.870119,-0.53589,4.61069,-12.9313,-10.1756,0,0,3.24904,3
1774535846728,0.0168469,0.869141,-0.572019,4.52672,-12.4122,-8.10687,0,0,3.23581,3
1774535846741,0.0368638,0.883788,-0.576172,3.72519,-13.2061,-6.49618,0,0,3.27968,3
1774535846755,0.0825163,0.892333,-0.574707,3.19084,-16.3359,-2.771,0,0,3.23524,3
1774535846768,0.145992,0.870607,-0.581054,2.8397,-24.0611,4.80152,0,0,3.28098,3
1774535846782,0.43748,0.942866,-0.582275,2.67939,-44.3206,18.7023,0,0,3.72776,3
1774535846795,0.871796,0.87769,-0.501715,-0.473279,-83.9313,50.1374,0,0,3.27739,3
1774535846809,1.30148,1.00048,-0.412848,-5.12213,-152.237,93.1832,0,0,3.2862,3
1774535846822,1.48436,1.03467,-0.297127,-9.19847,-233.885,141.588,0,0,3.26331,3
1774535846836,1.30641,1.09448,-0.138683,-6.84733,-250.137,175.481,0,0,3.27492,3
1774535846849,1.1111,1.20702,-0.0168542,-6.70229,-250.137,200.473,0,0,3.26654,3
1774535846862,0.808859,1.27465,0.199448,-3.06871,-250.137,212.802,0,0,3.29428,3
1774535846876,0.416043,1.31909,0.275141,0.114501,-250.137,215.221,0,0,3.24904,3
1774535846889,0.171404,1.38134,0.281982,5.28244,-250.137,213.756,0,0,3.29022,3
1774535846902,-0.0366065,1.21461,0.220707,8.17557,-250.137,223.878,0,0,3.26844,3
1774535846916,-0.0942342,1.19019,0.248045,5.20611,-250.137,236.321,0,0,3.25048,3
1774535846929,-0.254872,1.10352,0.194828,-5.45037,-250.137,250.13,0,0,3.28167,3
1774535846943,-0.434069,1.12671,0.15845,-13.8626,-250.137,250.13,0,0,3.3557,3
1774535846956,-0.609851,1.1228,0.00171995,-22.3664,-250.137,239.229,0,0,3.29678,3
1774535846969,-0.990208,1.30223,-0.104485,-21.1527,-250.137,190.542,0,0,3.26135,3
1774535846983,-1.08007,1.03005,-0.104492,-21.2214,-250.137,165.695,0,0,3.27507,3
1774535846996,-0.382129,1.04883,-0.0529821,-27.0153,-250.137,179.061,0,0,3.27163,3
1774535847010,-0.378906,0.949714,-0.0397958,-27.1756,-250.137,176.519,0,0,3.26528,3
1774535847023,-0.236826,1.16502,-0.075437,-21.6336,-250.137,170.542,0,0,3.27,3
1774535847036,-0.0734978,1.24462,-0.162347,-18.1756,-250.137,171.618,0,0,3.24602,1
1774535847050,0.0873911,1.18262,-0.12427,-14.626,-250.137,170.954,0,0,3.28089,1
1774535847063,0.0478543,1.16382,-0.0732458,-11.8931,-250.137,160.664,0,0,3.25015,1
1774535847076,-0.0471125,1.21948,-0.116452,-7.36642,-250.137,147.191,0,0,3.2752,1
1774535847090,-0.109127,1.11378,-0.229728,0.083962,-250.137,133.534,0,0,3.26624,1
1774535847103,-0.197748,1.00904,-0.353995,3.41984,-250.137,119.336,0,0,3.30474,1
1774535847117,-0.224119,1.00024,-0.405514,5.99236,-244.534,103.71,0,0,3.27457,1
1774535847134,-0.193117,0.925054,-0.471675,6.15267,-207.382,80.0611,0,0,5.49706,1
1774535847147,-0.161867,0.870609,-0.572747,1.7252,-172.214,60.855,0,0,3.28217,1
1774535847161,-0.136476,0.888182,-0.61572,-0.435112,-145.168,46.8473,0,0,3.25644,1
1774535847174,-0.0559138,0.860598,-0.608887,0.809159,-123.702,36.8473,0,0,3.28761,1
1774535847188,-0.0378431,0.890135,-0.526373,2.52672,-109.74,30.9466,0,0,3.24394,1
1774535847202,0.00707693,0.983392,-0.517335,6.49618,-99.4199,27.5573,0,0,4.84676,1
1774535847216,-0.0515096,1.12841,-0.527099,15.5114,-93.0382,20.9237,0,0,3.24389,1
1774535847231,-0.0722642,1.04835,-0.563474,27.3206,-82.9695,24.313,0,0,4.76918,1
1774535847245,-0.187492,0.96192,-0.520999,34.8473,-65.6183,30.7176,0,0,3.39489,1
1774535847259,-0.181641,0.767592,-0.39454,32.3282,-44.3206,41.5725,0,0,3.99475,1
1774535847272,-0.185302,0.76831,-0.292243,14.855,-26.3054,42.0916,0,0,3.27363,1
1774535847286,-0.459942,0.969468,-0.443593,0.137419,-0.175599,16.7023,0,0,3.51328,1
1774535847299,-0.0339654,0.80592,-0.552971,2.35878,12.0305,3.93894,0,0,3.27896,1
1774535847313,0.17772,0.795167,-0.487553,11.3588,0.908408,-4.42747,0,0,3.23492,1
1774535847327,-0.0124379,0.753665,-0.555903,-6.35113,-5.28244,-6.45038,0,0,3.28444,1
1774535847341,-0.0449196,0.752686,-0.556885,6.85495,2.19847,2.56488,0,0,3.24735,1
1774535847356,0.0546805,0.936999,-0.511234,4.77863,0.221376,-1.58778,0,0,4.83364,1
1774535847369,0.0229514,0.877934,-0.539549,7.54198,0.419847,-0.381681,0,0,3.24272,1
1774535847382,-0.0541938,0.855959,-0.543213,6.87786,2.49618,4.77862,0,0,3.29767,1
1774535847396,0.01147,0.895505,-0.539795,6.57252,5.31297,8.01526,0,0,3.28257,1
1774535847409,0.00805688,0.910155,-0.540283,7.82443,5.61832,8.9084,0,0,3.2537,1
1774535847423,0.00805664,0.891847,-0.541504,7.60305,6.66412,11.7863,0,0,3.33268,1
1774535847436,0.00317417,0.877442,-0.547363,6.68702,9.61832,15.7252,0,0,3.27776,1
1774535847449,0.0563928,0.87793,-0.557128,5.9542,11.1069,16.0916,0,0,3.33096,5
1774535847463,0.0825177,0.896483,-0.544923,6.65649,9.9313,14.626,0,0,3.25839,5
1774535847476,0.131588,0.890381,-0.537354,5.39695,6.30535,9.65649,0,0,3.28002,5
1774535847490,0.144774,0.843753,-0.543945,3.12977,1.26718,2.75573,0,0,3.27098,5
1774535847503,0.156249,0.838379,-0.542236,-0.0992334,-2.34351,-4.43511,0,0,3.24492,5
1774535847516,0.113284,0.866941,-0.533692,-0.641221,-4.82443,-9.48854,0,0,3.27555,5
1774535847530,0.0681184,0.913327,-0.551757,-0.633588,-6.07633,-11.9924,0,0,3.24009,5
1774535847543,0.0546884,0.950437,-0.573485,0.870228,-6.23664,-11.5267,0,0,3.30526,5
1774535847556,0.0229514,0.935304,-0.582519,2.35878,-5.41221,-8.69466,0,0,3.2705,5
1774535847570,0.00366346,0.963133,-0.568849,3.43511,-2.66412,-4.19848,0,0,3.28992,5
1774535847583,-0.00292923,0.957276,-0.566895,4.85496,0.00763092,0.75572,0,0,3.25807,5
1774535847596,0.0224592,0.918948,-0.570801,5.20611,1.08397,4.229,0,0,3.25379,5
1774535847610,0.0336906,0.90381,-0.571045,5.03053,1.74046,6.30534,0,0,3.26952,5
1774535847623,0.058592,0.899414,-0.561768,4.70992,1.56489,6.80916,0,0,3.24552,5
1774535847637,0.064941,0.901611,-0.564941,4.28244,0.610688,6,0,0,3.33081,5
1774535847650,0.0751946,0.908935,-0.556885,3.85496,-0.145037,5.20611,0,0,3.30335,5
1774535847663,0.0798337,0.888917,-0.568359,3.0687,-1.37404,3.31298,0,0,3.28457,5
1774535847677,0.0656748,0.888916,-0.555665,2.30534,-2.48855,2.53435,0,0,3.26765,5
1774535847690,0.0715328,0.878907,-0.560302,2.25191,-3.1145,0.938933,0,0,3.26035,5
1774535847704,0.0661625,0.86255,-0.567382,1.0458,-3.57252,0.503817,0,0,3.2742,5
1774535847717,0.0410174,0.880126,-0.571289,0.709924,-3.36641,0.534351,0,0,3.25015,5
1774535847730,0.0563954,0.897704,-0.556642,1.30534,-2.84733,0.167939,0,0,3.29776,5
1774535847744,0.0622554,0.875734,-0.568359,0.183207,-3.00763,-0.290076,0,0,3.26198,5
1774535847757,0.0654295,0.872071,-0.561768,0.167939,-3.17557,-1.06107,0,0,3.28116,5
1774535847771,0.0678709,0.880615,-0.562256,-0.473282,-3.76336,-1.83969,0,0,3.26642,5
1774535847784,0.0542002,0.882324,-0.56665,-1.19084,-3.92366,-2.58779,0,0,3.26105,5
1774535847797,0.0561522,0.869142,-0.569336,-1.83969,-4.45038,-3.30534,0,0,3.27142,5
1774535847811,0.0454109,0.889159,-0.565674,-2.19847,-4.42748,-3.12977,0,0,3.27935,5
1774535847824,0.045166,0.895751,-0.562988,-2.48092,-4.62595,-2.77863,0,0,3.27844,5
1774535847838,0.0407718,0.898437,-0.56543,-2.77863,-4.19084,-1.8397,0,0,3.25848,3
1774535847851,0.0356449,0.888917,-0.570068,-2.61832,-3.85496,-1.21374,0,0,3.41365,3
1774535847865,0.0539538,0.893798,-0.569824,-3.0229,-3.67176,-1.32824,0,0,3.26996,3
1774535847878,0.0451666,0.894531,-0.562501,-3.1374,-3.89313,-1.73282,0,0,3.31098,3
1774535847891,0.052978,0.908446,-0.563232,-2.92366,-4.33588,-2.53435,0,0,3.26596,3
1774535847905,0.0495608,0.901612,-0.567138,-2.36641,-4.9084,-2.93893,0,0,3.25066,3
1774535847918,0.0495605,0.908447,-0.560791,-2.34351,-5.35114,-3.1145,0,0,3.28959,3
1774535847932,0.0344249,0.912353,-0.56372,-1.87786,-5.50382,-2.96183,0,0,3.27774,3
1774535847945,0.0463859,0.899415,-0.559571,-1.9542,-5.18321,-2.30534,0,0,3.35948,3
1774535847959,0.0278333,0.901611,-0.565918,-1.59542,-4.8855,-1.40458,0,0,3.32683,3
1774535847972,0.019776,0.904297,-0.563721,-1.61832,-4.00763,0.0763344,0,0,3.37387,3
1774535847986,0.00805746,0.89917,-0.565185,-2.41985,-3.0916,1.20611,0,0,3.30778,3
1774535847999,0.0173333,0.886231,-0.570556,-2.94656,-2.19084,2.12214,0,0,3.27672,3
1774535848012,0.0356432,0.853762,-0.562012,-5.45038,-1.22901,2.22901,0,0,3.30431,3
1774535848026,0.0600569,0.86914,-0.562988,-5.35115,-1.0687,1.9313,0,0,3.28122,3
1774535848039,0.0595703,0.909421,-0.562012,-6.0458,-2.0687,0.44275,0,0,3.28715,3
1774535848053,0.0100132,0.935789,-0.578124,-5.47328,-1.63359,1.55725,0,0,3.28085,3
1774535848066,0.0419899,0.94873,-0.562257,-5,-1.61069,1.99237,0,0,3.33313,3
1774535848080,0.0903286,0.942872,-0.55542,-3.19084,-4.45801,-0.335876,0,0,3.2894,3
1774535848093,0.0781259,0.94165,-0.546143,-2.25954,-5.87023,-1.87786,0,0,3.27968,3
1774535848106,0.0664071,0.942627,-0.541748,0.0763335,-7.29771,-3.90076,0,0,3.28678,3
1774535848120,0.0778801,0.922365,-0.536133,2.21374,-8.71756,-5.62595,0,0,3.26367,3
1774535848133,0.0500508,0.889407,-0.550536,2.70229,-9.96946,-7.03053,0,0,3.26924,3
1774535848147,0.0986294,0.946041,-0.562987,5.25191,-14.3969,-8.50382,0,0,3.29292,3
1774535848160,0.365948,1.00219,-0.553223,9.1374,-27.6794,-2.8855,0,0,3.43361,3
1774535848174,1.55729,1.27269,-0.410166,13,-53.7023,58.2366,0,0,3.29815,3
1774535848187,1.37208,1.33032,-0.403565,6.9542,-118.58,102.71,0,0,3.30561,3
1774535848201,0.379708,0.943631,-0.364993,21.1298,-138.565,101.229,0,0,3.32039,3
1774535848215,0.00588554,0.956542,-0.452631,17.8855,-140.206,93.145,0,0,3.27452,3
1774535848228,-0.0473596,0.932619,-0.5061,19.7099,-134.107,87.1298,0,0,3.30005,3
1774535848241,0.0612717,0.963621,-0.49585,20.2214,-130.908,83.8397,0,0,3.27685,3
1774535848257,0.215809,0.966553,-0.566401,16.6107,-134.221,83.855,0,0,4.94389,3
1774535848270,0.236571,0.829111,-0.55713,17.9237,-139.916,90.2137,0,0,3.30337,3
1774535848285,0.216798,0.841308,-0.647699,15.4198,-142.74,101.656,0,0,4.54673,3
1774535848298,0.195558,0.768072,-0.636231,10.626,-138.802,116.191,0,0,3.29357,3
1774535848313,0.0886305,0.620616,-0.614748,0.938941,-128.908,117.16,0,0,4.80651,3
1774535848327,-0.0541892,0.656248,-0.629638,-15.542,-111.267,111.053,0,0,3.34972,3
1774535848340,-0.133783,0.807362,-0.660398,-21.6412,-91.5573,101.641,0,0,3.30239,3
1774535848354,-0.208491,0.901849,-0.705319,-17.8244,-70.8244,91.8244,0,0,3.331,3
1774535848370,-0.227782,0.882814,-0.726805,-8.53436,-46.1298,73.0764,0,0,3.30594,3
1774535848384,-0.2063,0.783698,-0.692141,-5.8168,-28.9847,55.5725,0,0,3.27511,1
1774535848401,-0.156498,0.758058,-0.660647,-6.63359,-14.1832,41.5038,0,0,7.20619,1
1774535848414,-0.0400472,0.771483,-0.649659,-7.78626,-1.78627,29.458,0,0,3.27518,1
1774535848428,-0.0166032,0.778808,-0.63672,-8.74046,3.54961,23.2977,0,0,3.3007,1
1774535848441,-0.000733533,0.864008,-0.61963,-6.38168,5.87786,15.6107,0,0,3.27424,1
1774535848454,0.0104973,0.868164,-0.605714,-1.64886,6.09924,7.54199,0,0,3.29624,1
1774535848468,-0.0178203,0.879638,-0.547856,3.26717,7.26717,1.12978,0,0,3.30959,1
1774535848481,-0.0507789,0.885254,-0.524904,7.06106,9.64885,-3.43511,0,0,3.30427,1
1774535848495,-0.0773907,0.908934,-0.464848,11.6183,13.7939,-8.90076,0,0,3.30228,1
1774535848508,-0.06836,0.921142,-0.427737,16.4733,18.6565,-15.2214,0,0,3.28727,1
1774535848521,-0.965513,0.723158,-0.16286,-13.2977,7.09161,-124.611,0,0,3.27479,1
1774535848535,0.187419,1.14011,-0.323963,-16.687,4.16794,-87.4657,0,0,3.26644,1
1774535848548,0.133793,0.8301,-0.180186,-25.4656,-2.48091,-84.7863,0,0,3.24987,1
1774535848562,0.273916,0.978505,-0.280511,-48.9465,-10.4351,-71.4809,0,0,3.24842,5
1774535848575,0.349604,1.23192,-0.384026,-36.916,-21.6488,-44.6489,0,0,3.27307,5
1774535848588,0.085956,1.14014,-0.613753,-32.2214,-27.5572,-40.3588,0,0,3.24759,5
1774535848602,-0.134262,0.841574,-0.584963,-30.1679,-20.2595,-37.6794,0,0,3.25696,5
1774535848615,-0.0554254,0.950432,-0.576661,-32.2901,-12.8702,-29.0229,0,0,3.23626,5
1774535848628,-0.0224632,1.30613,-0.545656,-9.64124,-14.855,-14.0687,0,0,3.25379,5
1774535848642,0.00976337,1.11281,-0.514406,-6.15268,-6.8626,-9.51909,0,0,3.24087,5
1774535848655,-0.0288059,0.994149,-0.547849,-2.07634,-3.06871,-5.52672,0,0,3.27135,5
1774535848673,0.0187955,0.946292,-0.54541,-1.24428,-0.977101,0.152666,0,0,3.95808,5
1774535848686,0.0275873,0.930909,-0.538086,0.160304,0.290075,1.69465,0,0,3.34055,3
1774535848700,0.0102551,0.937011,-0.535156,0.72519,1.77099,3.48855,0,0,3.29602,3
1774535848714,0.00195371,0.922853,-0.537597,0.931298,3.65649,6.58778,0,0,3.82097,3
1774535848727,0.0117181,0.932861,-0.55371,0.938931,4.12214,8.64885,0,0,3.28339,3
1774535848740,0.0424783,0.901125,-0.530031,1.62595,5.35878,8.9771,0,0,3.25702,3
1774535848754,0.0432128,0.894532,-0.537841,1.10687,5.46565,8.48855,0,0,3.27459,3
1774535848768,0.0852021,0.877687,-0.531495,-0.251907,4.03817,6.29008,0,0,3.64187,3
1774535848781,0.0922847,0.883789,-0.526856,-1.67939,2.87786,3.48092,0,0,3.28783,3
1774535848794,0.105956,0.89453,-0.526123,-2.22901,0.664124,-0.274805,0,0,3.262,3
1774535848808,0.0974127,0.895752,-0.519288,-2.06107,-1.0229,-3.53435,0,0,3.29813,3
1774535848821,0.077394,0.90747,-0.52417,-2.70229,-2.76336,-6.35878,0,0,3.45052,3
1774535848835,0.0661629,0.909424,-0.52832,-3.1374,-3.54962,-8.14504,0,0,3.65841,5
1774535848848,0.0417498,0.905274,-0.536865,-3.05344,-4.38931,-8.42748,0,0,3.28507,5
1774535848862,0.0410157,0.907226,-0.542968,-3.38931,-4.83969,-8.18321,0,0,3.27465,5
1774535848875,0.0166033,0.919433,-0.53418,-2.8397,-4.64122,-6.32825,0,0,3.29652,5
1774535848889,0.0205075,0.919678,-0.527588,-2.52672,-3.70992,-4.90076,0,0,3.26309,5
1774535848902,0.0222167,0.922851,-0.529785,-1.68702,-2.99237,-3.67176,0,0,3.27644,5
1774535848915,0.0224609,0.926025,-0.536865,-1.31298,-2.0916,-2.32825,0,0,3.28568,5
1774535848929,0.030517,0.930908,-0.530762,-0.832062,-1.16794,-1.30534,0,0,3.71254,5
1774535848943,0.0229497,0.917237,-0.530029,-0.221375,-0.389314,-0.610688,0,0,3.26279,3
1774535848956,0.0180667,0.91211,-0.528565,-0.381679,0.709923,0.526716,0,0,3.26072,3
1774535848969,0.0341786,0.916259,-0.529785,-0.312977,1.12977,0.389313,0,0,3.43965,3
1774535848983,0.0336914,0.903809,-0.516358,-0.664122,1.0458,0.343511,0,0,3.28422,3
1774535848996,0.0263677,0.896241,-0.537596,-1.56488,-0.442747,0.351145,0,0,3.33733,3
1774535849010,0.0468736,0.89502,-0.535645,-1.28244,-0.145038,-0.900762,0,0,3.27524,3
1774535849024,0.0454103,0.923826,-0.527833,-1.81679,-1.16794,-2.19084,0,0,3.8063,3
1774535849037,0.03711,0.92041,-0.528564,-2.06107,-1.73282,-2.53435,0,0,3.26764,3
1774535849050,0.0385741,0.908936,-0.532959,-2.38931,-2.09924,-2.58779,0,0,3.30468,3
1774535849064,0.0410155,0.915771,-0.527832,-2.09924,-2.38931,-3.26717,0,0,3.27826,3
1774535849077,0.0275888,0.914307,-0.527832,-2.0687,-2.40458,-2.99237,0,0,3.27461,3
1774535849091,0.029785,0.911865,-0.522705,-2.14504,-2.09924,-2.14504,0,0,3.28788,3
1774535849104,0.0166025,0.923583,-0.519043,-1.51145,-1.37405,-1.59542,0,0,3.30976,3
1774535849117,0.0119632,0.923828,-0.526123,-0.885497,-0.740459,-0.442749,0,0,3.30511,3
1774535849131,0.01416,0.937743,-0.518067,-0.19084,-0.129772,0.564884,0,0,3.30361,3
1774535849144,0.0353989,0.927979,-0.529296,0.625953,0.381679,0.778626,0,0,3.61656,3
1774535849158,0.0239266,0.932861,-0.534423,1.33588,0.503817,1.05343,0,0,3.27831,5
1774535849172,0.0353996,0.926026,-0.524415,2.29008,0.900763,0.885496,0,0,3.6032,5
1774535849187,0.0271002,0.921143,-0.528076,2.46565,0.48855,0.969466,0,0,3.34333,5
1774535849201,0.0412588,0.911866,-0.524414,2.63359,0.496183,1.24427,0,0,3.37254,5
1774535849214,0.0351567,0.917968,-0.520508,2.45802,-0.099236,1.00763,0,0,3.53235,5
1774535849228,0.0290532,0.91626,-0.525146,2.8855,-0.961831,0.824428,0,0,3.25001,5
1774535849241,0.0319822,0.90503,-0.530517,2.36641,-1.45038,1.1145,0,0,3.24837,5
1774535849254,0.0300294,0.908447,-0.534912,2.16031,-1.46565,1.25954,0,0,3.24511,5
1774535849268,0.0270998,0.918945,-0.528809,1.75573,-0.916031,1.84733,0,0,3.23416,5
1774535849281,0.0363763,0.911377,-0.52832,1.9313,-0.946565,1.31298,0,0,3.34896,5
1774535849295,0.0346681,0.904297,-0.535156,1.48092,-0.839695,1.0229,0,0,3.24033,5
1774535849308,0.0263678,0.909668,-0.531494,1.29771,-0.603054,1.08397,0,0,3.26665,5
1774535849321,0.0314938,0.900391,-0.534424,0.549619,-0.664122,1.14504,0,0,3.23601,5
1774535849336,0.0397943,0.902832,-0.526368,0.00763413,-0.580153,0.89313,0,0,4.47732,5
1774535849350,0.0390626,0.912597,-0.535156,-0.152672,-1.14504,-0.137404,0,0,3.32131,5
1774535849364,0.036133,0.917968,-0.539062,-0.290076,-1.42748,-0.740457,0,0,3.68465,5
1774535849377,0.0339357,0.916992,-0.527345,-0.137405,-2.06107,-1.1145,0,0,3.33064,5
1774535849391,0.0271001,0.919189,-0.527588,-0.442748,-1.87786,-0.954199,0,0,3.30087,5
1774535849404,0.0305173,0.916748,-0.532226,-0.0916034,-1.94656,-0.770993,0,0,3.32039,5
1774535849417,0.0251469,0.91748,-0.533447,-0.198473,-1.77863,-0.404581,0,0,3.25777,5
1774535849432,0.022217,0.918945,-0.537597,-0.0458017,-1.61069,0.083969,0,0,3.94825,5
1774535849445,0.0202638,0.927001,-0.53418,0.0839693,-1.25954,0.801526,0,0,3.24253,5
1774535849458,0.0332022,0.91919,-0.53418,0.29771,-1.29771,1.45801,0,0,3.2765,5
1774535849472,0.0200205,0.913575,-0.541259,0.549618,-0.9771,2.63359,0,0,3.27409,5
1774535849485,0.0302727,0.914307,-0.531739,0.824427,-1.06107,2.89313,0,0,3.28948,5
1774535849499,0.0336912,0.919433,-0.533447,0.603054,-1.32061,3.12977,0,0,3.28616,5
1774535849512,0.0412592,0.921631,-0.53003,1.07634,-1.68702,2.93893,0,0,3.25487,5
1774535849525,0.0354008,0.916748,-0.530273,1.39695,-2.05343,2.64122,0,0,3.27602,3
1774535849539,0.040527,0.918701,-0.525147,2.1603,-1.93893,2.32824,0,0,3.25196,3
1774535849552,0.0256358,0.916504,-0.534911,2.58015,-1.77863,2.21374,0,0,3.27079,3
1774535849565,0.0297849,0.925781,-0.530518,3.08397,-1.57252,2.70229,0,0,3.27163,3
1774535849579,0.0302734,0.916749,-0.523194,3.25191,-1.44275,3.19847,0,0,3.40691,3
1774535849592,0.0207526,0.905274,-0.537841,3.32061,-1.17557,3.51145,0,0,3.27133,5
1774535849606,0.0334464,0.916503,-0.532959,3.79389,-1.15267,3.42748,0,0,3.25388,5
1774535849619,0.032959,0.904054,-0.544433,3.89313,-1.36641,3.05344,0,0,3.2795,5
1774535849633,0.0424798,0.913818,-0.541992,4.28244,-1.12214,2.96947,0,0,3.2592,5
1774535849646,0.0373539,0.906006,-0.537354,4.43511,-1.16794,2.69466,0,0,3.30214,5
1774535849659,0.0373535,0.911865,-0.536621,4.91603,-0.809161,2.47328,0,0,3.26139,5
1774535849673,0.0317387,0.908203,-0.545165,4.64122,-0.564886,2.26718,0,0,3.59702,5
1774535849687,0.0273441,0.918456,-0.538331,4.9084,-0.167939,2.63359,0,0,3.35163,5
1774535849700,0.0429677,0.905274,-0.548339,4.8855,-0.21374,2.45802,0,0,3.34035,5
1774535849714,0.0285655,0.913574,-0.547363,4.75573,-0.0534353,2.87786,0,0,3.27089,5
1774535849727,0.0378411,0.888429,-0.543213,4.49618,-0.305343,2.38168,0,0,3.26003,5
1774535849740,0.044189,0.904052,-0.545166,4.54198,-0.450382,2.05344,0,0,3.29007,5
1774535849754,0.0561515,0.909179,-0.551025,4.38168,-0.923664,1.21374,0,0,3.27192,5
1774535849767,0.0341812,0.892091,-0.550781,4.28244,-0.961832,1.63359,0,0,3.2762,5
1774535849781,0.04663,0.896728,-0.546143,4.43511,-1.06107,1.08397,0,0,3.29948,5
1774535849794,0.042969,0.912841,-0.557861,4.64122,-0.992366,0.946565,0,0,3.31622,5
1774535849811,0.0463865,0.908692,-0.561523,5.28244,-1.92366,0.0916039,0,0,6.83322,5
1774535849825,0.0642077,0.89795,-0.552979,5.37405,-2.09924,-1.15267,0,0,3.59837,5
1774535849838,0.064209,0.906494,-0.549317,5.96183,-2.31298,-2.41221,0,0,3.28481,5
1774535849853,0.0751945,0.911621,-0.539796,6.92366,-3.46565,-4.42748,0,0,4.74927,5
1774535849866,0.0329619,0.9021,-0.550536,7.1374,-3.54198,-4.49618,0,0,3.27933,5
1774535849880,0.00390828,0.907959,-0.55249,7.15267,-2.81679,-3.25954,0,0,3.27361,5
1774535849893,0.00707986,0.892091,-0.562743,6.55725,-2.03817,-1.57252,0,0,3.30414,5
1774535849907,-0.0141587,0.896728,-0.56665,5.9084,-0.320612,1.77862,0,0,3.26218,5
1774535849921,0.000243133,0.910644,-0.570312,5.38931,0.664121,4.1832,0,0,3.29094,5
1774535849934,0.0200181,0.906494,-0.566651,5.76336,1.37405,5.45038,0,0,3.27498,5
1774535849948,0.0236814,0.913085,-0.572021,6.16794,2.09924,6.72519,0,0,3.24764,5
1774535849962,0.044188,0.926024,-0.567139,7.30534,1.77099,6.49618,0,0,3.28776,5
1774535849975,0.0419923,0.917481,-0.573242,8.75572,1.58779,6.43511,0,0,3.25109,5
1774535849988,0.0539542,0.888918,-0.563965,9.18321,1.56489,5.83206,0,0,3.29353,5
1774535850002,0.0393077,0.907714,-0.566894,10.2214,1.94656,6.21374,0,0,3.25951,5
1774535850015,0.0317388,0.927489,-0.573242,10.8397,1.40458,6.71756,0,0,3.28611,5
1774535850029,0.0437003,0.909181,-0.570313,11.2824,1.17557,6.89313,0,0,3.278,5
1774535850043,0.0415041,0.953854,-0.585448,12.458,0.48855,9.90076,0,0,3.66196,5
1774535850056,0.0576161,0.981199,-0.587402,14.7481,0.259542,12.1298,0,0,3.27324,5
1774535850070,0.11523,1.00732,-0.604979,17.374,-1.83206,13.8092,0,0,3.25335,5
1774535850083,0.0627478,1.04443,-0.622801,29.4733,-0.14504,15.1527,0,0,3.28524,5
1774535850097,0.0654295,1.04492,-0.658201,33.9008,0.0458013,11.4809,0,0,3.29051,5
1774535850110,0.032473,1.13476,-0.614993,44.3511,1.0458,20.2443,0,0,3.30444,5
1774535850124,0.128655,1.18188,-0.598634,54.4733,0.0992376,27.7175,0,0,3.26281,5
1774535850137,0.154051,1.34398,-0.675288,66.9466,-3.1374,17.8321,0,0,3.30772,5
1774535850150,0.111087,1.61082,-0.719968,93.9847,-4.76336,10.0153,0,0,3.27324,5
1774535850164,0.110352,1.38771,-0.64649,115.114,-8.51908,9.38168,0,0,3.25511,5
1774535850177,0.124511,1.28419,-0.649658,132.221,-10.2672,2.7939,0,0,3.28,5
1774535850191,0.148436,1.57298,-0.671873,151.977,-13.5038,0.00763637,0,0,3.27238,5
1774535850204,0.1853,1.72606,-0.686522,182.84,-18.1069,-1.48091,0,0,3.31916,5
1774535850218,0.153078,1.54103,-0.685303,212.55,-20.1985,-4.80152,0,0,3.31051,5
1774535850232,0.145997,1.68432,-0.692871,236.107,-22.7481,-5.33588,0,0,3.28166,5
1774535850245,0.0991244,1.92528,-0.697265,250.13,-23.5496,-9.51908,0,0,3.31148,5
1774535850259,0.120848,1.96289,-0.655521,250.13,-25.2977,-11.2901,0,0,3.28716,5
1774535850276,0.16528,1.57522,-0.719234,250.13,-31.0611,-20.9237,0,0,3.33068,5
1774535850290,0.499732,1.42897,-0.699708,250.13,-36.5496,-9.45803,0,0,3.29494,5
1774535850303,0.482667,1.30518,-0.837149,250.13,-50.4962,-8.08397,0,0,3.30614,5
1774535850316,0.284438,0.630174,-0.910395,250.13,-44.8626,-11.9771,0,0,3.28248,3
1774535850330,0.517074,0.712641,-0.687271,250.13,-47.8931,2.3664,0,0,3.80982,3
1774535850344,0.537352,0.32864,-0.520275,250.13,-63.2137,0.320613,0,0,3.25544,3
1774535850357,0.536865,0.565413,-0.295914,250.13,-81.6717,-22.4733,0,0,3.28548,3
1774535850371,0.384532,1.19991,-0.40258,250.13,-103.122,-70.0152,0,0,3.82796,3
1774535850385,0.38208,-1.41486,-0.414794,250.13,-99.9542,-89.0305,0,0,3.99908,3
1774535850399,-0.0815105,-0.907506,-0.184342,230.886,-79.1222,-59.7863,0,0,3.27514,3
1774535850412,-0.134274,-0.74757,-0.0935122,163.466,-44.2061,-31.5344,0,0,3.26607,3
1774535850425,-0.12378,-1.10813,0.138656,74.7405,-16.3893,5.17554,0,0,3.27144,3
1774535850439,-0.0744663,-0.890884,0.103274,-9.17549,0.083953,30.7175,0,0,3.24646,3
1774535850453,-0.162347,-0.302043,-0.0717651,-72.3969,10.7557,48.832,0,0,3.28929,3
1774535850467,-0.188231,-0.112562,-0.146235,-108.137,12.5114,46.8168,0,0,3.23466,3
1774535850481,-0.178712,-0.239249,-0.140137,-145.374,2.32062,17.626,0,0,4.31256,3
1774535850498,-0.239254,-0.466049,-0.0512758,-217.244,-15.4656,-24.145,0,0,3.27025,3
1774535850513,-0.224855,-0.611074,0.10619,-250.137,-31.2519,-50.1908,0,0,4.6407,3
1774535850526,-0.151861,-0.37819,0.207268,-250.137,-40.3664,-48.7252,0,0,3.26562,3
1774535850540,-0.142823,0.304151,0.0932697,-250.137,-36.5115,-7.00768,0,0,3.96734,3
1774535850554,-0.153808,0.827844,-0.0746953,-250.137,-21.3054,50.9541,0,0,3.2915,3
1774535850567,-0.282218,1.09739,-0.27855,-250.137,6.33585,103.405,0,0,3.24701,3
1774535850580,-0.442616,1.19579,-0.474107,-250.137,38.5267,124.336,0,0,3.27138,3
1774535850594,-0.581289,1.27075,-0.648914,-250.137,70.061,94.4046,0,0,3.27681,2
1774535850609,-0.598632,1.11134,-0.704098,-250.137,94.061,19.2291,0,0,4.82551,5
1774535850622,-0.307149,1.10132,-0.703369,-250.137,105.641,-46.5572,0,0,3.25122,5
1774535850636,-0.0449402,1.25878,-0.763179,-250.137,109.534,-67.3664,0,0,3.27192,5
1774535850649,0.173325,1.18726,-0.714115,-250.137,114.389,-41.2443,0,0,3.26726,5
1774535850663,0.322499,1.17114,-0.677249,-250.137,115.359,-3.95424,0,0,3.86537,5
1774535850676,0.34204,1.23315,-0.656496,-250.137,109.046,14.3893,0,0,3.2857,5
1774535850690,0.312258,1.26391,-0.642335,-250.137,97.5038,6.16031,0,0,3.27244,5
1774535850703,0.270999,1.41967,-0.693356,-250.137,82.8397,-5.78625,0,0,3.27913,5
1774535850716,0.335933,1.46484,-0.774897,-250.137,66.7863,-13.4427,0,0,3.29572,5
1774535850730,0.430413,1.43897,-0.807371,-250.137,47.1909,-10.4886,0,0,3.90069,5
1774535850744,0.528802,1.4812,-0.843747,-250.137,26.2748,-1.31299,0,0,3.26955,5
1774535850757,0.560789,1.46289,-0.842285,-250.137,2.70231,6.91602,0,0,3.2812,5
1774535850771,0.499028,1.50927,-0.892819,-242.076,-18.5572,14.2443,0,0,3.2869,5
1774535850784,0.470217,1.43067,-0.889649,-232.542,-36.1145,18.603,0,0,3.24263,5
1774535850797,0.42432,1.37647,-0.930905,-222.244,-49.8397,26.4809,0,0,3.26874,5
1774535850811,0.280039,1.27491,-0.941161,-210.504,-57.7023,36.8931,0,0,3.23496,5
1774535850824,0.0986455,1.39916,-1.05029,-186.489,-58.2137,49.7633,0,0,3.26561,5
1774535850837,-0.269505,1.38989,-1.21239,-150.824,-48.8626,58.4656,0,0,3.24692,3
1774535850851,-0.5471,1.10988,-1.23608,-120.298,-37.5267,33.0611,0,0,3.25235,3
1774535850864,-0.584958,1.0979,-1.30737,-87.1985,-27.687,-9.71751,0,0,3.2559,3
1774535850877,-0.430919,1.1538,-1.37963,-42.2138,-21.4886,-32.0381,0,0,3.28694,3
1774535850891,-0.263684,1.00367,-1.28297,-1.02294,-17.4275,-32.1985,0,0,3.27968,3
1774535850904,-0.209965,0.928472,-1.10011,28.1603,-14.916,-28.7023,0,0,3.38681,3
1774535850918,-0.233153,0.883792,-0.882095,46.5649,-11.6183,-30.0916,0,0,3.26174,3
1774535850931,-0.277829,0.88916,-0.724376,58.4962,-5.17558,-34.2901,0,0,3.2629,3
1774535850944,3.99958,3.99966,0.238946,54.6031,-47.4503,87.206,0,0,3.26079,3
1774535850958,1.49187,-0.090534,0.105234,98.5343,-21.9008,48.0458,0,0,3.2705,3
1774535850971,0.715875,0.622753,0.0559117,186.725,-24.8473,-8.6259,0,0,3.26311,3
1774535850985,-0.031686,1.09518,-0.12694,199.969,-9.4962,-14.2977,0,0,3.26418,3
1774535850998,0.233624,1.36668,-0.083255,199.664,1.38167,-23.5038,0,0,3.26288,3
1774535851011,0.186283,1.12795,-0.21752,191.076,-6.90839,-35.4809,0,0,3.27481,3
1774535851025,-0.0273288,1.02613,-0.282222,177.947,-6.89313,-27.2672,0,0,3.77276,3
1774535851040,0.0207486,0.944586,-0.364008,165.023,-10.5267,-20.9313,0,0,4.7901,3
1774535851054,0.0468732,0.873296,-0.412838,152.58,-14.3435,-21.8626,0,0,3.37757,3
1774535851068,-0.129382,0.810795,-0.518547,123.855,-8.43512,-4.72521,0,0,3.91507,3
1774535851081,-0.0278391,0.87646,-0.526855,104.992,-6.70229,4.16793,0,0,3.27122,3
1774535851095,-0.0805627,0.873535,-0.58276,88.4962,-1.56489,14.0382,0,0,3.26159,3
1774535851108,-0.103758,0.830081,-0.56714,76.1145,4.17557,19.8626,0,0,3.2759,3
1774535851121,0.0466203,0.830078,-0.562256,62.6107,5.70229,17.3053,0,0,3.26624,3
1774535851135,0.140374,0.898921,-0.621822,38.5954,7.89313,11.4809,0,0,3.27981,3
1774535851149,0.0737351,0.825445,-0.548345,32.2901,8.9542,5.54962,0,0,3.25075,3
1774535851164,0.0959457,0.890376,-0.500736,28.5038,7.0916,-1.51144,0,0,4.74664,3
1774535851177,0.063723,0.902831,-0.52368,26.8397,2.48092,-5.72519,0,0,3.25544,3
1774535851191,0.0751945,0.91455,-0.492434,29.0611,1.32061,-10.1069,0,0,3.89617,5
1774535851204,0.0747071,0.862064,-0.508788,28.3053,-2.19847,-12.3588,0,0,3.27411,5
1774535851218,0.0903309,0.609881,-0.617424,17.5115,-5.08397,-14.0458,0,0,3.24666,5
1774535851232,-0.0439359,0.898661,-0.546636,17.5038,-3.80916,-10.0382,0,0,3.31587,5
1774535851246,-0.0456542,0.96606,-0.55664,14.1985,-3.79389,-8.53435,0,0,3.28303,5
1774535851259,-0.0139182,0.950441,-0.549561,13.5115,-2.54199,-3.771,0,0,3.28579,5
1774535851272,0.00781098,0.915286,-0.544434,12.9466,-0.961834,-1.50382,0,0,3.25146,5
1774535851286,-0.00170832,0.916016,-0.543457,13.2519,1.10687,1.12213,0,0,3.2732,5
1774535851299,0.0405244,0.903809,-0.549072,13.5344,2.08397,1.36641,0,0,3.40148,5
1774535851313,0.0058618,0.92285,-0.565917,12.6565,3.67939,3.19847,0,0,3.25642,5
1774535851328,0.0515105,0.888674,-0.549806,10.8702,2.85496,1.8168,0,0,3.30901,5
1774535851341,0.0295426,0.875001,-0.556884,9.74809,1.35115,1.12977,0,0,3.25414,5
1774535851355,0.025635,0.926022,-0.561523,9.09924,0.564886,1.23664,0,0,3.30309,5
1774535851370,0.0224612,0.90381,-0.56958,8.34351,-1.10687,2.32824,0,0,3.25996,5
1774535851384,0.0190432,0.898438,-0.58081,7.59542,-0.824428,3.50382,0,0,3.28522,5
1774535851397,-0.00707825,0.933835,-0.572999,7.96947,-0.282443,4.68702,0,0,3.30075,5
1774535851410,0.0100086,0.903811,-0.565186,7.35878,-0.267176,4.68702,0,0,3.34366,5
1774535851424,0.0280749,0.907226,-0.566406,6.87786,0.0763355,5.54198,0,0,3.28088,5
1774535851437,0.0585916,0.905029,-0.557618,7.23664,-0.305343,4.35115,0,0,3.2749,5
1774535851451,0.0366226,0.896729,-0.567382,7.18321,-0.496183,2.98473,0,0,3.24518,5
1774535851464,0.0676248,0.867922,-0.568848,7.32061,-2.25191,0.0839724,0,0,3.24961,5
1774535851477,0.0229523,0.891356,-0.561768,6.8397,-2.48092,-0.442748,0,0,3.24624,5
1774535851491,0.0410144,0.889404,-0.565429,7.03053,-3.23664,-0.91603,0,0,3.23892,5
1774535851504,0.0327154,0.880372,-0.574706,6.96947,-3.51145,-1.28244,0,0,3.29529,5
1774535851517,0.0292971,0.909178,-0.569825,7.22137,-3.34351,-1.0458,0,0,3.25501,5
1774535851531,0.0158701,0.893312,-0.584716,7.17557,-2.9313,-0.114505,0,0,3.24381,5
1774535851544,0.0336902,0.902831,-0.580567,7.56489,-3.48092,-0.679389,0,0,3.59863,5
1774535851558,0.011232,0.879396,-0.574952,6.42748,-3.8855,-0.0839701,0,0,3.24848,5
1774535851571,0.0095216,0.876953,-0.59619,6.09924,-2.0229,1.83206,0,0,3.36044,5
1774535851584,0.00488314,0.875733,-0.587159,5.22137,-1.45038,3.17557,0,0,3.23249,5
1774535851598,0.0183096,0.908201,-0.584229,5.32061,-1.78626,4.07633,0,0,3.26498,5
1774535851611,0.00293076,0.900879,-0.580567,7.70229,-0.946566,4.87786,0,0,3.26244,5
1774535851624,0.0812933,0.916503,-0.583252,8.06107,-2.45801,2.78626,0,0,3.29637,5
1774535851638,0.0722663,0.890139,-0.585449,9.74809,-4.56488,0.534353,0,0,3.2637,5
1774535851651,0.045412,0.884278,-0.591796,9.77099,-5.37404,0.862595,0,0,3.2424,5
1774535851665,0.0263685,0.94897,-0.59375,11.7328,-6.0916,-0.488548,0,0,3.26546,3
1774535851678,0.0256348,0.922121,-0.593262,11.4427,-6.19847,3.15267,0,0,3.23724,3
1774535851691,0.0473618,1.01122,-0.590332,19.0305,-5.67176,1.30535,0,0,3.29135,3
1774535851705,0.0129419,1.07324,-0.636227,20.2443,-4.9771,9.35877,0,0,3.51698,3
1774535851718,-0.0705508,1.2285,-0.672361,27.6412,-4.63359,11.4733,0,0,3.25874,3
1774535851732,0.047355,1.09107,-0.658936,44.4351,2.26717,24.6107,0,0,3.2712,3
1774535851749,0.0129419,1.20141,-0.672606,51.4656,1.0458,29.7939,0,0,4.60143,3
1774535851762,-0.0925219,1.23706,-0.683105,65,3.93893,25.771,0,0,3.28557,5
1774535851776,-0.130857,1.2666,-0.681152,85.0839,7.93893,24.8855,0,0,3.2915,5
1774535851789,-0.106691,1.21924,-0.692382,99.9695,12.9466,30.0458,0,0,3.29198,5
1774535851802,0.0375876,1.14478,-0.654544,113.466,14.145,27.2901,0,0,3.25296,5
1774535851816,0.106685,1.15869,-0.622561,126.695,11.5725,24.7481,0,0,3.27807,5
1774535851829,0.145993,1.2561,-0.675045,139.542,6.96184,20.6336,0,0,3.2502,5
1774535851842,0.17285,1.36645,-0.712888,157.672,2.57252,20.2214,0,0,3.31537,5
1774535851856,0.250971,1.47118,-0.72412,181.702,-4.40457,14.3893,0,0,3.28044,5
1774535851869,0.397451,1.5271,-0.727783,205.122,-16.2366,5.20612,0,0,3.29148,5
1774535851883,0.374269,1.56299,-0.774411,226.878,-27.6946,-2.57251,0,0,3.26275,5
1774535851896,0.319828,1.78294,-0.803953,250.13,-39.4046,-8.26717,0,0,3.24662,5
1774535851912,0.305177,1.66749,-0.835203,250.13,-48.7557,-14.855,0,0,3.36157,5
1774535851926,0.316161,1.65479,-0.943596,250.13,-52.2901,-9.8168,0,0,3.2642,5
1774535851939,0.433341,1.24148,-0.918215,250.13,-54.3588,14.9618,0,0,3.47685,5
1774535851953,0.0913325,1.54246,-1.12425,250.13,-53.4427,12.0229,0,0,3.25542,5
1774535851966,0.414528,1.71215,-1.02491,250.13,-48.0534,36.1145,0,0,3.33157,5
1774535851979,0.36182,1.73804,-0.754413,250.13,-48.7023,92.3206,0,0,3.26537,5
1774535851993,0.307621,1.61329,-0.416528,250.13,-60.2366,99.5191,0,0,3.29605,5
1774535852007,0.0549493,1.61426,0.566337,250.13,-77.1527,59.6642,0,0,3.55394,5
1774535852020,-0.1411,-3.59509,0.089633,220.191,-65.8855,4.82448,0,0,3.24588,5
1774535852033,-0.634975,-1.48916,0.353497,47.0536,-45.3435,-2.85495,0,0,3.26609,5
1774535852047,-0.478771,-0.0091368,-0.28975,-47.2747,0.0228554,0.0686994,0,0,3.25064,5
1774535852060,-0.302258,0.440398,-0.136485,-83.3435,29.5572,10.5038,0,0,3.28988,3
1774535852073,-0.132336,0.353278,-0.0737349,-108.168,40.4351,22.3282,0,0,3.37535,3
1774535852087,-0.185299,0.209483,-0.0131878,-133.305,47.0305,33.7862,0,0,3.26698,3
1774535852100,-0.19165,0.0634868,0.131338,-167.916,50.0687,29.7176,0,0,3.27857,1
1774535852114,-0.169191,0.0261257,0.186275,-209.237,50.6947,18.7099,0,0,3.26986,1
1774535852127,-0.0905817,0.0974071,0.252193,-250.137,44.1298,9.53436,0,0,3.26657,1
1774535852140,-0.0288129,0.416482,0.207034,-250.137,35.7939,11.1603,0,0,3.27635,1
1774535852154,0.0246545,0.612535,0.131109,-250.137,27.7786,20.3893,0,0,3.27227,1
1774535852167,-0.000974769,0.680903,0.0512751,-250.137,22.2137,32.0534,0,0,3.26277,1
1774535852181,-0.0742136,0.643313,0.00439781,-250.137,19.8779,36.8015,0,0,3.28814,1
1774535852194,-0.134761,0.674802,-0.0332005,-250.137,18.7023,25.7252,0,0,3.28614,5
1774535852207,-0.177731,0.850085,-0.115229,-250.137,18.8855,9.25192,0,0,3.28649,5
1774535852221,-0.173584,0.933832,-0.189204,-250.137,23.2595,-0.603044,0,0,3.28818,5
1774535852234,-0.156984,1.15404,-0.349354,-250.137,31.0382,0.83206,0,0,3.27318,5
1774535852248,-0.191648,1.23901,-0.452629,-250.137,42.1145,1.93893,0,0,3.27788,5
1774535852262,-0.275141,1.29736,-0.502682,-250.137,57.6488,-9.35113,0,0,3.3719,5
1774535852276,-0.229251,1.46117,-0.592279,-250.137,71.4046,-26.374,0,0,3.35249,5
1774535852289,-0.0996184,1.57983,-0.648189,-250.137,82.4504,-33.0305,0,0,3.36407,5
1774535852303,0.0681035,1.64135,-0.694577,-250.137,90.2214,-28.084,0,0,3.26429,5
1774535852316,0.214101,1.71752,-0.772455,-250.137,91.0305,-27.7557,0,0,3.4104,5
1774535852329,0.428452,1.87645,-0.919423,-250.137,79.8244,-32.7634,0,0,3.24657,5
1774535852343,0.599597,2.02611,-1.13475,-250.137,59.1222,-30.7481,0,0,3.26438,5
1774535852356,0.596192,1.97632,-1.22436,-250.137,35.9466,-23.2672,0,0,3.2554,5
1774535852370,0.583741,1.88526,-1.2749,-244.511,11.2825,-27.1221,0,0,3.29312,5
1774535852383,0.632321,1.70289,-1.28564,-220.008,-12.6641,-34.4122,0,0,3.26525,5
1774535852396,0.734856,1.41164,-1.27417,-206.718,-30.8626,-15.5038,0,0,3.31131,5
1774535852410,0.713625,1.43457,-1.40575,-187.275,-40.1069,32.4885,0,0,3.26494,5
1774535852425,0.390159,1.42017,-1.61668,-148.763,-37.0229,80.6259,0,0,4.7604,5
1774535852438,-0.251664,1.29713,-1.74218,-104.58,-20.542,85.2901,0,0,3.29129,5
1774535852452,-0.596411,0.983176,-1.74853,-64.9924,-0.465669,40.4657,0,0,3.26296,3
1774535852465,-0.414319,0.962404,-1.72876,-24.4428,9.67938,-21.4656,0,0,3.27951,3
1774535852478,0.0346365,1.00122,-1.65552,19.6946,9.81679,-38.9923,0,0,3.24796,3
1774535852492,0.303448,0.975344,-1.38088,54.4122,2.15268,-21.1603,0,0,3.31494,3
1774535852505,0.216071,0.93555,-0.999783,75.5649,-4.70992,-15.6107,0,0,3.25548,3
1774535852519,-1.7318,1.23899,0.770384,250.13,-25.603,-36.145,0,0,3.36707,3
1774535852532,-0.0445517,2.88489,0.0364283,197.634,-87.748,-77.374,0,0,3.26092,3
1774535852545,-0.0839816,0.120311,-0.0878819,205.412,-54.9924,-53.8092,0,0,3.25296,3
1774535852559,-0.362773,0.115479,-0.148433,212.412,-17.3588,-18.6031,0,0,3.27236,3
1774535852572,0.0297577,0.582731,-0.197262,212.656,-5.87787,-17.7939,0,0,3.25123,3
1774535852586,0.0668919,0.778795,-0.320792,198.977,-8.42748,-17.7099,0,0,3.30051,3
1774535852599,0.00708426,0.850093,-0.42553,178.786,-14.6488,-7.01528,0,0,3.2702,2
1774535852612,0.0446751,0.839844,-0.423828,156.71,-18.0305,-0.335885,0,0,3.28118,2
1774535852626,-0.0934962,0.751959,-0.514398,129.824,-10.5802,16.2137,0,0,3.27185,2
1774535852639,-0.0915529,0.850823,-0.513672,111.886,-0.0381785,27.4427,0,0,3.24485,2
1774535852653,-0.0517606,0.864989,-0.531981,98.9695,6.77862,34.084,0,0,3.26233,2
1774535852666,-0.0834939,0.828616,-0.501711,85.2214,15.2748,40.0611,0,0,3.25888,2
1774535852679,0.0817755,0.808839,-0.556881,71.6031,14.4886,34.9389,0,0,3.27607,2
1774535852693,0.1311,0.806153,-0.525149,56.7023,9.14504,27.313,0,0,3.25314,2
1774535852706,0.163572,0.769046,-0.514161,45.5191,9.10687,24.4733,0,0,3.30946,5
1774535852720,0.14795,0.819088,-0.521728,36.7939,5.80916,17.4809,0,0,3.30479,5
1774535852733,0.207515,0.822021,-0.529785,29.1985,1.42749,7.08398,0,0,3.24394,5
1774535852746,0.226073,0.812257,-0.562498,21.0534,-3.0916,-5.47327,0,0,3.26211,5
1774535852760,0.191165,0.887446,-0.554932,13.2748,-6.62595,-12.6336,0,0,3.24459,5
1774535852775,0.11231,0.881348,-0.549317,8.85497,-7.81679,-16.1603,0,0,5.14811,5
1774535852788,0.0827657,0.935787,-0.545899,7.64122,-6.74809,-16.5115,0,0,3.30877,5
1774535852802,0.0627455,0.96118,-0.540528,9.03053,-4.14504,-14.7023,0,0,3.30262,5
1774535852815,0.0637206,0.929446,-0.549072,9.98473,-2.8626,-13.6489,0,0,3.26833,5
1774535852829,0.0783681,0.90381,-0.525392,10.0534,-0.801529,-11.7786,0,0,3.56361,5
1774535852842,0.0737308,0.939451,-0.526367,10.5114,-1.1603,-10.8168,0,0,3.26866,5
1774535852856,0.074707,0.89307,-0.536132,9.28244,-1.27481,-10,0,0,3.25264,5
1774535852869,0.084472,0.921629,-0.533692,9.01527,-2.19084,-10.5496,0,0,3.27601,5
1774535852882,0.102538,0.908448,-0.527832,7.79389,-3.83969,-12.0076,0,0,3.25366,5
1774535852896,0.106201,0.893312,-0.521241,6.77099,-5.79389,-14.9695,0,0,3.37846,5
1774535852909,0.0778828,0.888916,-0.534667,6.73282,-6.77099,-16.6641,0,0,3.25046,5
1774535852923,0.0200236,0.895507,-0.54663,7.30534,-5.54199,-14.3282,0,0,3.32488,3
1774535852936,-0.0073223,0.910155,-0.545654,6.58779,-4.25954,-9.85497,0,0,3.42111,3
1774535852950,0.0134263,0.912842,-0.536866,7.0916,-2.49618,-5.99237,0,0,3.61707,3
1774535852963,0.0214838,0.900391,-0.544433,6.96183,-1.15267,-2.68703,0,0,3.27987,3
1774535852977,0.046385,0.911864,-0.546875,7.00763,-1.00763,-0.396949,0,0,3.25368,3
1774535852990,0.0622547,0.916992,-0.542481,6.24428,-1.31298,-0.534351,0,0,3.29346,3
1774535853003,0.0827622,0.898927,-0.548584,6.34351,-1.80916,-1.43511,0,0,3.25786,3
1774535853017,0.0764165,0.896729,-0.557128,6.00763,-2.51145,-3.28244,0,0,3.2799,3
1774535853030,0.0649422,0.905273,-0.546876,5.79389,-3.35878,-3.8855,0,0,3.27355,3
1774535853044,0.0417497,0.910644,-0.551025,5.64886,-2.65649,-2.8397,0,0,3.71046,3
1774535853057,0.0454099,0.901612,-0.542481,5.87023,-2.9084,-2.25191,0,0,3.27042,3
1774535853071,0.0502926,0.906982,-0.551513,5.87023,-3.0458,-2.51908,0,0,3.25031,3
1774535853084,0.0468752,0.898194,-0.550293,5.87786,-3.07634,-1.8397,0,0,3.27444,3
1774535853097,0.0588371,0.893555,-0.546631,6.19847,-3.39695,-2.33588,0,0,3.27436,3
1774535853111,0.0510259,0.891358,-0.554687,5.69466,-3.54962,-2.54198,0,0,3.34703,3
1774535853124,0.0419928,0.884766,-0.543214,5.05344,-3.87786,-2.46565,0,0,3.33405,3
1774535853138,0.023927,0.90161,-0.561522,4.66412,-3.96947,-1.67176,0,0,3.80441,5
1774535853152,0.0349113,0.908935,-0.55542,4.41985,-3.8855,-1.35878,0,0,3.26357,5
1774535853165,0.0380857,0.932616,-0.562744,5.89313,-3.72519,-1.51145,0,0,3.2404,5
1774535853178,0.0424802,0.929688,-0.56665,7.51908,-3.23664,-1.38931,0,0,3.27701,5
1774535853192,0.0327155,0.916017,-0.568603,8.22137,-2.22901,-0.137406,0,0,3.2477,5
1774535853205,0.0234381,0.934325,-0.562012,9.05343,-0.496185,1.56488,0,0,3.30512,5
1774535853219,0.0341789,0.930176,-0.583006,7.75573,-1.61069,3.70992,0,0,3.25431,3
1774535853232,0.0207529,0.854253,-0.577881,8.29771,1.84732,7.00763,0,0,3.31796,3
1774535853245,0.0595676,0.922114,-0.564454,8.24427,1.56489,8.34351,0,0,3.26305,3
1774535853259,0.0656734,0.926025,-0.541506,18.0916,-0.0228992,9.73282,0,0,3.56876,3
1774535853272,0.0742182,0.936279,-0.564696,19.2519,-3.86259,15.3359,0,0,3.27949,3
1774535853286,0.150141,1.5793,-0.634028,34.2061,-5.58778,14.9008,0,0,3.34516,3
1774535853299,-0.102521,1.97312,-0.710444,81.8625,3.40457,28.7481,0,0,3.3346,5
1774535853313,0.0414938,1.14337,-0.656986,84.8779,5.22901,59.7328,0,0,3.26925,5
1774535853326,-0.000241219,1.8664,-0.718257,114.191,-0.702284,18.9619,0,0,3.46677,5
1774535853340,0.0964288,1.56814,-0.609627,151.466,1.58778,32.1527,0,0,3.26614,5
1774535853354,0.099365,1.24734,-0.544438,171.214,-2.64885,21.4122,0,0,3.80002,5
1774535853367,0.149166,1.11793,-0.569822,180.374,-5.39694,14.6412,0,0,3.26996,5
1774535853380,0.130617,1.61007,-0.667474,198.137,-5.9084,15.0687,0,0,3.25086,5
1774535853394,0.28246,1.91038,-0.710446,235.114,-13.2366,10.7405,0,0,3.28436,5
1774535853407,0.45409,2.04076,-0.670657,250.13,-24.458,6.56489,0,0,3.25662,5
1774535853421,0.476317,2.18651,-0.691161,250.13,-38.8244,1.47329,0,0,3.29496,5
1774535853434,0.49951,2.26342,-0.641605,250.13,-52.4504,-4.93129,0,0,3.27192,5
1774535853447,0.281021,1.93142,-0.772452,250.13,-56.2748,-11.2901,0,0,3.32627,5
1774535853461,0.53758,1.59792,-0.620372,250.13,-57.1145,7.77097,0,0,3.27516,5
1774535853475,0.144315,1.94407,-0.906718,250.13,-64.3664,-17.9313,0,0,3.57255,5
1774535853488,0.346666,1.7422,-0.771006,250.13,-51.3206,13.7786,0,0,3.27457,5
1774535853501,0.363524,1.78369,-0.270055,250.13,-45.4733,86.0457,0,0,3.25468,5
1774535853515,0.382567,1.7312,0.150605,250.13,-50.1145,131.718,0,0,3.31999,5
1774535853528,0.462153,1.3262,1.37711,250.13,-80.0763,132.908,0,0,3.33362,5
1774535853542,0.127709,-3.48648,0.28865,250.13,-86.9924,80.2443,0,0,3.37846,3
1774535853555,-0.319305,-0.545616,0.10304,184.336,-92.1679,2.24435,0,0,3.29335,3
1774535853569,-0.581769,-0.463873,0.0376022,67.8856,-66.0916,-70.1602,0,0,3.86392,3
1774535853582,-0.602049,-0.668199,0.167227,-34.206,-33.6489,-101.198,0,0,3.30044,3
1774535853596,-0.30007,-0.772942,0.336658,-138.046,-8.80155,-113.092,0,0,3.31246,3
1774535853609,-0.0327336,-0.698003,0.50365,-240.359,3.20609,-99.9542,0,0,3.31151,3
1774535853623,0.114736,-0.0796331,0.465823,-250.137,9.49618,-51.5802,0,0,3.28927,3
1774535853636,0.165524,0.36325,0.353523,-250.137,21.7023,18.6946,0,0,3.34042,2
1774535853650,0.237788,0.406491,0.332277,-250.137,27.8321,71.7328,0,0,3.27568,2
1774535853663,0.218995,0.660627,0.237555,-250.137,28.4198,101.489,0,0,3.76572,2
1774535853677,0.0983971,1.00486,-0.00462172,-250.137,26.6412,100.191,0,0,3.29342,2
1774535853690,-0.0414941,0.944584,-0.0729933,-250.137,24.3588,84.4046,0,0,3.28083,2
1774535853704,-0.0998494,0.811289,-0.0437032,-250.137,20.1756,56.2825,0,0,3.29868,2
1774535853717,-0.0761735,1.0327,-0.134271,-250.137,20.8321,34.2214,0,0,3.27816,2
1774535853731,0.0217217,1.30369,-0.312488,-250.137,21.4122,40.0382,0,0,3.47652,2
1774535853744,-0.0913007,1.40966,-0.489245,-250.137,32.1756,59.3206,0,0,3.28103,2
1774535853758,-0.294175,1.40015,-0.558589,-250.137,54.2748,61.1298,0,0,3.35601,2
1774535853771,-0.442128,1.37403,-0.62939,-250.137,84.9542,38.2443,0,0,3.28346,5
1774535853785,-0.377934,1.57982,-0.713861,-250.137,115.16,7.24431,0,0,3.77542,5
1774535853798,-0.14235,1.94285,-0.889148,-250.137,136.374,-11.0687,0,0,3.33624,5
1774535853812,0.128643,1.89698,-0.925779,-250.137,144.802,-11.8855,0,0,3.29599,5
1774535853825,0.299304,1.7339,-0.877445,-250.137,145.16,-4.22902,0,0,3.32668,5
1774535853839,0.43212,1.76977,-0.935055,-250.137,137.298,-0.381683,0,0,3.29024,5
1774535853852,0.428955,1.80005,-1.0581,-250.137,124.29,10.1069,0,0,3.29172,5
1774535853865,0.418214,1.89257,-1.20824,-250.137,106.802,12.5954,0,0,3.29177,5
1774535853879,0.361088,1.91089,-1.37328,-236.412,80.8168,-6.29006,0,0,3.79785,5
1774535853893,0.42065,1.76344,-1.46801,-203.313,50.7023,-39.0076,0,0,3.28094,5
1774535853906,0.573476,1.79126,-1.67015,-158.26,22.8245,-51.3053,0,0,3.29368,5
1774535853920,0.675042,1.42752,-1.76537,-116.687,6.01528,-20.5496,0,0,3.29275,5
1774535853933,0.459488,1.19679,-1.88427,-84.4199,3.72519,33.1755,0,0,3.43666,5
1774535853947,3.21596e-05,1.15625,-1.92358,-43.0535,8.16793,43.1832,0,0,3.28853,5
1774535853960,-0.347876,1.09595,-1.88111,5.03049,16.6565,9.70232,0,0,3.33136,5
1774535853974,-0.286381,0.977303,-1.70485,45.9694,25.3435,-25.603,0,0,3.31049,5
1774535853987,0.0361102,1.02588,-1.46169,80.3435,29.3664,-31.8473,0,0,3.28918,5
1774535854001,0.261459,1.03809,-1.15432,108.542,28.5878,-21.2367,0,0,3.79018,5
1774535854014,0.324214,0.999026,-0.844992,125.275,24.626,-10.9008,0,0,3.29244,5
1774535854028,3.24784,3.99967,3.99954,46.252,-17.6793,43.3435,0,0,3.28934,5
1774535854041,1.4928,-2.12726,0.162134,92.916,6.37402,18.687,0,0,3.29873,5
1774535854055,0.808398,0.412664,0.321766,249.969,-21,-66.206,0,0,3.27518,5
1774535854068,-0.384926,1.39983,-0.272663,249.382,-23.916,-38.4962,0,0,3.35662,5
1774535854082,0.114955,1.4934,-0.129893,233.641,-19.1985,-22.4122,0,0,3.27781,5
1774535854095,0.229728,1.25539,-0.192623,226.107,-37.3893,-30.4885,0,0,3.74635,5
1774535854109,-0.155735,0.856473,-0.454572,199.939,-27.1679,-15.0076,0,0,3.28564,5
1774535854122,-0.0893601,0.754158,-0.510006,168.779,-14.4351,-1.64123,0,0,3.28283,3
1774535854136,0.172345,0.882315,-0.420905,149.74,-14.4504,-10.4733,0,0,3.33129,3
1774535854149,-0.0908019,0.850588,-0.504389,125.298,-7.07634,-3.12214,0,0,3.27584,3
1774535854163,-0.0207569,0.683117,-0.597894,100.733,-3.31298,5.32824,0,0,3.31542,3
1774535854176,-0.0131841,0.782708,-0.548587,77.8015,-0.702293,13.7939,0,0,3.27531,3
1774535854189,-0.0207514,0.873529,-0.497074,67.4504,2.05343,19.9618,0,0,3.3794,3
1774535854203,0.0734797,0.750741,-0.571772,57.4886,1.82443,16.1908,0,0,3.28368,3
1774535854217,0.08081,0.823969,-0.630123,42.2748,2.45038,13.4657,0,0,4.13233,3
1774535854231,0.0952138,0.856687,-0.527107,36.084,3.91603,10.8244,0,0,3.29135,3
1774535854244,0.142819,0.836427,-0.530761,30.229,1.87023,4.43512,0,0,3.29707,3
1774535854257,0.0742236,0.82837,-0.557615,25.0229,0.412215,-3.38931,0,0,3.29196,3
1774535854271,0.142085,0.84204,-0.558594,17.313,-1.69465,-14.7633,0,0,3.27621,3
1774535854284,0.106204,0.900875,-0.533937,14.1756,-3.70992,-19.4122,0,0,3.33073,3
1774535854298,0.0600618,0.947995,-0.534912,13.8626,-4.9542,-19.7023,0,0,3.27962,3
1774535854312,-0.0273376,0.908938,-0.543945,12.6412,-3.50382,-14.145,0,0,3.85454,5
1774535854325,-0.0178229,0.971187,-0.552246,14.7252,0.0152637,-5.15268,0,0,3.3117,5
1774535854339,-0.0419905,0.945803,-0.544678,13.6794,3.53435,4.31297,0,0,3.42172,5
1774535854352,-0.0383303,0.910403,-0.561034,13.0687,5.59542,11.8092,0,0,3.29444,5
1774535854366,0.0358835,0.922607,-0.541261,11.5725,6.31298,15.4504,0,0,3.28875,5
1774535854379,0.0808074,0.902345,-0.54541,12.0916,6.17557,13.8015,0,0,3.31249,5
1774535854393,0.112058,0.888185,-0.560546,11.9389,4.44275,10.0763,0,0,3.28242,5
1774535854406,0.115722,0.871339,-0.548341,10.4657,2.59542,6.70229,0,0,3.30944,5
1774535854420,0.0988781,0.879638,-0.542237,8.92367,0.320613,4.13741,0,0,3.2826,5
1774535854434,0.0800794,0.89868,-0.551025,8.19084,-0.793892,3.25954,0,0,3.8157,5
1774535854447,0.0607924,0.876955,-0.543702,6.8397,-1.86259,3.83206,0,0,3.29627,5
1774535854461,0.0517584,0.87915,-0.561034,6.22901,-1.77863,4.78626,0,0,3.28044,5
1774535854474,0.0307632,0.905027,-0.559082,6.19084,-1.0687,6.08397,0,0,3.33307,5
1774535854487,0.0786099,0.885255,-0.557861,5.62595,-0.297711,6.37405,0,0,3.30066,5
1774535854501,0.0710455,0.892333,-0.561523,5.67939,-0.0916033,5.72519,0,0,3.30449,5
1774535854514,0.0991191,0.88086,-0.554932,5.10687,-0.480916,3.03054,0,0,3.2879,5
1774535854528,0.12036,0.881103,-0.561035,4.14504,-1.41985,-0.290073,0,0,3.71585,5
1774535854542,0.121826,0.867433,-0.566894,3.43512,-2.98473,-4.03053,0,0,3.31988,5
1774535854555,0.112061,0.87915,-0.562012,2.89313,-4.41985,-6.83206,0,0,3.27064,5
1774535854568,0.079348,0.894286,-0.564453,3.26718,-5.76336,-8.07633,0,0,3.29349,5
1774535854582,0.052248,0.902099,-0.549317,3.62595,-5.53435,-7.41221,0,0,3.26547,5
1774535854595,0.0385752,0.881837,-0.568846,3.57252,-4.46565,-4.72519,0,0,3.31157,5
1774535854609,0.032227,0.885254,-0.569824,4.16794,-3.54199,-2.22901,0,0,3.26986,5
1774535854622,0.0380855,0.90991,-0.566651,4.64122,-1.9542,0.183204,0,0,3.2927,5
1774535854636,0.042236,0.90088,-0.573242,4.42748,-1.19847,2.1832,0,0,3.29292,5
1774535854650,0.0461423,0.902588,-0.566407,4.63359,-0.183207,3.69465,0,0,3.8034,5
1774535854663,0.052978,0.89795,-0.560547,4.0687,0.190839,5.48091,0,0,3.29068,5
1774535854676,0.0742173,0.906005,-0.545167,6.83206,1.06107,6.07634,0,0,3.26812,5
1774535854690,0.0515153,0.956539,-0.578367,9.0687,0.839695,7.14504,0,0,3.31807,5
1774535854703,0.0812967,0.900883,-0.581543,8.62595,0.664122,9.10687,0,0,3.27822,5
1774535854717,0.0542011,0.897705,-0.555178,11.7557,0.671756,8.26718,0,0,3.2847,5
1774535854730,0.0769027,1.00219,-0.598874,14.2901,-2.2061,9.28244,0,0,3.2829,5
1774535854744,0.113767,0.887215,-0.59375,16.0687,-2.68702,12.8092,0,0,3.8852,5
1774535854758,0.0739774,1.08617,-0.607421,24.8626,-3.0916,15.3588,0,0,3.30751,5
1774535854771,-0.0580962,1.52927,-0.716789,45.0229,0.755721,15.9008,0,0,3.27323,5
1774535854785,0.136461,1.19704,-0.673343,53.145,-3.38168,22.4656,0,0,3.32448,5
1774535854799,0.0686083,1.28295,-0.663819,71.832,3.74808,34.7557,0,0,3.2822,5
1774535854812,0.102048,1.21387,-0.636965,86.5496,1.51145,28.3512,0,0,3.28801,5
1774535854826,0.135252,1.5554,-0.728753,102.122,-1.229,22.2443,0,0,3.37492,5
1774535854839,0.0710494,1.5293,-0.635505,138.114,-0.946565,22.7557,0,0,3.32738,5
1774535854853,0.0129435,1.23269,-0.636963,157.031,0.274808,23.8015,0,0,3.3221,5
1774535854868,0.10058,1.5388,-0.674314,183.885,-1.17557,26.7252,0,0,5.17884,5
1774535854882,0.252675,1.62841,-0.626468,210.832,-5.96183,25.4198,0,0,3.30225,5
1774535854895,0.192387,1.82518,-0.666013,238.71,-11.7863,22.2443,0,0,3.30294,5
1774535854908,0.307609,2.05101,-0.635988,250.13,-19.8321,18.6336,0,0,3.28292,5
1774535854922,0.379145,1.76516,-0.574223,250.13,-29.0534,11.7481,0,0,3.29073,5
1774535854935,0.234629,1.78857,-0.592528,250.13,-32.6565,8.9084,0,0,3.29042,5
1774535854949,0.141608,1.66773,-0.604003,250.13,-34.145,5.06107,0,0,3.36512,5
1774535854962,0.341783,1.53443,-0.535161,250.13,-30.5573,13.8473,0,0,3.32673,5
1774535854976,0.341065,1.42725,-0.71239,250.13,-31.4351,49.4809,0,0,3.25733,5
1774535854990,-0.0417213,1.41089,-0.863271,250.13,-19.3512,70.145,0,0,4.17126,5
1774535855003,0.20262,1.11843,-0.616716,250.13,-6.03055,133.634,0,0,3.29925,5
1774535855017,0.340322,1.11938,-0.489755,250.13,-10.1756,182.267,0,0,3.31307,5
1774535855031,0.340332,1.09741,-0.176536,250.13,-26.7939,223.328,0,0,3.29542,5
1774535855044,0.427972,0.627474,0.251923,250.13,-58.2366,232.473,0,0,3.28736,5
1774535855057,0.156025,-1.79622,-0.508003,250.13,-95.3282,178.908,0,0,3.3169,3
1774535855071,-0.5915,-0.367043,-0.223897,186.053,-105.099,107.328,0,0,3.27053,3
1774535855085,-0.679437,-0.888391,-0.338859,73.3284,-83.3512,36.7863,0,0,3.85942,3
1774535855098,-0.693358,-0.505642,-0.447014,-8.48083,-56.9848,-25.7862,0,0,3.28518,3
1774535855112,-0.463639,-0.090117,-0.471678,-60.4427,-39.7557,-82.8549,0,0,3.30138,3
1774535855125,-0.321299,0.0988637,-0.456056,-94.061,-32.313,-117.42,0,0,3.2876,3
1774535855139,-0.21949,0.159908,-0.380621,-122.473,-27.7786,-128.603,0,0,3.29644,1
1774535855152,-0.0866792,0.112064,-0.25245,-149.069,-26.0305,-129.26,0,0,3.31899,1
1774535855166,0.053457,-0.0251369,-0.14991,-182.947,-34.687,-124.511,0,0,3.28966,1
1774535855179,0.132563,-0.125481,0.00218662,-227.809,-49.6946,-114.565,0,0,3.75014,1
1774535855193,0.218012,-0.392559,0.166981,-250.137,-65.5801,-92.7023,0,0,3.28533,1
1774535855206,0.270016,-0.501213,0.382309,-250.137,-80.9084,-46.084,0,0,3.27162,1
1774535855220,0.215092,0.482353,0.323002,-250.137,-82.3817,15.5114,0,0,3.30275,1
1774535855233,0.105232,1.00485,0.101822,-250.137,-68.7405,76.2213,0,0,3.2729,1
1774535855247,-0.135969,0.910163,0.0871592,-250.137,-44.7405,114.366,0,0,3.28968,1
1774535855260,-0.326891,0.860599,0.0336951,-250.137,-20.5878,103.969,0,0,3.26649,2
1774535855273,-0.409174,0.897947,-0.0395457,-250.137,0.358758,59.1298,0,0,3.32384,2
1774535855287,-0.219984,1.11913,-0.15966,-250.137,13.3359,21.2596,0,0,3.26416,3
1774535855300,-0.0720318,1.27807,-0.316884,-250.137,27.8702,23.2519,0,0,3.5997,3
1774535855314,0.0388106,1.47069,-0.463125,-250.137,43.3053,44.0305,0,0,3.27684,3
1774535855327,0.00415282,1.53735,-0.588126,-250.137,59.7023,54.687,0,0,3.27931,3
1774535855341,-0.0527304,1.45582,-0.585205,-250.137,74.7099,39.3359,0,0,3.51972,3
1774535855354,-0.0437018,1.43335,-0.595947,-250.137,86.1527,15.771,0,0,3.32873,3
1774535855368,0.0837313,1.66258,-0.654049,-250.137,94.0611,0.0381837,0,0,3.28734,3
1774535855381,0.214102,1.8474,-0.74682,-250.137,99.7786,2.98473,0,0,3.26694,3
1774535855395,0.332023,1.93554,-0.876944,-250.137,99.9466,15.1527,0,0,3.67742,3
1774535855409,0.324952,1.89405,-1.07225,-250.137,96.9389,26.8626,0,0,3.26957,5
1774535855422,0.229499,1.98437,-1.33738,-250.137,92.6336,34.4351,0,0,3.26033,5
1774535855435,0.0280903,2.09496,-1.66746,-250.137,93.0611,35.9313,0,0,3.27466,5
1774535855449,-0.0336871,2.08008,-1.92723,-250.137,91.1679,18.5267,0,0,3.25066,5
1774535855462,0.0993559,1.76321,-2.11009,-208.947,79.7634,-22.0763,0,0,3.32531,5
1774535855475,0.466527,1.42654,-2.21825,-165.908,61.1374,-36.2137,0,0,3.27503,5
1774535855489,0.828344,1.14113,-2.38793,-122.115,37.4733,13.2977,0,0,3.634,5
1774535855503,0.556416,1.10034,-2.5703,-71.7176,11.6718,72.9083,0,0,3.27851,5
1774535855516,-0.150585,1.05176,-2.52051,-13.5573,-1.73281,68.7634,0,0,3.26249,5
1774535855530,-0.556612,0.830826,-2.19314,36.1374,-5.88549,-3.29,0,0,3.28094,5
1774535855543,3.99956,3.99966,-1.71122,12.0306,-51.832,-39.1068,0,0,3.25401,5
1774535855557,1.34735,-2.93018,1.03203,163.511,-15.481,-39.9084,0,0,3.32284,5
1774535855570,-0.0748516,1.89688,0.296682,250.13,-40.0458,-83.2977,0,0,3.26621,5
1774535855584,-0.564907,1.64723,-0.186245,250.13,-13.8703,-47.6565,0,0,3.27846,5
1774535855597,-0.0830415,1.16703,-0.205809,238.237,12.2366,-22.4199,0,0,3.26827,3
1774535855611,0.0695694,0.86135,-0.368397,210.389,4.13741,-11.6794,0,0,3.63516,3
1774535855625,-0.0761617,0.772467,-0.408933,180.428,-0.984728,9.61067,0,0,3.23934,3
1774535855638,-0.0319855,0.780273,-0.433836,153.779,-6.74809,19.7557,0,0,3.26636,3
1774535855651,-0.0707981,0.828854,-0.495113,126.237,-1.00001,32.0534,0,0,3.27362,3
1774535855665,-0.00293444,0.860838,-0.494385,106.573,6.3435,33.7328,0,0,3.30168,3
1774535855678,0.0507775,0.916012,-0.443607,93.8702,10.9695,30.8855,0,0,3.27597,3
1774535855692,0.151848,0.887453,-0.44458,85.5344,9.59542,25.313,0,0,3.24034,3
1774535855705,0.135743,0.860353,-0.468016,79.0611,6.36642,16.8397,0,0,3.58646,3
1774535855719,0.136719,0.911373,-0.448244,72.2519,3.08397,8.09161,0,0,3.24644,3
1774535855732,0.173093,0.879397,-0.514156,62.0534,-0.396943,-3.03816,0,0,3.26768,3
1774535855745,0.106694,0.82642,-0.535887,52.1069,-3.22137,-10.0611,0,0,3.26944,5
1774535855759,0.106445,0.82544,-0.591549,38.3512,-5.50381,-12.4046,0,0,3.2764,5
1774535855772,-0.00341028,0.902582,-0.528325,32.1069,-0.877867,-7.12978,0,0,3.27529,5
1774535855786,-0.0122064,0.920653,-0.531006,28.374,2.99236,-1.00764,0,0,3.24751,5
1774535855799,0.0151348,0.924072,-0.524903,26.0687,6.17557,6.04579,0,0,3.27696,5
1774535855812,0.0595672,0.938476,-0.542479,25.3969,6.19084,10,0,0,3.26166,5
1774535855826,0.0812973,0.900149,-0.540527,22.2443,6.81679,9.82443,0,0,3.55874,5
1774535855839,0.100829,0.889161,-0.552489,18.1221,4.96183,6.12214,0,0,3.29616,5
1774535855853,0.104248,0.88086,-0.535157,15.313,3.29008,3.94657,0,0,3.51796,5
1774535855866,0.0952155,0.890868,-0.53955,13.1832,1.10687,2.76336,0,0,3.28807,5
1774535855880,0.108153,0.869875,-0.549072,10.6947,-0.709922,0.541987,0,0,3.25884,5
1774535855893,0.0896009,0.918942,-0.522707,10.2214,-2.32824,-1.03053,0,0,3.29434,5
1774535855907,0.112791,0.914063,-0.529296,10.1221,-3.61832,-3.38931,0,0,3.26207,5
1774535855920,0.101563,0.901124,-0.528076,10.3893,-5.09924,-6.10687,0,0,3.79753,5
1774535855934,0.0727559,0.870608,-0.543456,8.39695,-4.64122,-6.53435,0,0,3.26803,5
1774535855947,0.0874013,0.923336,-0.524171,8.43511,-3.92366,-7.1374,0,0,3.24236,5
1774535855961,0.0810551,0.882083,-0.54077,8.51908,-4.36641,-9.03817,0,0,3.32055,5
1774535855974,0.0654308,0.930661,-0.54663,8.0458,-4.1374,-8.50382,0,0,3.24718,5
1774535855987,0.093748,0.920899,-0.55664,8.96183,-5.0687,-10.7863,0,0,3.31171,5
1774535856001,0.0727554,0.920654,-0.541017,9.54198,-5.53435,-11.8626,0,0,3.24918,5
1774535856015,0.0524917,0.901857,-0.552734,9.12977,-5.91603,-11.4809,0,0,4.09974,5
1774535856028,0.053955,0.9021,-0.548828,8.93893,-5.85496,-11.8397,0,0,3.27497,5
1774535856042,0.0292986,0.920409,-0.551269,9.8855,-4.81679,-10,0,0,3.84768,5
1774535856056,0.0219732,0.921143,-0.549317,9.78626,-4.58015,-9.08397,0,0,3.27821,5
1774535856069,0.0134283,0.922607,-0.569335,9.63359,-4.45038,-6.87786,0,0,3.27775,5
1774535856083,0.039549,0.909913,-0.554933,10.084,-3.59542,-5.29008,0,0,3.28279,3
1774535856096,0.0263681,0.882326,-0.566894,10.313,-2.68702,-3.89313,0,0,3.25464,3
1774535856109,0.0324703,0.896972,-0.567627,9.9542,-2.60305,-2.34351,0,0,3.27747,3
1774535856123,0.0075701,0.884766,-0.574462,9.45038,-1.66412,-0.557254,0,0,3.26432,3
1774535856136,0.0212393,0.873292,-0.569092,7.80916,-1.06107,1.45801,0,0,3.67018,3
1774535856150,0.0136724,0.886962,-0.567627,6.41985,-0.297711,3.19847,0,0,3.27151,3
1774535856163,0.031737,0.875245,-0.572265,5.70992,0.64122,5.05343,0,0,3.37194,3
1774535856177,0.0375972,0.874756,-0.577148,4.58015,1.20611,6.29008,0,0,3.27718,3
1774535856190,0.0292975,0.892333,-0.567628,3.45038,1.82443,7.54198,0,0,3.23769,3
1774535856203,0.0292969,0.88794,-0.573242,3.03053,2.62595,8.52672,0,0,3.26464,3
1774535856217,0.0661595,0.886963,-0.570313,2.92366,2.8855,8.07634,0,0,3.27081,3
1774535856230,0.0505382,0.890869,-0.591063,2.33588,1.78626,7.31298,0,0,3.29133,5
1774535856243,0.0744612,0.903808,-0.572267,3.96946,1.41985,5.61832,0,0,3.26999,5
1774535856257,0.0834955,0.911865,-0.558106,2.90076,0.305345,4.11451,0,0,3.2414,5
1774535856270,0.0390656,0.977534,-0.589353,9.3206,-0.923663,4.61069,0,0,3.27586,5
1774535856283,0.0722633,0.999998,-0.579835,8.83206,-2.22137,5.03053,0,0,3.23975,5
1774535856297,0.0747069,0.948978,-0.573243,8.67176,-2.64122,8.36641,0,0,3.32131,5
1774535856310,0.0673833,0.883061,-0.573486,11.8626,-2.18321,10.5343,0,0,3.54557,5
1774535856324,0.128414,1.03368,-0.593749,15.0076,-4.33588,11.0458,0,0,3.26553,5
1774535856337,-0.0600454,1.47433,-0.697258,27.0534,0.03053,15.5038,0,0,3.26392,5
1774535856351,0.0888568,1.29127,-0.667483,48.4351,-0.72519,32.2366,0,0,3.26321,5
1774535856364,0.0278363,1.1111,-0.648439,57.374,6.19847,44.8244,0,0,3.68599,5
1774535856378,0.0522444,1.24413,-0.631837,70.8397,4.71756,35.5038,0,0,3.28216,5
1774535856391,0.143548,1.65573,-0.680905,90.8397,2.30535,18.3893,0,0,3.29542,5
1774535856405,0.12549,1.39406,-0.629398,118.405,0.564887,24.6565,0,0,3.25512,5
1774535856418,0.146971,1.15016,-0.629395,131.267,-3.54961,15.4962,0,0,3.25794,5
1774535856431,0.239251,1.20239,-0.61255,144.748,-8.71755,10.7023,0,0,3.27069,5
1774535856445,0.243408,1.26831,-0.625487,162.26,-14.5267,1.82444,0,0,3.24757,5
1774535856458,0.202884,1.38964,-0.653318,179.695,-18.5267,2.38168,0,0,3.27475,5
1774535856471,0.261226,1.47778,-0.630373,204.183,-24.5191,-3.99236,0,0,3.26327,5
1774535856485,0.191167,1.39429,-0.665525,221.473,-29.3511,-7.95419,0,0,3.27055,5
1774535856498,0.235348,1.58495,-0.676513,244.206,-35.0534,-8.68702,0,0,3.24551,5
1774535856511,0.223145,1.57422,-0.71655,250.13,-39.4427,-12.7252,0,0,3.30512,5
1774535856525,0.20215,1.75975,-0.764157,250.13,-42.4122,-11.0305,0,0,3.28212,5
1774535856538,0.0720306,1.56618,-0.817623,250.13,-41.7557,-7.9084,0,0,3.3244,5
1774535856552,0.305648,1.35792,-0.73194,250.13,-40.1908,3.19083,0,0,3.27862,5
1774535856565,0.102553,1.43994,-0.937974,250.13,-49.7099,-20.7099,0,0,3.26264,5
1774535856578,0.111816,1.54614,-0.981931,250.13,-45.0458,-36.7023,0,0,3.27569,5
1774535856592,0.298815,1.4087,-0.964357,250.13,-42.4733,-15.6718,0,0,3.23875,5
1774535856605,0.367671,1.48632,-0.581326,250.13,-44.1679,-3.19085,0,0,3.29162,3
1774535856619,0.429195,1.53564,-0.190457,250.13,-59.7175,-34.7023,0,0,3.24806,3
1774535856632,0.494624,1.1553,-0.0456644,250.13,-82.0839,-76.9236,0,0,3.85126,3
1774535856646,0.553707,-1.00131,-0.647907,250.13,-102.565,-96.8855,0,0,3.27947,3
1774535856659,0.0649756,0.427146,-0.267361,250.13,-101.069,-59.1374,0,0,3.23912,3
1774535856673,0.0729975,-0.766518,-0.131113,145.244,-87.8092,-21.2672,0,0,3.72731,3
1774535856686,-0.0253837,-1.25558,0.144512,31.3284,-80.4886,-17.2824,0,0,3.25194,3
1774535856700,-0.12597,-0.864041,0.0666558,-72.5724,-71.6336,-24.4198,0,0,3.29001,3
1774535856713,-0.278066,-0.327674,-0.0114691,-144.977,-59.7099,-34.2595,0,0,3.24127,3
1774535856726,-0.36474,-0.0605656,0.0214821,-195.214,-40.4504,-35.916,0,0,3.26344,3
1774535856740,-0.264655,-0.110104,0.0881301,-240.107,-25.0076,-41.1832,0,0,3.25197,3
1774535856753,-0.138437,-0.24169,0.185784,-250.137,-16.9084,-46.3969,0,0,3.2599,3
1774535856767,-0.0537169,-0.223634,0.287835,-250.137,-12.3893,-39.6641,0,0,3.26245,3
1774535856780,0.027094,0.412797,0.204107,-250.137,-5.57253,-16.8779,0,0,3.26697,3
1774535856793,0.133782,0.831758,0.0388299,-250.137,6.21373,14.7939,0,0,3.27527,2
1774535856807,0.157957,0.848388,-0.046869,-250.137,14.0382,37.0992,0,0,3.23775,2
1774535856820,0.117679,0.76856,-0.10107,-250.137,17.7023,46.9847,0,0,3.32944,2
1774535856833,0.0275942,0.722659,-0.092774,-250.137,26.0916,44.2595,0,0,3.25556,2
1774535856847,0.0729949,0.870107,-0.151363,-250.137,28.7176,34.2596,0,0,3.28627,2
1774535856860,0.131344,1.14256,-0.332751,-250.137,30.2137,38.3969,0,0,3.26199,2
1774535856876,0.202632,1.29564,-0.496815,-250.137,32.229,57.5267,0,0,4.23493,3
1774535856889,0.157718,1.33276,-0.619132,-250.137,35.8092,75.4351,0,0,3.28208,3
1774535856903,0.0600654,1.44262,-0.726799,-250.137,44.7328,82.6717,0,0,3.25686,3
1774535856916,-0.0822654,1.43237,-0.805414,-250.137,55.0076,73.2061,0,0,3.31108,3
1774535856929,-0.0939933,1.50195,-0.874263,-250.137,66.0458,50.0535,0,0,3.24519,3
1774535856943,-0.060061,1.47949,-0.903562,-250.137,74.9542,38.5038,0,0,3.26966,5
1774535856956,0.0117137,1.5498,-0.937254,-250.137,82.3053,31.7786,0,0,3.26733,5
1774535856969,0.123771,1.66405,-1.01293,-250.137,86.4809,23.0992,0,0,3.27197,5
1774535856983,0.301013,1.76074,-1.15355,-250.137,85.7557,28.7099,0,0,3.28342,5
1774535856996,0.350338,1.85473,-1.30809,-250.137,83.8244,53.8549,0,0,3.25414,5
1774535857010,0.214121,1.84082,-1.50316,-250.137,85.4504,73.7633,0,0,3.27947,5
1774535857023,0.039563,1.8457,-1.65575,-250.137,87.8397,67.3893,0,0,3.25308,5
1774535857036,-0.0158653,1.80127,-1.74023,-209.634,85.6183,36.4351,0,0,3.35888,5
1774535857050,-0.0363755,1.50466,-1.70337,-167.588,83.7634,7.70995,0,0,3.27023,5
1774535857063,0.178696,1.33107,-1.66699,-128.824,77,-7.78624,0,0,3.29562,5
1774535857077,0.418196,1.06594,-1.71972,-93.5573,58.7557,2.89312,0,0,3.28431,5
1774535857090,0.526604,1.00049,-1.77539,-59.7405,29.4199,19.145,0,0,3.24966,5
1774535857104,0.277117,1.0061,-1.77075,-19.2519,1.11453,20,0,0,3.27731,5
1774535857117,0.0219905,0.979738,-1.60646,20.9694,-18.7023,1.74048,0,0,3.26019,5
1774535857130,-0.040523,0.960206,-1.28933,52.4962,-31.2748,-31,0,0,3.28849,5
1774535857144,0.0539485,1.03173,-0.97219,76.5725,-38.0534,-49.6641,0,0,3.25797,5
1774535857157,-1.88243,3.99967,0.267491,250.13,-37.6412,-10.7558,0,0,3.26432,5
1774535857170,0.586253,2.95735,0.508528,159.916,-61.3053,-48.1679,0,0,3.26558,5
1774535857184,-0.10005,-0.147976,-0.0280386,183.176,-25.542,-44.4351,0,0,3.44544,5
1774535857197,-0.228507,0.156961,-0.0800745,183.603,12.5267,-16.229,0,0,3.27551,5
1774535857211,0.258267,0.720908,-0.0742192,188.588,10.2977,-21.5343,0,0,3.25992,5
1774535857224,0.0456692,0.938217,-0.22289,179.664,-5.74044,-13.1374,0,0,3.27649,5
1774535857238,-0.125232,0.932373,-0.314203,162.061,-9.68702,10.5267,0,0,3.25719,5
1774535857251,-0.0161209,0.94702,-0.328856,144.924,-11.2137,20.603,0,0,3.27066,2
1774535857264,0.00268423,0.964843,-0.355955,131.282,-7.80153,25.2443,0,0,3.26177,2
1774535857278,0.0541956,0.920169,-0.379881,118.618,-2.11451,24.1221,0,0,3.29458,2
1774535857291,0.0539551,0.958982,-0.421872,104.794,2.63358,20.9237,0,0,3.27129,2
1774535857304,0.123042,0.930422,-0.440184,93.8015,2.56489,12.1298,0,0,3.25249,2
1774535857318,0.113038,0.913087,-0.454101,84.5802,2.41985,5.35115,0,0,3.29164,2
1774535857331,0.130614,0.939207,-0.421633,78.6641,1.48855,-1.51908,0,0,3.25168,2
