timestamp,ax,ay,az,gx,gy,gz,delay_ms,classe_prevista
1777240180704,-0.00413256,0.774292,-0.145955,0.0420531,-0.254962,0.20545,3.28001,-1
1777240180718,-0.00871645,0.876829,-0.16449,0.0306433,-0.150845,0.10275,3.27701,-1
1777240180732,-0.011868,0.917772,-0.174567,0.0256478,-0.109072,0.0709728,3.26984,-1
1777240180746,-0.0137899,0.938886,-0.178019,0.0227504,-0.0857311,0.0557869,3.65025,-1
1777240180759,-0.014144,0.950114,-0.180791,0.0214094,-0.0701745,0.0474964,3.32488,-1
1777240180772,-0.015629,0.957899,-0.181932,0.0198254,-0.0590603,0.0428467,3.24146,-1
1777240180786,-0.0148931,0.964112,-0.185006,0.0188542,-0.050634,0.0394497,3.26057,-1
1777240180799,-0.0149555,0.968424,-0.186388,0.0178676,-0.0438321,0.0371562,3.24242,-1
1777240180812,-0.0139848,0.972088,-0.187055,0.0170165,-0.0384525,0.0352802,3.25227,-1
1777240180826,-0.0137431,0.974701,-0.187806,0.0160646,-0.0340499,0.0335201,3.25851,-1
1777240180840,-0.0126958,0.976434,-0.188211,0.0150703,-0.0306152,0.0317038,3.75162,-1
1777240180853,-0.0116296,0.978714,-0.18878,0.0142233,-0.0273735,0.0297936,3.24957,-1
1777240180866,-0.0113588,0.980819,-0.188818,0.0135643,-0.0246888,0.0281095,3.25064,-1
1777240180880,-0.0111849,0.982849,-0.18885,0.0128204,-0.0224484,0.0264313,3.24701,-1
1777240180893,-0.0104082,0.984297,-0.188918,0.0123083,-0.0205874,0.0248376,3.24164,-1
1777240180906,-0.0111656,0.985279,-0.189241,0.0115853,-0.0187472,0.0234921,3.27227,-1
1777240180920,-0.0109167,0.986752,-0.18922,0.0108897,-0.0169023,0.0225926,3.25092,-1
1777240180934,-0.0103945,0.988198,-0.189623,0.0105015,-0.015367,0.0217576,3.73238,-1
1777240180947,-0.0103334,0.988717,-0.190022,0.00993173,-0.0141625,0.0212924,3.25084,-1
1777240180960,-0.0101944,0.990089,-0.1902,0.00917457,-0.0130639,0.0209483,3.33749,-1
1777240180974,-0.00990443,0.990229,-0.191342,0.00822894,-0.0121441,0.0205377,3.26109,-1
1777240180987,-0.0102157,0.990774,-0.191507,0.00699772,-0.0114574,0.0205324,3.25934,-1
1777240181001,-0.00982449,0.991842,-0.192036,0.00579789,-0.0109892,0.0208083,3.26994,-1
1777240181014,-0.00978973,0.992236,-0.192259,0.00453241,-0.0104802,0.0211207,3.26584,-1
1777240181028,-0.0100024,0.992753,-0.192665,0.00313846,-0.0102013,0.0219355,3.92388,-1
1777240181041,-0.00970055,0.993942,-0.192814,0.00178141,-0.00981073,0.0229831,3.26238,-1
1777240181055,-0.0100634,0.994598,-0.192069,0.000601518,-0.00929395,0.0246473,3.26962,-1
1777240181068,-0.00995651,0.995888,-0.19234,-0.000588147,-0.00867452,0.0267412,3.24625,-1
1777240181081,-0.00918137,0.997061,-0.192387,-0.0013747,-0.00815732,0.028627,3.23622,-1
1777240181095,-0.0082835,0.997921,-0.192212,-0.00203997,-0.0078572,0.029994,3.57433,0
1777240181109,-0.00689487,0.998594,-0.191657,-0.00246215,-0.00760858,0.0305103,3.39544,0
1777240181122,-0.00555328,0.998951,-0.19147,-0.00275343,-0.0074211,0.0304038,3.55853,0
1777240181136,-0.00438341,0.999384,-0.191094,-0.00298132,-0.00724562,0.0301206,3.34923,0
1777240181149,-0.00344406,0.99942,-0.190713,-0.00324827,-0.007531,0.0293743,3.44401,0
1777240181163,-0.00270509,0.998972,-0.190952,-0.00359169,-0.0079183,0.0285815,3.47408,0
1777240181176,-0.00297239,0.998565,-0.19112,-0.00411713,-0.00842749,0.0278773,3.35583,0
1777240181190,-0.00239265,0.998929,-0.190461,-0.00479098,-0.00881754,0.0268727,3.46551,0
1777240181203,-0.00224105,1.00034,-0.190206,-0.00539772,-0.00914887,0.0260123,3.38821,0
1777240181217,-0.00173455,1.00089,-0.190177,-0.00610372,-0.0093465,0.0251247,3.54531,0
1777240181231,-0.000881168,1.0013,-0.190233,-0.00684188,-0.00956292,0.023967,3.42484,0
1777240181244,-0.000287362,1.00154,-0.189994,-0.00766705,-0.00958351,0.0226294,3.69205,0
1777240181258,-9.01663e-05,1.00152,-0.189991,-0.00856107,-0.00975946,0.0211618,3.37199,0
1777240181271,0.000400969,1.00201,-0.189766,-0.00930285,-0.0100944,0.0195631,3.46358,0
1777240181285,-3.77495e-05,1.00184,-0.189873,-0.0101054,-0.0105313,0.0183957,3.45821,5
1777240181299,-3.56086e-05,1.00218,-0.189835,-0.0107618,-0.0108691,0.0172745,3.45038,5
1777240181312,0.000395126,1.00206,-0.189592,-0.0110949,-0.011235,0.0160322,3.44536,5
1777240181326,0.000718137,1.0019,-0.189004,-0.0112316,-0.0114675,0.0146671,3.49418,5
1777240181339,0.00100878,1.00179,-0.188726,-0.0112526,-0.0117039,0.0131044,3.50327,5
1777240181353,0.00143445,1.00195,-0.187898,-0.0110266,-0.0117327,0.0111957,3.35499,5
1777240181367,0.00136726,1.00227,-0.187807,-0.010624,-0.0116263,0.00918944,3.61771,5
1777240181380,0.00105605,1.0026,-0.187404,-0.0100463,-0.0113623,0.00742683,3.43599,5
1777240181394,0.000680003,1.0031,-0.187354,-0.00943701,-0.0110618,0.00620784,3.37831,5
1777240181407,5.02484e-05,1.00294,-0.186702,-0.00879782,-0.0106966,0.00538933,3.39099,5
1777240181421,-0.000310028,1.00291,-0.186087,-0.00817345,-0.0105542,0.00482363,3.44033,5
1777240181434,-0.000567419,1.00338,-0.185658,-0.00746847,-0.0105101,0.00468962,3.42842,5
1777240181448,-0.000810231,1.00361,-0.185542,-0.00675617,-0.0103612,0.00486815,3.32564,5
1777240181461,-0.00106677,1.00411,-0.185405,-0.00593391,-0.010285,0.00521691,3.36909,5
1777240181475,-0.000471385,1.00436,-0.185084,-0.00514954,-0.0101316,0.00559747,3.44749,5
1777240181488,-0.000444886,1.00413,-0.184588,-0.00416487,-0.0101457,0.00576772,3.3702,5
1777240181502,-0.000296392,1.00365,-0.184738,-0.00341597,-0.0102061,0.00584684,3.46083,5
1777240181515,-0.00041692,1.00364,-0.184729,-0.00268786,-0.0100959,0.00549686,3.39846,5
1777240181529,-0.000420929,1.00334,-0.184733,-0.00193647,-0.0101934,0.00503367,3.43281,5
1777240181542,-0.000397286,1.00344,-0.184285,-0.00110307,-0.0101011,0.00452796,3.46196,5
1777240181556,-0.000278995,1.00383,-0.184178,-0.000316591,-0.0100354,0.00409789,3.45957,5
1777240181570,-0.000153652,1.00404,-0.184639,0.000537065,-0.0100634,0.00346056,3.59481,5
1777240181583,-7.64863e-05,1.00416,-0.184882,0.00128268,-0.0102056,0.00312482,3.44494,5
1777240181597,-0.000894573,1.00382,-0.184864,0.00188351,-0.0104598,0.00306938,3.43162,5
1777240181610,-0.00140626,1.00372,-0.185437,0.00258768,-0.010841,0.00314134,3.4426,1
1777240181624,-0.00129992,1.00332,-0.185978,0.00309801,-0.0111152,0.00342777,3.43257,1
1777240181637,-0.0014462,1.00269,-0.183172,0.00335257,-0.0113225,0.00370667,3.36447,1
1777240181651,-0.00155687,1.00292,-0.183634,0.00371708,-0.0115096,0.00411557,3.3867,1
1777240181664,-0.00126398,1.00344,-0.183399,0.00425817,-0.0116905,0.00447579,3.43192,1
1777240181678,-0.00108345,1.00348,-0.183656,0.00461037,-0.0119169,0.00450735,3.45281,1
1777240181692,-0.000625356,1.00306,-0.18394,0.00504988,-0.0120235,0.00436151,3.41266,1
1777240181705,-0.00120673,1.00326,-0.183948,0.00553752,-0.0117644,0.00411678,3.43748,1
1777240181719,-0.00181025,1.00342,-0.184586,0.00585644,-0.0113184,0.00382154,3.4266,1
1777240181732,-0.00291412,1.00308,-0.184969,0.00599042,-0.0105592,0.00398403,3.36936,1
1777240181746,-0.00394233,1.00281,-0.185453,0.0061597,-0.00938854,0.00455712,3.46883,1
1777240181759,-0.00458409,1.00316,-0.186267,0.00601112,-0.0074185,0.00544924,3.39879,1
1777240181773,-0.0052994,1.00322,-0.186651,0.00575097,-0.00508794,0.00640691,3.52779,1
1777240181786,-0.00585129,1.00369,-0.186561,0.00576665,-0.00224149,0.00827442,3.41481,1
1777240181800,-0.00686529,1.00532,-0.186313,0.00680498,0.00153296,0.0106581,3.37273,1
1777240181813,-0.00650754,1.00757,-0.184845,0.00868007,0.0062219,0.0133106,3.40092,1
1777240181827,-0.00397848,1.01284,-0.183926,0.0126639,0.00686637,0.0155487,3.4604,1
1777240181841,-0.0017283,1.01778,-0.18299,0.0182742,0.00727769,0.0168047,3.46473,1
1777240181854,0.00125846,1.02496,-0.180011,0.0262247,0.0069722,0.0174978,3.41683,5
1777240181868,0.00936415,1.04562,-0.171378,0.0413301,0.00366059,0.0113134,3.54205,5
1777240181881,0.0164809,1.05937,-0.170379,0.0639212,-0.00279675,0.00513327,3.46649,5
1777240181895,0.0353873,1.09388,-0.160328,0.0989733,-0.0158974,0.0120479,3.49112,5
1777240181909,0.0398664,1.13352,-0.150444,0.150498,-0.0314362,0.00922672,3.46021,5
1777240181922,0.0498325,1.15653,-0.14436,0.20889,-0.0487666,0.00795978,3.54447,5
1777240181936,0.0528575,1.18433,-0.139371,0.276768,-0.0684177,0.009346,3.47686,4
1777240181949,0.0546173,1.21061,-0.134347,0.352056,-0.088281,0.00827792,3.38496,4
1777240181963,0.054676,1.23532,-0.132193,0.43598,-0.109411,0.00581386,3.50027,4
1777240181977,0.0757257,1.26045,-0.130571,0.526907,-0.135919,0.00524366,3.48325,4
1777240181990,0.0754632,1.26988,-0.126985,0.621593,-0.159263,-0.00254825,3.53251,4
1777240182004,0.0742293,1.28077,-0.1246,0.716396,-0.177211,-0.0295916,3.46296,4
1777240182017,0.0745163,1.29326,-0.129019,0.810331,-0.191562,-0.0603804,3.38642,4
1777240182031,0.0824699,1.29638,-0.132121,0.894448,-0.21014,-0.0811865,3.48677,4
1777240182044,0.088156,1.27385,-0.134872,0.984582,-0.226857,-0.130101,3.40803,4
1777240182058,0.0871688,1.23727,-0.145,1.06194,-0.236556,-0.203073,3.53901,4
1777240182072,0.087538,1.22986,-0.155861,1.13142,-0.242248,-0.287297,3.43064,4
1777240182085,0.0773416,1.19375,-0.161908,1.19817,-0.242327,-0.371357,3.53933,4
1777240182099,0.0657999,1.15265,-0.162248,1.25193,-0.237024,-0.447088,3.47801,4
1777240182112,0.0182452,1.05719,-0.150463,1.2714,-0.209889,-0.496382,3.39412,4
1777240182126,-0.0105919,0.956781,-0.147802,1.22608,-0.161908,-0.502665,3.42934,4
1777240182140,-0.0234184,0.871122,-0.132212,1.12565,-0.098943,-0.480323,3.4939,4
1777240182153,-0.0244192,0.82812,-0.111595,0.996725,-0.0315967,-0.445022,3.4631,4
1777240182167,-0.0175169,0.807893,-0.0898328,0.861058,0.0302934,-0.40795,3.36325,4
1777240182181,-0.003771,0.799688,-0.0701544,0.730105,0.0798099,-0.371541,3.51953,4
1777240182194,0.0106965,0.784343,-0.0570165,0.60249,0.115861,-0.330211,3.42792,4
1777240182208,0.0236404,0.76078,-0.0472175,0.469492,0.139635,-0.279574,3.5217,4
1777240182222,0.0346531,0.740058,-0.0370507,0.326896,0.153452,-0.225951,3.47518,4
1777240182235,0.0426241,0.729783,-0.0253452,0.177731,0.158469,-0.181248,3.45545,4
1777240182249,0.048847,0.73041,-0.0135979,0.0276883,0.156633,-0.151243,3.51023,4
1777240182262,0.051489,0.741205,-0.00368724,-0.114173,0.149337,-0.129212,3.40466,4
1777240182276,0.0514904,0.758091,0.00280535,-0.248078,0.138845,-0.105436,3.49431,4
1777240182290,0.0477668,0.778507,0.00446935,-0.374471,0.128689,-0.0744429,3.47731,4
1777240182303,0.0390619,0.802955,0.00171257,-0.493774,0.122798,-0.0382217,3.62547,4
1777240182317,0.0239158,0.82877,-0.00724381,-0.606385,0.125672,-0.00436191,3.42886,4
1777240182330,0.00479892,0.857835,-0.0189434,-0.71268,0.140687,0.020602,3.38116,4
1777240182344,-0.0126979,0.894814,-0.0313014,-0.813012,0.167441,0.0353707,3.47529,4
1777240182357,-0.0231603,0.937881,-0.0441165,-0.907717,0.202396,0.0433334,3.41777,4
1777240182371,-0.0216147,0.978546,-0.057637,-0.997109,0.238525,0.0497705,3.50127,4
1777240182385,-0.00751579,1.00796,-0.0727546,-1.08149,0.268315,0.0545448,3.49997,4
1777240182398,0.0119,1.04128,-0.0899137,-1.16113,0.284728,0.0489418,3.49203,4
1777240182412,0.0301445,1.09228,-0.114847,-1.23631,0.284655,0.0328671,3.37601,4
1777240182425,0.0392312,1.14799,-0.155377,-1.30602,0.266706,0.0178482,3.49462,4
1777240182439,0.0331277,1.19425,-0.207013,-1.34362,0.246736,0.0126294,3.44907,4
1777240182453,0.0173148,1.23202,-0.263093,-1.34845,0.234874,0.0178728,3.4711,4
1777240182466,0.00496352,1.25424,-0.323449,-1.3239,0.230246,0.030812,3.44179,4
1777240182480,-0.00314812,1.26547,-0.386569,-1.27623,0.227851,0.0435093,3.48055,5
1777240182493,-0.0108458,1.2741,-0.447463,-1.20753,0.226439,0.0472646,3.46603,5
1777240182507,-0.0159617,1.27969,-0.500176,-1.1198,0.224982,0.0420143,3.4647,5
1777240182521,-0.00471341,1.43228,-0.361222,-1.02148,0.209587,0.0695836,3.54634,5
1777240182534,0.0641601,1.38256,-0.304204,-0.918579,0.181102,0.0630771,3.48171,5
1777240182548,0.0683671,1.36823,-0.261149,-0.780102,0.152895,0.0524825,3.39208,5
1777240182561,0.0470444,1.34766,-0.232546,-0.644284,0.133443,0.0556188,3.50284,5
1777240182575,0.0443508,1.32558,-0.214202,-0.516517,0.122215,0.0636661,3.39749,5
1777240182589,0.0483131,1.29927,-0.202063,-0.401778,0.110744,0.0648521,3.51227,5
1777240182602,0.0449595,1.28104,-0.191387,-0.298738,0.0961228,0.0668279,3.40675,5
1777240182616,0.0392879,1.26438,-0.181911,-0.206984,0.0812981,0.0714119,3.47151,5
1777240182629,0.0366048,1.24747,-0.176432,-0.126787,0.0710601,0.0762311,3.4927,5
1777240182643,0.0341407,1.23065,-0.174177,-0.0595453,0.0668601,0.0816664,3.39925,5
1777240182656,0.0365668,1.21339,-0.174157,-0.00529819,0.064951,0.0846302,3.4727,5
1777240182670,0.0381858,1.19853,-0.173755,0.037702,0.062528,0.0864643,3.38042,5
1777240182684,0.0388375,1.18548,-0.174143,0.0715849,0.0597486,0.086714,3.6322,5
1777240182697,0.0399594,1.17346,-0.172482,0.0991911,0.0584182,0.084766,3.46962,5
1777240182711,0.0405938,1.16165,-0.172544,0.121378,0.057582,0.0813001,3.50427,5
1777240182725,0.044137,1.1513,-0.173752,0.137841,0.0546304,0.074419,3.49747,5
1777240182738,0.0420857,1.13824,-0.175044,0.149571,0.0517759,0.0686004,3.46338,1
1777240182752,0.0416286,1.12844,-0.174962,0.1577,0.0477498,0.0646583,3.48755,1
1777240182765,0.0409916,1.11992,-0.176501,0.163905,0.0433672,0.0627741,3.41016,1
1777240182779,0.0394181,1.11234,-0.178158,0.167626,0.0407677,0.0607431,3.49062,1
1777240182792,0.0387956,1.10426,-0.181627,0.16936,0.0415895,0.0570361,3.49108,1
1777240182806,0.0408237,1.09474,-0.183613,0.167461,0.0426522,0.05194,3.53645,1
1777240182820,0.040944,1.08822,-0.182749,0.163951,0.0446058,0.047104,3.42286,1
1777240182833,0.0409891,1.08349,-0.18418,0.160051,0.0454693,0.0420425,3.48768,1
1777240182847,0.0416342,1.07908,-0.184092,0.155496,0.0459547,0.0372864,3.48283,1
1777240182860,0.0412435,1.07671,-0.183503,0.151018,0.0453466,0.0334651,3.38679,1
1777240182874,0.0409431,1.07352,-0.183289,0.146221,0.0437108,0.0301749,3.51247,1
1777240182888,0.0406048,1.06975,-0.183457,0.141106,0.0414088,0.0272363,3.78144,1
1777240182902,0.0401759,1.06781,-0.183218,0.13618,0.038341,0.0241842,3.48979,1
1777240182915,0.0396616,1.0653,-0.182636,0.131376,0.0350771,0.0213376,3.41712,1
1777240182929,0.0400936,1.06209,-0.183019,0.126764,0.031932,0.0178542,3.52436,1
1777240182942,0.0392825,1.0593,-0.182859,0.122308,0.0291946,0.0139582,3.41731,1
1777240182956,0.0392291,1.05711,-0.182928,0.118531,0.0271845,0.00946712,3.44801,1
1777240182969,0.038179,1.05404,-0.18228,0.114956,0.0262505,0.00515948,3.45301,1
1777240182983,0.0369276,1.0521,-0.181779,0.111882,0.0262682,0.0016287,3.37068,1
1777240182997,0.0353218,1.05113,-0.181525,0.109597,0.0267344,-0.00113454,3.48379,1
1777240183010,0.0343129,1.04863,-0.181298,0.107436,0.0267849,-0.00323752,3.39401,4
1777240183024,0.0330044,1.04589,-0.181674,0.105049,0.0250983,-0.00442184,3.43225,4
1777240183037,0.0320022,1.04318,-0.181877,0.102784,0.0232965,-0.00521002,3.45688,4
1777240183051,0.0304536,1.04098,-0.182686,0.100482,0.0215573,-0.00572276,3.45807,4
1777240183064,0.0303202,1.03877,-0.183503,0.0982029,0.0197658,-0.00641656,3.46381,4
1777240183078,0.0300574,1.03698,-0.18459,0.0961756,0.0179591,-0.00712283,3.41514,4
1777240183092,0.0293711,1.0341,-0.185575,0.094155,0.0164251,-0.00784086,3.9581,4
1777240183106,0.028422,1.0319,-0.186053,0.0922691,0.0150585,-0.00891682,3.3969,4
1777240183119,0.0281014,1.03041,-0.187065,0.0905704,0.0137685,-0.0102407,3.49414,4
1777240183133,0.0274974,1.02775,-0.187364,0.088907,0.0127178,-0.0117773,3.40825,4
1777240183146,0.0266671,1.02557,-0.187933,0.0875425,0.011739,-0.0134545,3.53179,4
1777240183160,0.0256232,1.02414,-0.189648,0.0861217,0.0107808,-0.0151448,3.42477,4
1777240183173,0.0256375,1.02273,-0.190239,0.0846179,0.00957233,-0.0175923,3.46446,4
1777240183187,0.0249527,1.02105,-0.19166,0.0830273,0.00805485,-0.0202365,3.4857,4
1777240183201,0.0243199,1.01947,-0.192454,0.0814616,0.00637414,-0.0229765,3.46205,4
1777240183214,0.0236542,1.01949,-0.193149,0.0801849,0.00442375,-0.0256441,3.45883,4
1777240183228,0.0209031,1.01646,-0.195091,0.0783933,0.00274547,-0.0280294,3.39497,4
1777240183241,0.0206207,1.01415,-0.196446,0.0763382,0.0011185,-0.0306705,3.46451,4
1777240183255,0.0200392,1.01195,-0.197889,0.0739188,-0.000601316,-0.0337972,3.39585,4
1777240183268,0.0168473,1.01058,-0.199716,0.0711256,-0.00231459,-0.0358151,3.43064,4
1777240183282,0.0144918,1.0108,-0.200619,0.0680652,-0.00356352,-0.0362339,3.33833,4
1777240183295,0.0110633,1.01174,-0.201143,0.0655104,-0.00422,-0.034604,3.4321,4
1777240183309,0.00773122,1.01386,-0.201309,0.0632787,-0.0043601,-0.0310273,3.39529,4
1777240183322,0.00673608,1.01649,-0.201274,0.0620543,-0.00418404,-0.026782,3.35546,4
1777240183336,0.00589263,1.01939,-0.201419,0.0617122,-0.00364105,-0.0219056,3.37449,4
1777240183349,0.00545254,1.02007,-0.201419,0.0620101,-0.00288446,-0.0164978,3.34844,4
1777240183363,0.00462631,1.02061,-0.201378,0.0625225,-0.00205897,-0.0110208,3.48457,4
1777240183376,0.00116231,1.02222,-0.203448,0.0632716,-0.000924394,-0.00458353,3.4102,4
1777240183390,0.00261719,1.02288,-0.203758,0.0637603,-1.61702e-05,0.0026316,3.43992,4
1777240183404,0.00375767,1.02748,-0.200751,0.0704689,0.00019883,0.0102384,3.50446,4
1777240183417,0.0109693,1.03977,-0.200473,0.0804365,-0.00222301,0.0129569,3.41779,4
1777240183431,0.00976512,1.06337,-0.198636,0.0991152,-0.00530543,0.0194922,3.50153,4
1777240183444,0.0146267,1.12454,-0.183249,0.131793,-0.00993626,0.0369864,3.44546,4
1777240183458,0.0133954,1.14353,-0.179146,0.178257,-0.0137593,0.0431457,3.50075,4
1777240183472,0.0239693,1.16999,-0.172439,0.234507,-0.0201682,0.0484158,3.48212,4
1777240183485,0.0312386,1.19761,-0.165793,0.302884,-0.0286111,0.0475926,3.48525,4
1777240183499,0.0415649,1.23145,-0.163231,0.381693,-0.040751,0.0438226,3.47936,4
1777240183512,0.056283,1.25549,-0.158772,0.470926,-0.0588983,0.0368557,3.3989,4
1777240183526,0.0735032,1.28936,-0.151701,0.570303,-0.0840047,0.033491,3.48123,4
1777240183539,0.0918802,1.33406,-0.141535,0.677671,-0.116605,0.0349522,3.39508,4
1777240183553,0.111541,1.37638,-0.133089,0.779963,-0.15326,0.035655,3.5149,4
1777240183567,0.122224,1.41291,-0.138867,0.876517,-0.19071,0.0284269,3.38842,4
1777240183580,0.129528,1.44321,-0.135459,0.967655,-0.221825,0.012882,3.46349,4
1777240183594,0.157868,1.45278,-0.106813,1.05368,-0.261634,-0.000296506,3.43338,4
1777240183607,0.171938,1.42486,-0.105135,1.13488,-0.2987,-0.0278294,3.54853,4
1777240183621,0.178124,1.42167,-0.0890218,1.21153,-0.333375,-0.0862616,3.43788,4
1777240183634,0.184032,1.40772,-0.0667323,1.28387,-0.36968,-0.15272,3.49881,4
1777240183648,0.147197,1.4133,-0.0565801,1.35216,-0.379358,-0.229988,3.46781,4
1777240183662,0.123041,1.3663,-0.060103,1.41662,-0.36737,-0.284497,3.38197,4
1777240183675,0.0974188,1.28076,-0.0741921,1.47746,-0.335794,-0.311794,3.4262,4
1777240183689,0.0764523,1.17832,-0.0919963,1.52269,-0.288514,-0.318433,3.37203,4
1777240183702,0.0610714,1.08588,-0.107871,1.52221,-0.229426,-0.313331,3.5839,4
1777240183716,0.05136,1.00255,-0.120664,1.48178,-0.162481,-0.302431,3.5072,4
1777240183729,0.0475752,0.921518,-0.130849,1.40658,-0.0926248,-0.286932,3.41647,4
1777240183743,0.0506994,0.852066,-0.137683,1.30266,-0.027132,-0.270726,3.49505,4
1777240183757,0.056798,0.794918,-0.143559,1.17719,0.0317626,-0.255925,3.48694,4
1777240183770,0.0624587,0.749234,-0.148557,1.03634,0.0828277,-0.242225,3.45966,4
1777240183784,0.0687057,0.709426,-0.152234,0.883744,0.124965,-0.231464,3.38807,4
1777240183797,0.0753554,0.67422,-0.154952,0.721179,0.156433,-0.221409,3.43701,4
1777240183811,0.0789892,0.64796,-0.155394,0.551761,0.178367,-0.2106,3.44227,4
1777240183825,0.0803786,0.628979,-0.15547,0.380503,0.191707,-0.199866,3.56995,4
1777240183838,0.0801837,0.617485,-0.156362,0.218852,0.198604,-0.189644,3.48699,4
1777240183852,0.079274,0.612579,-0.156397,0.0662677,0.200408,-0.180124,3.48055,4
1777240183865,0.0767445,0.615714,-0.156882,-0.0777576,0.19752,-0.16734,3.46933,4
1777240183879,0.0721385,0.626382,-0.159038,-0.213704,0.191489,-0.149103,3.49768,4
1777240183893,0.0669554,0.641903,-0.164825,-0.342025,0.184096,-0.126399,3.47483,4
1777240183906,0.0614468,0.662674,-0.173902,-0.463148,0.177208,-0.105098,3.46205,4
1777240183920,0.0552886,0.686635,-0.185059,-0.577477,0.172248,-0.0905833,3.52823,4
1777240183933,0.0463124,0.713209,-0.198617,-0.685393,0.171111,-0.0843162,3.4984,4
1777240183947,0.0370044,0.740526,-0.215481,-0.787256,0.175224,-0.0832691,3.39749,4
1777240183960,0.0296016,0.765584,-0.23281,-0.883405,0.184509,-0.0850725,3.48623,4
1777240183974,0.0227784,0.794892,-0.250372,-0.974161,0.198434,-0.08257,3.40079,4
1777240183988,0.0139003,0.824255,-0.270235,-1.05983,0.217233,-0.0711645,3.44834,4
1777240184001,0.00300036,0.851327,-0.289683,-1.14069,0.242189,-0.0551921,3.5674,4
1777240184015,-0.0083289,0.882098,-0.310244,-1.21701,0.274536,-0.046123,3.45551,4
1777240184028,-0.0148185,0.917702,-0.330693,-1.28905,0.311679,-0.0484514,3.36896,4
1777240184042,-0.00718115,0.958746,-0.350845,-1.35706,0.346161,-0.0617093,3.54216,4
1777240184055,0.0170089,1.00018,-0.372139,-1.41415,0.369451,-0.0794089,3.41864,4
1777240184069,0.0527422,1.03169,-0.394388,-1.46005,0.375053,-0.0890505,3.3707,4
1777240184083,0.0913053,1.05365,-0.415267,-1.49982,0.361611,-0.0774485,3.5166,4
1777240184096,0.126035,1.07431,-0.43355,-1.53297,0.331954,-0.0471091,3.42347,4
1777240184110,0.151147,1.09613,-0.450574,-1.55412,0.291608,-0.0111708,3.49592,5
1777240184123,0.162074,1.11981,-0.467931,-1.55685,0.246674,0.020268,3.38422,5
1777240184137,0.162404,1.13855,-0.487218,-1.53992,0.201764,0.0432552,3.44555,5
1777240184150,0.155349,1.1521,-0.506546,-1.50608,0.158859,0.06026,3.49077,5
1777240184164,0.144252,1.16155,-0.525529,-1.4575,0.1195,0.0741186,3.40825,5
1777240184177,0.131327,1.16758,-0.544351,-1.39599,0.0856972,0.0815307,3.44694,5
1777240184191,0.119605,1.17267,-0.563062,-1.32164,0.0585474,0.0797236,3.47412,5
1777240184205,0.101996,1.16335,-0.563606,-1.13067,0.0451496,-0.0026611,3.98836,5
1777240184219,0.119719,1.22321,-0.52472,-0.972089,0.00777125,-0.104476,3.51244,5
1777240184232,0.0719754,1.2688,-0.478416,-0.819999,-0.000598956,-0.16382,3.53086,5
1777240184246,0.0378515,1.27175,-0.433216,-0.667677,0.0226894,-0.180386,3.37912,5
1777240184259,0.0352353,1.25684,-0.402986,-0.522429,0.0464485,-0.194824,3.41418,5
1777240184273,0.0308897,1.23782,-0.380628,-0.393807,0.0609192,-0.199161,3.40296,5
1777240184286,0.0390718,1.22263,-0.364372,-0.279405,0.0613472,-0.199384,3.37644,5
1777240184300,0.0323747,1.20726,-0.353013,-0.18167,0.0545491,-0.187403,3.42299,5
1777240184314,0.0226023,1.19082,-0.348919,-0.10193,0.0463982,-0.167822,3.52518,5
1777240184327,0.0162127,1.16953,-0.346246,-0.0401326,0.0428022,-0.145897,3.50988,5
1777240184341,0.0149884,1.15514,-0.348941,0.00540394,0.0444305,-0.126187,3.3789,5
1777240184354,0.0204197,1.14506,-0.346924,0.0347056,0.043467,-0.110237,3.55255,1
1777240184368,0.0205205,1.13369,-0.341912,0.0569728,0.0445656,-0.0974976,3.44825,1
1777240184381,0.0281613,1.12159,-0.337948,0.0719193,0.0466388,-0.0928038,3.37103,1
1777240184395,0.0360993,1.10865,-0.335466,0.0794077,0.0506811,-0.0958793,3.5047,1
1777240184409,0.0390455,1.10166,-0.327098,0.0854056,0.0540041,-0.100422,3.48301,1
1777240184422,0.0397037,1.09548,-0.319665,0.0891059,0.0535569,-0.106132,3.44505,1
1777240184436,0.0396267,1.09165,-0.312552,0.0913912,0.05203,-0.112168,3.59005,1
1777240184450,0.0364179,1.08689,-0.307661,0.0927861,0.0473688,-0.11754,3.48736,1
1777240184463,0.0295136,1.08244,-0.301359,0.0930537,0.0450372,-0.119832,3.37573,1
1777240184476,0.0233253,1.07839,-0.296068,0.0922744,0.0440395,-0.117807,3.36351,1
1777240184490,0.0186892,1.07554,-0.290224,0.091633,0.0448749,-0.112552,3.4639,1
1777240184504,0.0164768,1.07219,-0.284928,0.0908135,0.047406,-0.105425,3.46277,1
1777240184517,0.0156759,1.06886,-0.279942,0.0899329,0.0504504,-0.0977049,3.48786,1
1777240184531,0.0159743,1.0648,-0.275264,0.0887335,0.0532383,-0.0910041,3.3846,1
1777240184544,0.0205012,1.0592,-0.270752,0.0872716,0.0546623,-0.0868586,3.43371,1
1777240184558,0.0200771,1.05592,-0.266424,0.0862129,0.0521357,-0.0837677,3.35957,1
1777240184571,0.018184,1.05388,-0.26338,0.0846055,0.0494468,-0.0791589,3.44575,1
1777240184585,0.0159315,1.05236,-0.259302,0.0824717,0.0467331,-0.0728732,3.36055,1
1777240184598,0.0136,1.05035,-0.256247,0.0797468,0.0440176,-0.0648377,3.38094,1
1777240184612,0.012618,1.0481,-0.253335,0.0769864,0.0408934,-0.0556729,3.49666,1
1777240184625,0.0118281,1.04576,-0.251067,0.0744664,0.0386381,-0.0457162,3.51668,1
1777240184639,0.0116165,1.04406,-0.248419,0.0723276,0.0373186,-0.0356201,3.50164,1
1777240184653,0.0113758,1.04144,-0.24748,0.0704158,0.0365998,-0.026557,3.39666,1
1777240184666,0.0137504,1.0387,-0.245431,0.0685127,0.0362168,-0.0191455,3.53653,1
1777240184680,0.0159234,1.03524,-0.242921,0.0667464,0.0344764,-0.0141152,3.5116,5
1777240184693,0.0183717,1.03184,-0.241195,0.0650577,0.0323756,-0.0113666,3.43838,5
1777240184707,0.0212441,1.0288,-0.239087,0.0636307,0.03011,-0.0105963,3.45062,5
1777240184720,0.0222162,1.02569,-0.237398,0.0618771,0.0275561,-0.0110124,3.44151,5
1777240184734,0.0221751,1.02384,-0.236188,0.0599777,0.0250341,-0.0116707,3.4964,4
1777240184748,0.0212189,1.02296,-0.234649,0.0582276,0.0225552,-0.0118254,3.42214,4
1777240184761,0.0197274,1.02246,-0.23336,0.0568198,0.0201938,-0.0109009,3.4386,4
1777240184775,0.0186345,1.02177,-0.232691,0.055324,0.0180806,-0.00863232,3.50531,4
1777240184788,0.0179727,1.02192,-0.231868,0.0539892,0.0161115,-0.00510371,3.48612,4
1777240184802,0.0159786,1.02013,-0.231241,0.052468,0.0139917,-0.000514154,3.42434,4
1777240184816,0.0132199,1.02099,-0.230828,0.0513105,0.0123848,0.00605737,3.49007,4
1777240184829,0.0136287,1.01959,-0.230603,0.0505305,0.0105254,0.0131038,3.48472,4
1777240184843,0.0152196,1.01923,-0.230089,0.0499954,0.00854343,0.020226,3.39172,4
1777240184856,0.0187618,1.0194,-0.229042,0.0503126,0.00617591,0.0259082,3.44518,4
1777240184870,0.0231187,1.0176,-0.227752,0.0507446,0.00352156,0.0295204,3.35934,4
1777240184883,0.0273134,1.01825,-0.227398,0.0514693,0.000322445,0.0309389,3.69201,4
1777240184897,0.0302047,1.0175,-0.227009,0.0526757,-0.00303121,0.0310918,3.4347,4
1777240184911,0.0308932,1.01722,-0.226628,0.0547608,-0.00591844,0.0312275,3.39214,4
1777240184924,0.0328716,1.02094,-0.226309,0.0580091,-0.00896056,0.0303622,3.4754,4
1777240184938,0.0346978,1.02435,-0.224831,0.0633233,-0.0115066,0.0296825,3.5011,4
1777240184951,0.0359834,1.03115,-0.223832,0.070446,-0.0143038,0.0285699,3.47277,4
1777240184965,0.0350469,1.04196,-0.221972,0.0811085,-0.0166743,0.0306112,3.39888,4
1777240184979,0.0354638,1.06183,-0.217847,0.0975529,-0.0195756,0.0389865,3.51133,4
1777240184992,0.0333377,1.08567,-0.21505,0.122452,-0.0218345,0.0481423,3.42471,4
1777240185006,0.0339327,1.10627,-0.211656,0.156385,-0.0249644,0.056078,3.56703,4
1777240185019,0.0304681,1.12246,-0.210314,0.196243,-0.0273664,0.0618216,3.48644,4
1777240185033,0.0294027,1.13316,-0.209391,0.241486,-0.0287302,0.0675556,3.38718,4
1777240185046,0.0286162,1.1497,-0.208231,0.291851,-0.0307753,0.0758326,3.43838,4
1777240185060,0.0291611,1.15271,-0.207959,0.348465,-0.0332796,0.0825362,3.48921,4
1777240185074,0.0294974,1.16619,-0.209591,0.408797,-0.0353307,0.0877506,3.46205,4
1777240185087,0.0339094,1.18725,-0.208092,0.477768,-0.0396133,0.0962649,3.50583,4
1777240185101,0.0358007,1.20679,-0.204184,0.551905,-0.0465417,0.107346,3.50479,4
1777240185114,0.0336419,1.22644,-0.203782,0.630199,-0.0569222,0.123394,3.37273,4
1777240185128,0.0252363,1.2567,-0.201308,0.716562,-0.0661039,0.145674,3.47621,4
1777240185141,0.018165,1.29578,-0.196096,0.811996,-0.0769329,0.174798,3.47151,4
1777240185155,0.0178445,1.34293,-0.188493,0.906753,-0.0853389,0.211426,3.49681,4
1777240185169,0.0169394,1.35881,-0.196161,0.996195,-0.0939115,0.255372,3.46897,4
1777240185182,0.0279445,1.34742,-0.204796,1.08062,-0.101686,0.275024,3.52379,4
1777240185196,0.0483429,1.38004,-0.210837,1.16031,-0.112236,0.278275,3.48579,4
1777240185209,0.0573536,1.36551,-0.215334,1.23553,-0.123719,0.30924,3.50805,4
1777240185223,0.0786085,1.36442,-0.205899,1.30653,-0.142535,0.373176,3.51816,4
1777240185237,0.100123,1.37043,-0.190392,1.37355,-0.178065,0.454049,3.4276,4
1777240185250,0.120964,1.38062,-0.160157,1.4368,-0.235045,0.554129,3.49264,4
1777240185264,0.147963,1.36345,-0.16647,1.49651,-0.31667,0.651533,3.46775,4
1777240185277,0.144142,1.30434,-0.171621,1.55288,-0.404892,0.7126,3.38649,4
1777240185291,0.122485,1.22507,-0.185138,1.58627,-0.484359,0.748803,3.49644,4
1777240185304,0.0924164,1.14077,-0.198294,1.57972,-0.543812,0.751294,3.39312,4
1777240185318,0.0519146,1.05185,-0.212245,1.53406,-0.575609,0.730668,3.67075,4
1777240185332,0.0133423,0.971098,-0.22273,1.45561,-0.578467,0.683415,3.48305,4
1777240185345,-0.0170546,0.897482,-0.229519,1.34917,-0.55824,0.618734,3.45557,4
1777240185359,-0.0405014,0.844141,-0.231434,1.22373,-0.522872,0.552736,3.49627,4
1777240185373,-0.0572238,0.801201,-0.230572,1.08539,-0.478925,0.495899,3.40607,4
1777240185386,-0.0663664,0.761135,-0.227732,0.936777,-0.430883,0.451992,3.50053,4
1777240185400,-0.0688199,0.724699,-0.223845,0.779287,-0.381874,0.417235,3.40381,4
1777240185413,-0.0635765,0.691677,-0.218931,0.613833,-0.337045,0.384835,3.44301,4
1777240185427,-0.0520402,0.660876,-0.214292,0.440412,-0.300451,0.349992,3.50196,4
1777240185440,-0.0386997,0.633557,-0.20827,0.2754,-0.275086,0.311645,3.4961,4
1777240185454,-0.0254775,0.610741,-0.200052,0.119644,-0.261116,0.271872,3.50647,4
1777240185468,-0.0134626,0.597983,-0.190543,-0.0273748,-0.258073,0.237983,3.40338,4
1777240185481,-0.00101239,0.596527,-0.181731,-0.166147,-0.263953,0.218511,3.54429,4
1777240185495,0.00585053,0.601123,-0.173591,-0.297136,-0.275198,0.217892,3.47549,4
1777240185509,0.00371469,0.615774,-0.166333,-0.420777,-0.286403,0.234248,3.5616,4
1777240185523,-0.0115165,0.641078,-0.162837,-0.537483,-0.288536,0.256421,3.82884,4
1777240185536,-0.0344797,0.668743,-0.164247,-0.647642,-0.275678,0.268799,3.53838,4
1777240185550,-0.0589074,0.706743,-0.166853,-0.751622,-0.246016,0.265997,3.50029,4
1777240185563,-0.0801025,0.74865,-0.170531,-0.84977,-0.203014,0.251458,3.3926,4
1777240185577,-0.0941927,0.792247,-0.176084,-0.942413,-0.152225,0.234296,3.49777,4
1777240185590,-0.101357,0.832645,-0.180162,-1.02986,-0.0963761,0.218923,3.43279,4
1777240185604,-0.101437,0.866367,-0.180847,-1.1124,-0.0383289,0.204609,3.5044,4
1777240185618,-0.091338,0.900992,-0.179111,-1.19031,0.0192027,0.185527,3.41433,4
1777240185631,-0.0662481,0.955818,-0.176692,-1.26385,0.068977,0.159008,3.5374,4
1777240185645,-0.0258447,1.02482,-0.179955,-1.33327,0.102274,0.132709,3.48707,4
1777240185658,0.0267126,1.09283,-0.19458,-1.39879,0.112907,0.112334,3.47905,4
1777240185672,0.0741582,1.14814,-0.221243,-1.46064,0.101342,0.106097,3.49307,4
1777240185686,0.103262,1.2008,-0.2569,-1.51901,0.0727919,0.118973,3.41755,4
1777240185699,0.107385,1.24888,-0.302444,-1.5602,0.0401017,0.143073,3.52634,4
1777240185713,0.0968832,1.28278,-0.352336,-1.57466,0.0123795,0.158898,3.47077,4
1777240185727,0.0749059,1.30737,-0.407152,-1.5628,-0.00842255,0.164072,3.59355,5
1777240185740,0.0515321,1.32582,-0.465905,-1.52379,-0.0221916,0.159031,3.45897,5
1777240185754,0.0366589,1.3306,-0.524595,-1.4618,-0.0304911,0.137423,3.4931,5
1777240185767,0.0284538,1.33835,-0.578555,-1.37722,-0.0364924,0.107021,3.48277,5
1777240185781,0.025324,1.34434,-0.621873,-1.27198,-0.0419644,0.0778489,3.39377,5
1777240185794,0.0204662,1.34982,-0.652081,-1.15144,-0.045391,0.0498206,3.49877,5
1777240185808,-0.0999467,1.49847,-0.495171,-0.983981,-0.0604862,0.0230348,3.41079,5
1777240185822,-0.0877397,1.47901,-0.391583,-0.838508,-0.0803354,-0.0155695,3.50505,5
1777240185835,-0.0782716,1.42635,-0.356362,-0.65117,-0.0711234,-0.0523851,3.48758,5
1777240185849,-0.094368,1.38657,-0.327513,-0.49167,-0.0674422,-0.0617356,3.49286,5
1777240185862,-0.0854046,1.35837,-0.309525,-0.348887,-0.0708656,-0.0659672,3.47538,5
1777240185876,-0.0771494,1.33519,-0.292273,-0.226004,-0.0810635,-0.0736824,3.4551,5
1777240185890,-0.0815726,1.31656,-0.2757,-0.117174,-0.0899444,-0.0701531,3.50905,5
1777240185903,-0.086679,1.29719,-0.268,-0.0259702,-0.091292,-0.0562199,3.44192,5
1777240185917,-0.085131,1.27575,-0.265484,0.0446129,-0.0900078,-0.0423832,3.50179,5
1777240185930,-0.089175,1.25727,-0.260056,0.0976762,-0.0836402,-0.0249208,3.48171,5
1777240185944,-0.0885141,1.23847,-0.253206,0.135615,-0.0757073,-0.00416034,3.53272,1
1777240185958,-0.0807007,1.22022,-0.247699,0.161574,-0.0695081,0.0123527,3.4337,1
1777240185971,-0.0767218,1.20532,-0.240981,0.181538,-0.0607408,0.0270959,3.55755,1
1777240185985,-0.0659819,1.18877,-0.23768,0.196095,-0.0503157,0.0359595,3.50464,1
1777240185999,-0.0503119,1.17377,-0.233454,0.206227,-0.0407195,0.0383271,3.39881,1
1777240186012,-0.0404371,1.1605,-0.232356,0.213641,-0.0320469,0.0341605,3.49425,1
1777240186026,-0.0322118,1.14549,-0.2324,0.216262,-0.0229316,0.0250294,3.40194,1
1777240186039,-0.026639,1.13422,-0.23121,0.214772,-0.0131244,0.0146121,3.52355,1
1777240186053,-0.0224606,1.12707,-0.227553,0.212308,-0.00420985,0.00614081,3.40314,1
1777240186067,-0.0191329,1.12112,-0.223828,0.209455,0.00417896,-0.00111029,3.45275,1
1777240186080,-0.0170189,1.11546,-0.220516,0.205349,0.00996485,-0.00631899,3.47647,1
1777240186094,-0.0145442,1.10978,-0.217624,0.200464,0.0139661,-0.00954846,3.49079,1
1777240186107,-0.0116468,1.10467,-0.215468,0.194991,0.0167966,-0.0116077,3.5001,1
1777240186121,-0.0102403,1.09912,-0.21253,0.189166,0.0194812,-0.0125537,3.38677,1
1777240186134,-0.00818694,1.09429,-0.209483,0.183432,0.0218781,-0.0125603,3.50788,1
1777240186148,-0.00571463,1.08993,-0.206483,0.177823,0.0237853,-0.0122155,3.46353,1
1777240186162,-0.00212111,1.08591,-0.203378,0.172589,0.0250716,-0.0122325,3.4524,1
1777240186175,0.000969556,1.08109,-0.200748,0.167078,0.0255707,-0.0133533,3.51712,1
1777240186189,0.004777,1.07737,-0.199183,0.162095,0.0251383,-0.0163637,3.51033,1
1777240186203,0.00848044,1.07322,-0.197446,0.156835,0.0247259,-0.0215347,3.49238,1
1777240186216,0.00993566,1.06892,-0.195971,0.151571,0.0237972,-0.0277772,3.4051,1
1777240186230,0.0117612,1.06429,-0.194208,0.146323,0.0226165,-0.0355493,3.69316,1
1777240186244,0.011348,1.05994,-0.193846,0.141532,0.0213607,-0.0412026,3.42392,1
1777240186257,0.0104375,1.05762,-0.193887,0.137074,0.0199741,-0.0453314,3.50459,1
1777240186271,0.00834569,1.05479,-0.193679,0.132349,0.0184983,-0.0469292,3.40297,4
1777240186284,0.007275,1.05215,-0.193675,0.127794,0.0168912,-0.0471272,3.49312,4
1777240186298,0.00664782,1.04931,-0.192397,0.122985,0.0152801,-0.0464362,3.4747,4
1777240186312,0.0075759,1.04636,-0.191986,0.118232,0.0132797,-0.046422,3.98847,4
1777240186326,0.00810956,1.0432,-0.190899,0.113544,0.0111261,-0.047128,3.48283,4
1777240186339,0.0085859,1.04008,-0.190037,0.108708,0.00883207,-0.0484837,3.46066,4
1777240186353,0.0078441,1.03753,-0.189703,0.103899,0.00679947,-0.049378,3.48859,4
1777240186366,0.00574708,1.03515,-0.190141,0.0987431,0.00497509,-0.0489719,3.38534,4
1777240186380,0.00467152,1.03271,-0.190376,0.0933756,0.00309032,-0.0469486,3.49762,4
1777240186394,0.00339609,1.03011,-0.190694,0.0879067,0.00125562,-0.0441738,3.40823,4
1777240186408,0.0031919,1.0272,-0.190693,0.0816185,-0.000908646,-0.0407882,3.88932,4
1777240186421,0.00345108,1.0236,-0.190309,0.0749893,-0.00318701,-0.037978,3.46647,4
1777240186436,0.00421611,1.02251,-0.189411,0.0686249,-0.00556023,-0.0359247,4.22188,4
1777240186449,0.00484237,1.02223,-0.18888,0.0628573,-0.00812148,-0.0346761,3.44331,4
1777240186463,0.00506375,1.02128,-0.188337,0.0576958,-0.010963,-0.0342468,3.35468,4
1777240186476,0.00347874,1.02165,-0.187564,0.053449,-0.0133154,-0.0334177,3.44327,4
1777240186490,0.00192786,1.02138,-0.18678,0.0499885,-0.0150263,-0.0319286,3.36592,4
1777240186503,3.94453e-05,1.02081,-0.186807,0.046919,-0.0163029,-0.0292984,3.43718,4
1777240186517,-0.00190738,1.02081,-0.186914,0.0441373,-0.0171098,-0.025711,3.40781,4
1777240186530,-0.00219753,1.02116,-0.186029,0.0418885,-0.0174945,-0.022038,3.40281,4
1777240186544,-0.00262204,1.02241,-0.185249,0.0406564,-0.0174766,-0.0188279,3.5132,4
1777240186557,-0.00280363,1.02556,-0.183335,0.0407609,-0.0164107,-0.0154467,3.41247,4
1777240186571,-0.00111259,1.02788,-0.181788,0.0421912,-0.0148993,-0.0123965,3.38846,4
1777240186584,0.0009629,1.02674,-0.181068,0.0440936,-0.0135198,-0.0108705,3.43014,4
1777240186598,0.000525444,1.02897,-0.179772,0.0463218,-0.0119222,-0.00873639,3.41033,4
1777240186611,-0.00117475,1.0309,-0.17837,0.0480268,-0.00969909,-0.00404155,3.42783,4
1777240186625,-0.00136905,1.03477,-0.178307,0.0505096,-0.00769493,0.00133195,3.48033,4
1777240186639,0.000268909,1.03546,-0.175467,0.058912,-0.00551202,0.00720902,3.46742,4
1777240186652,0.00360896,1.04531,-0.172171,0.0719599,-0.00414094,0.0111807,3.38968,4
1777240186666,0.00153039,1.06663,-0.165937,0.0956143,-0.00246567,0.0160943,3.41107,4
1777240186679,0.00456688,1.11888,-0.153247,0.128454,-0.00312379,0.0390972,3.47775,4
1777240186693,0.000859712,1.15766,-0.141035,0.182843,-0.00746166,0.0527984,3.45523,4
1777240186706,0.00163315,1.179,-0.135001,0.247438,-0.00973641,0.066095,3.47644,4
1777240186720,-0.000498924,1.20231,-0.129222,0.320412,-0.0133565,0.0803543,3.45881,4
1777240186733,-0.00496271,1.22547,-0.121919,0.402438,-0.0154847,0.0916214,3.47151,4
1777240186747,-0.00206871,1.2392,-0.117846,0.494546,-0.0184912,0.0981545,3.50175,4
1777240186761,0.0050315,1.26749,-0.11062,0.590821,-0.0248145,0.104689,3.49077,4
1777240186774,0.0166771,1.31001,-0.098321,0.693869,-0.0361783,0.112977,3.40438,4
1777240186788,0.0355301,1.36495,-0.0859861,0.795252,-0.0520258,0.120038,3.43312,4
1777240186801,0.0570231,1.42068,-0.0785473,0.890949,-0.075548,0.128154,3.35133,4
1777240186815,0.0441289,1.48137,-0.0905473,0.981277,-0.0931864,0.101162,3.45086,4
1777240186828,0.044639,1.51283,-0.0807574,1.06654,-0.105031,0.068679,3.47071,4
1777240186842,0.0508173,1.47787,-0.0660525,1.14702,-0.118601,0.0783787,3.56018,4
1777240186856,0.0703847,1.49826,-0.0523643,1.22298,-0.141258,0.105908,3.50114,4
1777240186869,0.0870467,1.4825,-0.0289949,1.29469,-0.171789,0.134548,3.40146,4
1777240186883,0.10109,1.48189,0.00303312,1.36237,-0.210247,0.139384,3.4876,5
1777240186896,0.102486,1.46823,-0.00165618,1.42625,-0.244788,0.115577,3.4087,5
1777240186910,0.0864799,1.4078,-0.00317922,1.48656,-0.270065,0.0884038,3.49596,4
1777240186923,0.0727962,1.31188,-0.0182976,1.54347,-0.283177,0.0597321,3.42953,4
1777240186937,0.0467333,1.17062,-0.0430441,1.59395,-0.280207,0.0336834,3.46512,4
1777240186950,0.0241728,1.02393,-0.0677036,1.57429,-0.258015,0.00410322,3.4766,4
1777240186964,0.00756129,0.91554,-0.086803,1.49939,-0.221127,-0.0304546,3.47058,4
1777240186978,0.000796636,0.826991,-0.102654,1.3832,-0.177851,-0.0666922,3.48359,4
1777240186991,0.00583259,0.757665,-0.113986,1.23771,-0.138459,-0.10437,3.41221,4
1777240187005,0.0171731,0.709085,-0.122999,1.07632,-0.110353,-0.138709,3.4809,4
1777240187018,0.0316982,0.673871,-0.129931,0.90921,-0.0964388,-0.165616,3.40257,4
1777240187032,0.045751,0.643221,-0.134954,0.741503,-0.0954653,-0.180412,3.5119,4
1777240187045,0.0571667,0.619795,-0.140818,0.576208,-0.107773,-0.182307,3.48192,4
1777240187059,0.061492,0.60001,-0.145655,0.416005,-0.127804,-0.173447,3.53008,4
1777240187073,0.0577826,0.583267,-0.150782,0.261773,-0.150609,-0.157411,3.4811,4
1777240187086,0.046763,0.568367,-0.156375,0.113337,-0.170185,-0.136463,3.38846,4
1777240187100,0.0315684,0.552549,-0.161942,-0.0312086,-0.18228,-0.11276,3.48816,4
1777240187113,0.0148844,0.535688,-0.165402,-0.169766,-0.185458,-0.0858139,3.41162,4
1777240187127,-0.000521339,0.519019,-0.16823,-0.300552,-0.179457,-0.0571847,3.49272,4
1777240187140,-0.0148986,0.505313,-0.169393,-0.424001,-0.164423,-0.0304354,3.48766,4
1777240187154,-0.0257717,0.496976,-0.167095,-0.540526,-0.141944,-0.00791407,3.48801,4
1777240187168,-0.0295437,0.498762,-0.160393,-0.650515,-0.115394,0.0133782,3.48646,4
1777240187181,-0.025983,0.512019,-0.150423,-0.754334,-0.0888182,0.0395351,3.46507,4
1777240187195,-0.0174866,0.540801,-0.140685,-0.85233,-0.0646834,0.0714953,3.49507,4
1777240187208,-0.00735783,0.57924,-0.133396,-0.944828,-0.0442831,0.105546,3.40738,4
1777240187222,0.00203844,0.627327,-0.131063,-1.03214,-0.0267656,0.135247,3.4457,4
1777240187235,0.00974362,0.674278,-0.133078,-1.11455,-0.0106545,0.149845,3.47649,4
1777240187249,0.0173727,0.725853,-0.136021,-1.19234,0.00499817,0.14326,3.50131,4
1777240187263,0.0206161,0.784683,-0.142332,-1.26577,0.0191306,0.130591,3.48081,4
1777240187276,0.0216508,0.847855,-0.15237,-1.33508,0.0326415,0.126584,3.48751,4
1777240187290,0.0214086,0.92152,-0.162489,-1.4005,0.0473386,0.127114,3.48307,4
1777240187303,0.0230288,1.01032,-0.181531,-1.46225,0.0643798,0.121547,3.3947,4
1777240187317,0.0310904,1.10106,-0.213075,-1.52054,0.0796259,0.104851,3.49116,4
1777240187330,0.0519423,1.17136,-0.260776,-1.5747,0.0887587,0.0861066,3.40203,4
1777240187344,0.0953433,1.2179,-0.322043,-1.60068,0.0867987,0.0703407,3.63158,4
1777240187358,0.127367,1.25023,-0.394554,-1.59841,0.0692171,0.083681,3.40279,4
1777240187371,0.127385,1.2779,-0.473186,-1.56567,0.042812,0.125518,3.49664,4
1777240187385,0.0832786,1.29818,-0.552954,-1.49832,0.0263275,0.156038,3.46757,4
1777240187398,0.0142024,1.29881,-0.630329,-1.40323,0.0375807,0.138354,3.41418,5
1777240187412,0.0190478,1.2119,-0.573006,-1.18421,0.0314777,0.107154,3.46403,5
1777240187425,0.00214861,1.25949,-0.453001,-1.03335,0.00636306,0.0346419,3.48496,5
1777240187439,-0.0154871,1.22094,-0.410912,-0.845708,0.00780024,-0.0213683,3.46714,5
1777240187453,-0.0315995,1.18988,-0.382782,-0.680806,0.0163418,-0.0504554,3.46086,5
1777240187466,-0.0321414,1.17656,-0.355463,-0.536428,0.0169966,-0.0669835,3.50655,5
1777240187480,-0.0229024,1.16904,-0.337688,-0.405796,0.00709838,-0.0845456,3.41451,5
1777240187493,-0.0396122,1.16459,-0.32117,-0.292849,-0.00641513,-0.0826207,3.53303,5
1777240187507,-0.0479487,1.15628,-0.309687,-0.194784,-0.0156381,-0.0727111,3.44394,5
1777240187520,-0.0619116,1.14534,-0.30119,-0.112822,-0.0183705,-0.0557356,3.47577,5
1777240187534,-0.0610407,1.13376,-0.289171,-0.0448736,-0.0174814,-0.0339531,3.43233,5
1777240187548,-0.0631905,1.1224,-0.280181,0.00926992,-0.0168776,-0.0067,3.53664,5
1777240187561,-0.0609332,1.11289,-0.276133,0.04837,-0.0128694,0.0158644,3.44784,5
1777240187575,-0.0574195,1.10014,-0.272695,0.0786657,-0.000111189,0.0326458,3.38014,1
1777240187588,-0.0435718,1.08466,-0.267136,0.102128,0.0119185,0.0414722,3.39318,1
1777240187602,-0.0360334,1.07506,-0.264422,0.120425,0.0230208,0.0434321,3.33125,1
1777240187615,-0.0237277,1.06285,-0.262599,0.132763,0.0360438,0.0368895,3.43418,1
1777240187629,-0.0169874,1.05456,-0.258127,0.139078,0.0458014,0.0269631,3.47357,1
1777240187642,-0.0130218,1.0487,-0.255041,0.141557,0.0521857,0.0168869,3.36575,1
1777240187656,-0.00859388,1.04469,-0.250733,0.140387,0.0557498,0.00897741,3.49742,1
1777240187669,-0.00948128,1.04203,-0.246528,0.137817,0.0562879,0.00539518,3.37288,1
1777240187683,-0.00873034,1.0401,-0.242437,0.133833,0.0554642,0.0053409,3.4042,1
1777240187696,-0.00858299,1.03933,-0.238355,0.129251,0.053749,0.00774746,3.37907,1
1777240187710,-0.00563655,1.03877,-0.233243,0.124943,0.0521214,0.0103787,3.36896,1
1777240187723,-0.001349,1.03765,-0.229733,0.120696,0.0504909,0.0120017,3.3991,1
1777240187737,0.00305411,1.03534,-0.225994,0.116307,0.0490546,0.0116325,3.37005,1
1777240187750,0.00790866,1.03248,-0.223301,0.111641,0.0475191,0.00919447,3.49797,1
1777240187764,0.0111078,1.02988,-0.220307,0.106501,0.0456201,0.00570283,3.38018,1
1777240187777,0.0121965,1.02688,-0.218056,0.100707,0.0428642,0.00235995,3.4109,1
1777240187791,0.0118547,1.02579,-0.214424,0.0949378,0.0388498,0.000540522,3.41744,1
1777240187804,0.0111624,1.02511,-0.211942,0.0892743,0.0339945,0.00080137,3.49818,1
1777240187818,0.00979676,1.02362,-0.209996,0.0837871,0.0286279,0.00354819,3.41016,1
1777240187831,0.00937049,1.02309,-0.206652,0.078445,0.0233954,0.00790507,3.37707,1
1777240187845,0.0111045,1.02239,-0.203004,0.0740534,0.0185762,0.0120347,3.47305,1
1777240187859,0.0133985,1.02166,-0.200299,0.0707088,0.014113,0.0150163,3.49042,5
1777240187872,0.0155091,1.0196,-0.198239,0.0676632,0.0101442,0.0164734,3.4689,5
1777240187886,0.0181312,1.01876,-0.196034,0.0652038,0.00695473,0.0162002,3.37345,5
1777240187899,0.019319,1.01819,-0.193898,0.0632163,0.00451361,0.0145679,3.45016,5
1777240187913,0.0207825,1.01748,-0.19202,0.0614901,0.0024021,0.0118753,3.36131,5
1777240187926,0.0206439,1.01667,-0.191081,0.0597237,0.000897164,0.00953923,3.36455,5
1777240187940,0.0210744,1.0168,-0.189634,0.0582748,1.61581e-05,0.00721433,3.39381,5
1777240187953,0.0220287,1.01653,-0.188392,0.0570828,-0.000528545,0.00464304,3.48934,5
1777240187967,0.0225322,1.01637,-0.186657,0.0556236,-0.000969902,0.00142383,3.51564,5
1777240187981,0.0229117,1.01661,-0.184144,0.0547601,-0.000846989,-0.00278803,3.71894,5
1777240187995,0.0247351,1.01648,-0.182894,0.0540563,-0.000628204,-0.00790262,3.50235,5
1777240188008,0.0268535,1.01574,-0.181098,0.0537731,-0.000323209,-0.0150083,3.38114,5
1777240188022,0.0248542,1.01533,-0.181978,0.0541524,0.00015308,-0.0218524,3.36379,5
1777240188035,0.0220221,1.01651,-0.182109,0.0543005,0.00041425,-0.0262273,3.38784,5
1777240188049,0.0206499,1.01643,-0.182398,0.054389,-0.000392567,-0.0291836,3.36244,5
1777240188062,0.0184782,1.01604,-0.18304,0.0540315,-0.00111131,-0.0301371,3.37809,5
1777240188076,0.016757,1.01499,-0.182743,0.0538567,-0.00150285,-0.0294101,3.36066,5
1777240188089,0.0165018,1.01292,-0.182092,0.0534863,-0.00197091,-0.027739,3.38031,5
1777240188102,0.0160418,1.01292,-0.182642,0.0535005,-0.00216865,-0.0260931,3.34275,5
1777240188116,0.015991,1.01158,-0.183709,0.05321,-0.00239812,-0.0242484,3.34275,5
1777240188129,0.0157103,1.01163,-0.184003,0.0528715,-0.00246057,-0.022276,3.36346,5
1777240188143,0.0151577,1.01077,-0.183802,0.0524706,-0.00227973,-0.0202942,3.35716,5
1777240188156,0.0149922,1.01054,-0.183928,0.0523406,-0.00195489,-0.0188005,3.38712,5
1777240188170,0.0143293,1.01074,-0.183567,0.052372,-0.00165683,-0.0175019,3.34605,5
1777240188183,0.0143746,1.01151,-0.183376,0.0523974,-0.00122991,-0.0162461,3.5047,5
1777240188197,0.0137737,1.01231,-0.182841,0.0525198,-0.000749866,-0.0150865,3.48734,5
1777240188211,0.0130559,1.01346,-0.182075,0.0527896,-0.000155444,-0.0134652,3.51947,5
1777240188225,0.0131452,1.01285,-0.182188,0.0535023,0.000435609,-0.0116223,4.16777,5
1777240188240,0.00991547,1.02064,-0.179569,0.0568855,0.00120332,-0.00893224,5.35391,5
1777240188254,0.00886629,1.02671,-0.179055,0.0613249,0.00185089,-0.00569082,3.58273,5
1777240188268,0.0119295,1.03089,-0.177707,0.0677505,0.00200398,-0.00298233,3.56033,5
1777240188282,0.00954855,1.03457,-0.177394,0.0737557,0.00235402,0.00229751,3.52531,5
1777240188295,0.00795848,1.03978,-0.178016,0.0833719,0.00344659,0.0102571,3.58238,5
1777240188313,-0.000143124,1.05372,-0.178876,0.099912,0.00647322,0.0262782,3.50321,5
1777240188327,-0.00216187,1.07074,-0.17632,0.124692,0.00852081,0.0503113,3.73455,5
1777240188340,-0.00115047,1.09192,-0.170606,0.158225,0.00985837,0.0746191,3.73747,5
1777240188356,0.000584784,1.10865,-0.167062,0.199868,0.0104187,0.0928491,5.03503,5
1777240188370,0.00500267,1.1233,-0.164771,0.249686,0.0102025,0.108314,4.33519,5
1777240188385,0.0140206,1.13371,-0.161431,0.306597,0.00745504,0.120847,4.96873,5
1777240188399,0.0214371,1.14227,-0.158785,0.368271,0.00416802,0.129573,4.12034,5
1777240188413,0.0281637,1.15621,-0.157862,0.434163,-0.00181204,0.136178,3.4431,5
1777240188427,0.0339379,1.17196,-0.157649,0.504332,-0.00919938,0.141951,3.42973,5
1777240188440,0.0414286,1.18494,-0.156625,0.578405,-0.0181934,0.146954,3.43403,5
1777240188454,0.0516899,1.20197,-0.156029,0.657452,-0.0295389,0.149946,3.36946,5
1777240188468,0.0615401,1.22236,-0.153864,0.742393,-0.0433224,0.15257,4.64218,5
1777240188482,0.0645519,1.25584,-0.150602,0.835017,-0.0594071,0.158429,3.37062,4
1777240188497,0.0670114,1.29857,-0.15667,0.928482,-0.0782292,0.174244,4.62625,4
1777240188511,0.0659092,1.35944,-0.175997,1.01671,-0.0930025,0.187824,3.39551,4
1777240188525,0.049271,1.38583,-0.179285,1.09998,-0.100062,0.16959,4.21218,4
1777240188539,0.0557921,1.36474,-0.170338,1.17858,-0.10819,0.188234,3.46377,4
1777240188552,0.0616735,1.3997,-0.165782,1.25278,-0.116033,0.225115,3.39484,4
1777240188566,0.0790296,1.39792,-0.15918,1.32281,-0.13662,0.282123,3.45294,4
1777240188579,0.0967817,1.4086,-0.148649,1.38891,-0.167874,0.340906,3.41807,4
1777240188593,0.130971,1.43019,-0.128794,1.45131,-0.21765,0.389951,3.48501,4
1777240188606,0.147439,1.33508,-0.165474,1.51021,-0.278255,0.396102,3.40971,4
1777240188620,0.13176,1.22627,-0.197933,1.5658,-0.329393,0.37635,3.4279,4
1777240188633,0.104608,1.11696,-0.234336,1.5974,-0.358265,0.322068,3.42907,4
1777240188647,0.0726938,1.01806,-0.266753,1.5779,-0.358328,0.242661,3.34916,4
1777240188660,0.0489647,0.937428,-0.2916,1.51848,-0.335801,0.152519,3.4512,4
1777240188674,0.0384945,0.877533,-0.307576,1.43194,-0.300822,0.058905,3.36351,4
1777240188687,0.0380882,0.836951,-0.316302,1.33243,-0.263845,-0.0297752,3.46677,4
1777240188701,0.0449079,0.806123,-0.320827,1.22867,-0.232213,-0.104733,3.38997,4
1777240188714,0.0542072,0.7769,-0.320401,1.12588,-0.205315,-0.159789,3.5547,4
1777240188728,0.0625056,0.749345,-0.319109,1.02424,-0.185731,-0.197066,3.40535,4
1777240188742,0.0727076,0.717994,-0.312589,0.922856,-0.17253,-0.223941,3.90979,4
1777240188755,0.083611,0.682239,-0.302163,0.820179,-0.165233,-0.246487,3.44805,4
1777240188769,0.0926702,0.636014,-0.291938,0.712112,-0.162297,-0.267558,3.34555,4
1777240188782,0.0969487,0.582864,-0.281478,0.589824,-0.162717,-0.28594,3.44744,4
1777240188796,0.0999738,0.519878,-0.26836,0.444614,-0.164431,-0.300131,3.39644,4
1777240188810,0.0978581,0.447073,-0.249828,0.279366,-0.165827,-0.310451,3.4792,4
1777240188823,0.093711,0.383322,-0.218533,0.123388,-0.165307,-0.315055,3.42131,4
1777240188837,0.0888517,0.36671,-0.178913,-0.0238412,-0.16256,-0.312909,3.73368,4
1777240188851,0.0870312,0.380869,-0.138394,-0.162812,-0.158289,-0.302024,3.45138,4
1777240188864,0.0873122,0.413461,-0.10735,-0.293988,-0.154921,-0.283639,3.35212,4
1777240188878,0.0932881,0.448402,-0.087374,-0.417805,-0.152787,-0.268603,3.46805,4
1777240188891,0.095779,0.474358,-0.0743522,-0.534678,-0.152626,-0.257647,3.39786,4
1777240188905,0.0946244,0.501158,-0.063937,-0.644994,-0.150856,-0.248282,3.46773,4
1777240188918,0.0916858,0.533344,-0.0542429,-0.749123,-0.145691,-0.238547,3.41446,4
1777240188932,0.0950883,0.574652,-0.0411896,-0.847411,-0.139108,-0.227132,3.84962,4
1777240188946,0.101765,0.642182,-0.0324976,-0.940186,-0.134563,-0.208422,3.44757,4
1777240188960,0.10326,0.704254,-0.0284699,-1.02776,-0.128779,-0.1861,3.88694,4
1777240188973,0.0925923,0.766391,-0.0272701,-1.11042,-0.11357,-0.170197,3.44984,4
1777240188987,0.0750736,0.836477,-0.0287122,-1.18844,-0.0835252,-0.164024,3.35068,4
1777240189000,0.0641112,0.927213,-0.0371396,-1.26208,-0.0462979,-0.157843,3.47264,4
1777240189014,0.0703887,1.0299,-0.0587752,-1.3316,-0.00885088,-0.139839,3.38942,4
1777240189027,0.086092,1.12683,-0.0932613,-1.39721,0.022171,-0.112435,3.4821,4
1777240189041,0.106132,1.21792,-0.143027,-1.45915,0.04655,-0.0878919,3.43436,4
1777240189055,0.133388,1.29686,-0.211241,-1.51761,0.0624152,-0.0713537,3.4564,4
1777240189068,0.170536,1.36394,-0.294486,-1.53407,0.0619072,-0.0483698,3.4437,4
1777240189082,0.191988,1.41256,-0.392152,-1.50984,0.042382,-0.00118089,3.68308,4
1777240189095,0.171003,1.44358,-0.495446,-1.44462,0.0177475,0.0462684,3.44308,4
1777240189109,0.114699,1.45256,-0.589645,-1.34786,0.00782005,0.0624834,3.37518,5
1777240189122,0.0618413,1.45491,-0.664784,-1.22836,0.0209892,0.0356766,3.46034,5
1777240189136,0.0549489,1.5685,-0.493152,-1.11285,0.0382966,-0.00769593,3.5962,5
1777240189150,0.0908547,1.4893,-0.241127,-0.916649,0.0408286,0.00155639,3.5349,5
1777240189163,0.0837728,1.50229,-0.195009,-0.724928,0.0392577,-0.0224494,3.44264,5
1777240189177,0.0555193,1.45071,-0.183358,-0.543961,0.0286547,-0.0440981,3.86573,5
1777240189191,0.0560478,1.4079,-0.178003,-0.381585,0.0198795,-0.0421512,3.47849,5
1777240189204,0.0698303,1.36833,-0.170634,-0.253652,-0.00226809,-0.0539984,3.3481,5
1777240189218,0.046659,1.37124,-0.163104,-0.135628,-0.0151149,-0.0352507,3.45188,5
1777240189231,0.0408236,1.33987,-0.163472,-0.0382594,-0.0207241,-0.0215411,3.39308,5
1777240189245,0.0306868,1.30922,-0.168107,0.0320711,-0.0170054,-0.00984657,3.48534,5
1777240189259,0.0275412,1.28027,-0.17863,0.0765248,-0.00941891,-0.00131285,3.3891,5
1777240189272,0.0246817,1.25977,-0.178128,0.10862,-0.00109331,0.00950398,3.73597,1
1777240189286,0.025776,1.2442,-0.177599,0.131669,0.00667966,0.0203692,3.44725,1
1777240189299,0.0303968,1.22872,-0.179072,0.14863,0.01343,0.0244719,3.35705,1
1777240189313,0.0360867,1.21132,-0.181298,0.159686,0.0225378,0.0214165,3.4491,1
1777240189326,0.0405263,1.19745,-0.180358,0.164555,0.0293235,0.0136254,3.3936,1
1777240189340,0.0414028,1.18365,-0.177691,0.166303,0.0320034,0.00556052,3.46829,1
1777240189354,0.0400801,1.17315,-0.173928,0.165933,0.0340576,-0.00267283,3.43862,1
1777240189367,0.0344494,1.16549,-0.170471,0.165548,0.0353586,-0.00741279,3.55951,1
1777240189381,0.0304629,1.15951,-0.167332,0.164043,0.0367408,-0.00897093,3.42557,1
1777240189395,0.0254812,1.15463,-0.162314,0.162655,0.0382639,-0.00666078,3.87542,1
1777240189408,0.0217238,1.14814,-0.158934,0.160849,0.0402067,-0.00184259,3.44479,1
1777240189422,0.0205053,1.14085,-0.157167,0.158961,0.0424131,0.00434957,3.34638,1
1777240189435,0.0195742,1.13386,-0.155117,0.156137,0.0447955,0.0108324,3.47981,1
1777240189449,0.0203798,1.1273,-0.153934,0.15271,0.0439956,0.0172171,3.43051,1
1777240189462,0.0204143,1.12115,-0.152338,0.148105,0.0423071,0.0235262,3.48214,1
1777240189476,0.0212686,1.11379,-0.150545,0.142636,0.0399254,0.0297298,3.39477,1
1777240189490,0.0217053,1.10747,-0.148756,0.13708,0.0371035,0.035564,3.6752,1
1777240189503,0.0219394,1.10123,-0.147204,0.130993,0.0338962,0.0414992,3.5621,1
1777240189517,0.0238174,1.09497,-0.146205,0.125221,0.0304491,0.0461294,3.37921,1
1777240189531,0.0254394,1.08935,-0.144906,0.119378,0.0269,0.0492582,3.45664,1
1777240189544,0.0270115,1.08421,-0.143735,0.113748,0.0233401,0.0512223,3.45223,1
1777240189558,0.0295773,1.07899,-0.142122,0.108635,0.0199756,0.0515862,3.45345,1
1777240189571,0.0316979,1.07354,-0.141285,0.103715,0.0170096,0.050354,3.37886,1
1777240189585,0.0344254,1.06853,-0.140139,0.0992162,0.0139959,0.0477522,3.47136,1
1777240189599,0.0364247,1.06362,-0.138441,0.0951239,0.011481,0.0443372,3.40521,1
1777240189612,0.0378599,1.05927,-0.138029,0.0916722,0.009227,0.0401417,3.85603,1
1777240189626,0.0373659,1.05615,-0.137654,0.0883969,0.00718081,0.036036,3.43644,5
1777240189640,0.0372557,1.05259,-0.136328,0.0853825,0.00548062,0.0323019,3.60812,4
1777240189653,0.0361245,1.0491,-0.136583,0.082777,0.00393146,0.0289058,3.45266,4
1777240189667,0.0359469,1.04733,-0.136591,0.0805488,0.0025848,0.0260812,3.37399,4
1777240189680,0.0357383,1.04556,-0.136214,0.0783728,0.00129656,0.0232651,3.46223,4
1777240189694,0.0357878,1.04243,-0.135339,0.0763145,0.00026041,0.0201532,3.37862,4
1777240189707,0.036711,1.04024,-0.134622,0.0746501,-0.00108157,0.0164922,3.45873,4
1777240189721,0.0371441,1.03931,-0.134384,0.0738241,-0.00238682,0.012527,3.41458,4
1777240189735,0.0377448,1.03875,-0.134378,0.0731257,-0.00351609,0.00838596,3.66877,4
1777240189748,0.0372709,1.03844,-0.134372,0.0728048,-0.004749,0.00443013,3.41786,4
1777240189762,0.036536,1.03771,-0.133559,0.0726261,-0.00586138,0.00144981,3.34625,4
1777240189775,0.0358972,1.03761,-0.134037,0.073044,-0.00684713,-0.000956568,3.42418,4
1777240189789,0.0354037,1.03635,-0.134229,0.0738495,-0.00781613,-0.00264991,3.37362,4
1777240189802,0.03287,1.03603,-0.134766,0.0740104,-0.00884638,-0.00246274,3.46905,4
1777240189816,0.0315877,1.03559,-0.135683,0.0742907,-0.00979744,-0.000765996,3.39644,4
1777240189830,0.0283095,1.03492,-0.137371,0.0743283,-0.0105881,0.00302788,4.28203,4
1777240189844,0.025626,1.03367,-0.138608,0.0745651,-0.0108249,0.00784213,3.6829,4
1777240189857,0.0250924,1.03184,-0.138406,0.075341,-0.0110227,0.0130586,3.31933,4
1777240189871,0.0249722,1.03042,-0.138722,0.0768355,-0.0111109,0.0184449,3.42712,4
1777240189884,0.025338,1.02983,-0.139431,0.079064,-0.0106161,0.0236275,3.34057,4
1777240189898,0.0270939,1.02791,-0.140306,0.0820496,-0.0104103,0.0273163,3.43246,4
1777240189911,0.030463,1.02886,-0.140502,0.0868373,-0.010186,0.0294193,3.34907,4
1777240189926,0.0342184,1.03232,-0.1404,0.093369,-0.0103768,0.0329588,4.65849,4
1777240189939,0.0369414,1.03477,-0.140029,0.103409,-0.0119143,0.0358115,3.35799,4
1777240189953,0.0364441,1.04132,-0.139953,0.115152,-0.0135025,0.0389538,4.02245,4
1777240189967,0.038878,1.05651,-0.135184,0.133575,-0.0151301,0.0426221,3.43205,4
1777240189980,0.0408329,1.0727,-0.134654,0.158735,-0.0180238,0.0435241,3.31338,4
1777240189994,0.0321472,1.08308,-0.133099,0.188056,-0.0198131,0.0459384,3.35579,4
1777240190007,0.0287417,1.09761,-0.132014,0.221662,-0.0199949,0.0504266,3.44916,4
1777240190021,0.0235416,1.10428,-0.134278,0.25874,-0.0188691,0.0554596,3.39414,4
1777240190034,0.0205778,1.11366,-0.133963,0.299732,-0.0182859,0.06367,3.43666,4
1777240190049,0.0184512,1.12066,-0.136692,0.344647,-0.0166822,0.0713427,3.42879,4
1777240190062,0.020429,1.13416,-0.137652,0.396068,-0.0150956,0.0768724,3.43077,4
1777240190076,0.0283488,1.14952,-0.136682,0.455276,-0.0159958,0.0827341,3.92414,4
1777240190090,0.0335374,1.16359,-0.137259,0.521708,-0.0179246,0.0856594,3.44205,4
1777240190103,0.0418586,1.17258,-0.137859,0.590542,-0.0223572,0.087059,3.3461,4
1777240190117,0.049398,1.18325,-0.138877,0.659801,-0.0300136,0.0915187,3.43523,4
1777240190130,0.0542686,1.19829,-0.140221,0.73119,-0.0397327,0.0963619,3.34744,4
1777240190144,0.0597014,1.2071,-0.143982,0.805936,-0.0508763,0.0983258,3.59683,4
1777240190157,0.0728544,1.223,-0.144164,0.883747,-0.0663574,0.101944,3.41446,4
1777240190172,0.0835715,1.24417,-0.147334,0.967599,-0.0858516,0.106849,4.11655,4
1777240190187,0.0933451,1.26977,-0.157297,1.05363,-0.107763,0.120762,3.42233,4
1777240190201,0.10457,1.29323,-0.181121,1.13483,-0.133944,0.143824,3.9002,4
1777240190214,0.120451,1.28525,-0.186505,1.21148,-0.165353,0.165374,3.43496,4
1777240190228,0.10997,1.32074,-0.185123,1.28383,-0.19756,0.186461,3.33755,4
1777240190241,0.0935716,1.31593,-0.193377,1.35212,-0.223885,0.248408,3.44397,4
1777240190255,0.104784,1.3173,-0.194896,1.41658,-0.261536,0.3358,3.43127,4
1777240190268,0.10678,1.32841,-0.185731,1.47742,-0.309963,0.437653,3.47042,4
1777240190282,0.110062,1.33592,-0.155442,1.53486,-0.368327,0.536486,3.39242,4
1777240190296,0.105573,1.32804,-0.107748,1.58907,-0.436447,0.615782,3.97507,4
1777240190309,0.0907769,1.2196,-0.142158,1.64023,-0.494893,0.649032,3.44677,4
1777240190323,0.0533935,1.14025,-0.161326,1.66023,-0.531091,0.641623,3.35242,4
1777240190336,0.0119446,1.04538,-0.193977,1.62809,-0.537585,0.60302,3.4507,4
1777240190350,-0.0233039,0.947728,-0.221208,1.54787,-0.515083,0.538332,3.43249,4
1777240190363,-0.0402925,0.878873,-0.239804,1.43211,-0.474664,0.446939,3.45768,4
1777240190377,-0.0400455,0.837217,-0.25433,1.30118,-0.43059,0.343507,3.37727,4
1777240190392,-0.0252962,0.80473,-0.265563,1.16313,-0.397754,0.24645,4.70444,4
1777240190405,-0.00734808,0.780174,-0.27466,1.0263,-0.381244,0.171824,3.3667,4
1777240190419,0.00701872,0.751763,-0.285561,0.890023,-0.379068,0.124865,3.98858,4
1777240190433,0.0146774,0.716579,-0.29663,0.751033,-0.38467,0.0995047,3.46371,4
1777240190446,0.0152646,0.681205,-0.308052,0.606483,-0.393417,0.0872863,3.38414,4
1777240190460,0.00898537,0.646514,-0.318408,0.45607,-0.400551,0.0814953,3.45397,4
1777240190473,-0.000885638,0.615632,-0.327128,0.29972,-0.402186,0.0776263,3.35492,4
1777240190487,-0.0144345,0.589357,-0.334894,0.1426,-0.395658,0.0746936,3.4589,4
1777240190500,-0.0315509,0.568624,-0.342485,-0.00570682,-0.379159,0.0721438,3.38047,4
1777240190515,-0.0483371,0.55312,-0.349129,-0.145695,-0.350394,0.0669624,4.66214,4
1777240190529,-0.0612374,0.545717,-0.353798,-0.277831,-0.311805,0.0598622,3.37603,4
1777240190543,-0.0664025,0.545303,-0.357069,-0.402554,-0.267725,0.055177,3.92742,4
1777240190556,-0.0645266,0.550773,-0.359116,-0.520282,-0.222494,0.0559571,3.4404,4
1777240190570,-0.0567714,0.565112,-0.360007,-0.631407,-0.177926,0.0576953,3.3484,4
1777240190583,-0.0449458,0.586698,-0.363614,-0.736298,-0.136577,0.0578888,3.48494,4
1777240190597,-0.0293191,0.604609,-0.370634,-0.835305,-0.101568,0.0617667,3.37255,4
1777240190611,-0.0107619,0.613408,-0.376768,-0.928759,-0.0745638,0.0702399,3.4666,4
1777240190624,0.00600119,0.625479,-0.381407,-1.01697,-0.0546241,0.0790043,3.39114,4
1777240190638,0.0185236,0.655881,-0.384868,-1.10023,-0.0395495,0.085924,3.44546,4
1777240190651,0.0259615,0.689796,-0.390244,-1.17883,-0.027183,0.0947934,3.55903,4
1777240190665,0.0266416,0.721055,-0.395209,-1.25301,-0.0143627,0.105739,3.36784,4
1777240190678,0.0186149,0.743138,-0.398047,-1.32304,0.00176771,0.116931,3.4457,4
1777240190692,0.00695758,0.769624,-0.395536,-1.38913,0.0268759,0.124331,3.36855,4
1777240190705,-0.00355288,0.804376,-0.388769,-1.45152,0.0590837,0.131187,3.46307,4
1777240190719,-0.00988583,0.833713,-0.380574,-1.51041,0.0936427,0.141675,3.41973,4
1777240190733,-0.0100023,0.859967,-0.367074,-1.56599,0.124067,0.155305,3.47142,4
1777240190746,-0.00305968,0.906481,-0.351428,-1.61846,0.145445,0.165952,3.39972,4
1777240190760,0.00705411,0.961287,-0.340644,-1.6663,0.155287,0.165224,3.55547,4
1777240190774,0.0151901,1.01087,-0.335231,-1.69613,0.154314,0.150458,3.43022,5
1777240190787,0.0233353,1.05242,-0.337434,-1.71234,0.146052,0.128389,3.3361,5
1777240190800,0.0352278,1.09262,-0.348388,-1.71279,0.13127,0.108316,3.42203,5
1777240190814,0.046193,1.13656,-0.371271,-1.69079,0.109558,0.105362,3.37621,5
1777240190828,0.0447523,1.17515,-0.40547,-1.64348,0.0857245,0.115278,3.4504,5
1777240190841,0.0188245,1.20635,-0.450185,-1.57167,0.0703612,0.126355,3.36016,5
1777240190855,-0.0755042,1.36305,-0.376427,-1.38377,0.0774146,0.0656366,3.52503,5
1777240190868,-0.0694203,1.27102,-0.314051,-1.23832,0.0682252,0.0491864,3.43947,5
1777240190882,-0.0637871,1.26391,-0.255653,-1.07369,0.057209,0.0428692,3.37903,5
1777240190895,-0.0558406,1.25011,-0.215773,-0.912488,0.0444557,0.0277945,3.45986,5
1777240190909,-0.0592543,1.23074,-0.186785,-0.757585,0.0301998,0.015518,3.36373,5
1777240190922,-0.0543557,1.20909,-0.163065,-0.623107,0.0127572,0.0070258,3.47979,5
1777240190936,-0.049458,1.2032,-0.144757,-0.497059,-0.00684144,-0.00196199,3.3889,5
1777240190949,-0.0463962,1.20019,-0.127311,-0.373671,-0.0214571,-0.00819338,3.4667,5
1777240190963,-0.0442183,1.18329,-0.120362,-0.262813,-0.0308297,-0.0153598,3.43723,5
1777240190977,-0.0470103,1.16986,-0.117677,-0.17039,-0.0318622,-0.0137617,3.52796,5
1777240190990,-0.0449349,1.15751,-0.113322,-0.0924549,-0.0293727,-0.0121763,3.43953,5
1777240191004,-0.0439892,1.14566,-0.112156,-0.027858,-0.0258497,-0.0101659,3.36551,1
1777240191017,-0.0447126,1.13622,-0.112151,0.0239737,-0.0225842,-0.00523672,3.46007,1
1777240191031,-0.0427934,1.12754,-0.112474,0.0657002,-0.0193606,0.000105339,3.3774,1
1777240191044,-0.0407765,1.12053,-0.117094,0.0947198,-0.0156669,0.0028698,3.47508,1
1777240191058,-0.0414609,1.10902,-0.119126,0.116716,-0.00859229,0.00571469,3.53699,1
1777240191072,-0.0359992,1.09803,-0.123728,0.132962,-0.00226131,0.00602357,3.43688,1
1777240191085,-0.028735,1.08374,-0.13218,0.142687,0.00606102,0.00228162,3.43244,1
1777240191099,-0.024713,1.0774,-0.131805,0.146223,0.0136254,-0.00338282,3.38018,1
1777240191112,-0.0189034,1.07311,-0.131355,0.148567,0.020577,-0.00964583,3.45383,1
1777240191126,-0.0167202,1.0692,-0.131697,0.148712,0.0280336,-0.0168421,3.38094,1
1777240191139,-0.0149743,1.0645,-0.134046,0.147427,0.0340315,-0.0242856,3.46446,1
1777240191153,-0.0142987,1.06133,-0.134004,0.146038,0.0393375,-0.0320994,3.39034,1
1777240191166,-0.0163725,1.05619,-0.133171,0.143618,0.0433097,-0.0380533,3.49959,1
1777240191180,-0.0183984,1.05258,-0.132479,0.140148,0.0462926,-0.0407102,3.39501,1
1777240191194,-0.0218034,1.05071,-0.131718,0.136196,0.0481448,-0.0386407,3.50423,1
1777240191207,-0.0255241,1.04889,-0.13082,0.131841,0.0482831,-0.031592,3.45277,1
1777240191221,-0.0295702,1.04655,-0.130193,0.126565,0.047643,-0.0193722,3.34164,1
1777240191234,-0.0298835,1.04587,-0.129395,0.12168,0.0463493,-0.00380854,3.44921,1
1777240191248,-0.0286729,1.04392,-0.129395,0.116713,0.0445373,0.0126291,3.38964,1
1777240191261,-0.0269824,1.0415,-0.129477,0.111592,0.0419963,0.0293393,3.57721,1
1777240191275,-0.0235379,1.04031,-0.128664,0.107418,0.0394223,0.045048,3.36786,1
1777240191288,-0.017945,1.0402,-0.126815,0.104176,0.0368085,0.0579444,3.42333,1
1777240191302,-0.0139667,1.0373,-0.127138,0.101004,0.0342728,0.0680065,3.42481,1
1777240191315,-0.00922559,1.03592,-0.126498,0.0977405,0.0316909,0.075907,3.3581,1
1777240191329,-0.00423003,1.03395,-0.126263,0.0944803,0.0289884,0.0809622,3.43623,1
1777240191343,-0.00174687,1.0321,-0.12637,0.091266,0.0265146,0.0849846,3.35834,1
1777240191356,0.00193906,1.03109,-0.126471,0.0887243,0.0239611,0.0878308,3.43205,4
1777240191370,0.00399402,1.0307,-0.126362,0.0862353,0.0216708,0.0905473,3.42629,4
1777240191383,0.00735792,1.02947,-0.126258,0.0841214,0.0194661,0.0927645,3.53807,4
1777240191397,0.0112316,1.02846,-0.125174,0.0819163,0.017171,0.0944935,3.42144,4
1777240191410,0.0163806,1.02492,-0.125931,0.0794281,0.0149404,0.094721,3.4079,4
1777240191424,0.0211997,1.02244,-0.125304,0.0770324,0.0126637,0.0932658,3.44525,4
1777240191437,0.0239683,1.02149,-0.124944,0.074163,0.0102534,0.0900554,3.35608,4
1777240191451,0.0280332,1.0217,-0.124578,0.0718785,0.00780285,0.0856248,3.43957,4
1777240191465,0.0312812,1.0205,-0.125464,0.0694052,0.00539551,0.0802995,3.46051,4
1777240191478,0.0335527,1.01801,-0.126287,0.0665441,0.00317031,0.0746863,3.45357,4
1777240191492,0.0354914,1.01768,-0.127023,0.0639975,0.000890083,0.069024,3.37714,4
1777240191505,0.0366777,1.01642,-0.12758,0.0611785,-0.00134359,0.0638421,3.39275,4
1777240191519,0.0363185,1.01588,-0.12771,0.0585775,-0.0032807,0.060291,3.42266,4
1777240191532,0.0364313,1.01622,-0.128393,0.0562466,-0.00512629,0.0576927,3.35275,4
1777240191546,0.0357435,1.01645,-0.128435,0.0546202,-0.00670991,0.056529,3.46838,4
1777240191559,0.0369979,1.01627,-0.128832,0.0532906,-0.0080891,0.0560514,3.35996,4
1777240191573,0.0368809,1.0157,-0.129603,0.0523139,-0.00898843,0.0567396,3.44981,4
1777240191586,0.0370443,1.01592,-0.130276,0.0514476,-0.00954615,0.0577575,3.36762,4
1777240191600,0.0378149,1.01566,-0.130514,0.0513279,-0.010094,0.0591892,3.4224,4
1777240191613,0.039446,1.01632,-0.131382,0.0515231,-0.0105426,0.0612857,3.42377,4
1777240191627,0.0413828,1.01624,-0.131791,0.0516347,-0.0108676,0.0633931,3.35988,4
1777240191640,0.0432383,1.01494,-0.133656,0.0509606,-0.011534,0.0652495,3.4364,4
1777240191654,0.0451541,1.01246,-0.134294,0.0507226,-0.0119361,0.0675113,3.36203,4
1777240191667,0.0477704,1.01102,-0.135265,0.0508448,-0.0124697,0.0693465,3.43705,4
1777240191681,0.0503632,1.01108,-0.135744,0.0510715,-0.0130163,0.0702181,3.37497,4
1777240191694,0.0545224,1.01041,-0.136387,0.0507288,-0.0136178,0.0698334,3.40333,4
1777240191708,0.0580237,1.00905,-0.136899,0.0507949,-0.014267,0.0690891,3.4217,4
1777240191722,0.0614793,1.00787,-0.137382,0.0504206,-0.0149697,0.0658988,3.40703,4
1777240191735,0.0640427,1.00655,-0.138372,0.0500331,-0.0156586,0.061817,3.42486,4
1777240191749,0.0643944,1.00551,-0.139785,0.0492519,-0.0161419,0.0570693,3.33929,4
1777240191762,0.0686018,1.0027,-0.140832,0.0480522,-0.0168936,0.0513932,3.43136,4
1777240191776,0.0693962,1.00162,-0.142245,0.0464915,-0.0176972,0.045633,3.41514,4
1777240191789,0.0697626,1.00044,-0.143112,0.0448942,-0.0186014,0.0400204,3.44555,4
1777240191803,0.0705055,1.00097,-0.143904,0.0427913,-0.0194849,0.0344999,3.37718,4
1777240191816,0.0701934,1.0003,-0.145391,0.0405366,-0.0202245,0.0295931,3.3947,4
1777240191830,0.068995,0.999539,-0.147,0.0379288,-0.02082,0.0250215,3.43095,4
1777240191843,0.0687128,0.99862,-0.148409,0.034718,-0.0211979,0.0212287,3.33423,4
1777240191857,0.0706376,0.997246,-0.149259,0.0310236,-0.0217901,0.0166253,3.42003,4
1777240191870,0.0722353,0.995949,-0.150254,0.0268128,-0.0228201,0.0107472,3.40355,4
1777240191884,0.0743049,0.995245,-0.150289,0.0220075,-0.0242376,0.00386716,3.43003,0
1777240191897,0.0756284,0.995813,-0.150007,0.0175316,-0.0259824,-0.0041556,3.35747,5
1777240191911,0.0754946,0.996486,-0.150371,0.0130671,-0.0279077,-0.0122207,3.41488,5
1777240191924,0.0750122,0.996464,-0.150578,0.00851042,-0.0298962,-0.0201803,3.40905,5
1777240191938,0.0746527,0.996115,-0.150937,0.00394815,-0.0318931,-0.0286012,3.35033,5
1777240191951,0.0731494,0.996374,-0.150646,-0.000966232,-0.0338165,-0.0368452,3.42118,5
1777240191965,0.072689,0.99518,-0.151125,-0.00579336,-0.0358247,-0.0449693,3.34084,5
1777240191978,0.0722818,0.99315,-0.151686,-0.0111419,-0.0381442,-0.0533827,3.43373,5
1777240191992,0.0689531,0.994054,-0.151942,-0.0161904,-0.0404749,-0.0602966,3.36049,5
1777240192006,0.0639624,0.994648,-0.151472,-0.0213582,-0.0434156,-0.0653839,3.52803,5
1777240192019,0.0600049,0.997085,-0.150836,-0.0263731,-0.0463026,-0.0685503,3.39107,5
1777240192033,0.0559132,0.999234,-0.148784,-0.0297023,-0.0491177,-0.0708967,3.38744,5
1777240192046,0.0514075,1.00228,-0.147436,-0.0315388,-0.052036,-0.0710048,3.42205,5
1777240192060,0.0475927,1.00739,-0.144877,-0.032022,-0.054461,-0.069574,3.34068,5
1777240192073,0.0452518,1.01095,-0.142735,-0.031232,-0.0568741,-0.0669517,3.4317,5
1777240192087,0.0436036,1.01166,-0.141233,-0.0299469,-0.0592374,-0.0632005,3.35518,5
1777240192100,0.0433489,1.01321,-0.139528,-0.0274707,-0.061404,-0.0599723,3.45307,5
1777240192114,0.0436426,1.01316,-0.138535,-0.0247009,-0.0639543,-0.0570407,3.36431,5
1777240192127,0.045878,1.01187,-0.138132,-0.0215983,-0.0675134,-0.0553227,3.5182,5
1777240192141,0.048262,1.01036,-0.136163,-0.0188111,-0.0716864,-0.0541849,3.41494,5
1777240192154,0.0512655,1.01152,-0.133798,-0.0160903,-0.0776464,-0.0539159,3.3237,5
1777240192168,0.0520463,1.01264,-0.132469,-0.0125844,-0.0842697,-0.0545912,3.42662,5
1777240192181,0.0516603,1.00972,-0.130886,-0.00964762,-0.0917461,-0.0551558,3.42179,5
1777240192195,0.0537884,1.00877,-0.129748,-0.00567669,-0.100756,-0.0547638,3.44342,5
1777240192208,0.0557287,1.01553,-0.126154,-0.00096508,-0.112026,-0.0536017,3.36262,5
1777240192222,0.0628188,1.01509,-0.121433,0.00206495,-0.127164,-0.0491263,3.43286,5
1777240192236,0.0828907,1.01903,-0.11128,0.00819636,-0.151991,-0.0392029,3.41703,5
1777240192249,0.118845,1.02024,-0.10004,0.0136156,-0.193915,-0.0210711,3.36903,5
1777240192263,0.155878,1.02911,-0.0858828,0.0209189,-0.254562,0.00190552,3.44677,5
1777240192276,0.190724,1.03151,-0.0719313,0.0269562,-0.331144,0.0231009,3.42342,5
1777240192290,0.222273,1.0304,-0.0576667,0.0339907,-0.419629,0.0406239,3.44444,5
1777240192303,0.253531,1.03109,-0.0394914,0.0410889,-0.520141,0.0528179,3.38783,5
1777240192317,0.28457,1.02573,-0.0178165,0.0458834,-0.631273,0.060607,3.47416,5
1777240192330,0.308568,1.0243,0.00206754,0.0505032,-0.736171,0.0661865,3.37335,5
1777240192344,0.326975,1.02066,0.0244104,0.0531126,-0.835186,0.0700614,3.51155,5
1777240192357,0.337981,1.01415,0.0453494,0.0530708,-0.928646,0.0738174,3.44431,5
1777240192371,0.342098,1.00944,0.0674146,0.0502309,-1.01686,0.0763779,3.41594,5
1777240192385,0.339343,1.00594,0.0886392,0.0459447,-1.10013,0.0768637,3.45921,5
1777240192398,0.330428,1.00168,0.109111,0.0408883,-1.17873,0.0751513,3.38521,5
1777240192412,0.318234,0.997952,0.125628,0.0343258,-1.25292,0.0709188,3.46599,5
1777240192425,0.304026,1.00228,0.135891,0.0293731,-1.32295,0.0680883,3.3862,5
1777240192439,0.288164,0.997788,0.148372,0.0264666,-1.38905,0.0698483,3.45714,5
1777240192452,0.272439,0.983328,0.161659,0.0163498,-1.45145,0.0757316,3.43623,5
1777240192466,0.258335,0.983304,0.180966,0.00301959,-1.51034,0.0834985,3.66175,5
1777240192480,0.240037,0.989869,0.198232,-0.00972134,-1.56593,0.0973468,3.45153,5
1777240192493,0.209961,1.00845,0.19952,-0.0200905,-1.6184,0.11485,3.37203,5
1777240192507,0.170699,1.02794,0.192162,-0.0208134,-1.66793,0.126439,3.45338,5
1777240192520,0.131175,1.02486,0.176467,-0.0203909,-1.71468,0.13256,3.36698,5
1777240192534,0.0939219,1.0164,0.159311,-0.0262095,-1.75881,0.136951,3.47503,5
1777240192547,0.0622644,1.01243,0.143692,-0.0364545,-1.80046,0.143331,3.37581,5
1777240192561,0.0362034,1.01312,0.127977,-0.0462704,-1.83977,0.148621,3.84551,5
1777240192575,0.019232,1.01726,0.11328,-0.0515023,-1.87688,0.146005,3.46357,5
1777240192588,0.00680057,1.02167,0.097408,-0.0505188,-1.91191,0.134051,3.33294,5
1777240192602,-0.00442688,1.02585,0.0818651,-0.0444865,-1.94498,0.122447,3.44916,5
1777240192615,-0.013121,1.0299,0.0670023,-0.0354999,-1.97619,0.115129,3.35481,5
1777240192629,-0.0193281,1.03484,0.0543562,-0.0244268,-2.00565,0.108564,3.47123,5
1777240192643,-0.0274877,1.04147,0.0437479,-0.0102667,-2.03345,0.0985181,3.36814,5
1777240192656,-0.0397635,1.05003,0.0342825,0.00816029,-2.0524,0.0836703,3.56377,5
1777240192670,-0.0533776,1.05617,0.0251836,0.0302123,-2.05384,0.066701,3.41377,5
1777240192684,-0.064256,1.05842,0.0160884,0.0531341,-2.039,0.049416,3.71699,5
1777240192697,-0.0713197,1.05508,0.00831136,0.0735283,-2.00965,0.0351559,3.44647,5
1777240192711,-0.0728654,1.05409,0.00406549,0.0914641,-1.969,0.0237638,3.34462,5
1777240192724,-0.0697368,1.05588,0.00160526,0.109524,-1.92054,0.0141283,3.43716,5
1777240192738,-0.0618674,1.05544,0.000460741,0.127578,-1.86754,0.00705005,3.37562,5
1777240192751,-0.0513582,1.05041,6.51471e-05,0.142876,-1.81259,0.00402125,3.46973,5
1777240192765,-0.040384,1.04271,-0.000143924,0.153723,-1.75897,0.00581673,3.37329,5
1777240192778,-0.0292447,1.03492,0.00116512,0.159543,-1.70599,0.0107272,3.58251,5
1777240192792,-0.0184838,1.03062,0.00504376,0.163341,-1.65401,0.0171948,3.44027,5
1777240192806,-0.00872368,1.02396,0.00843096,0.16514,-1.60365,0.0251152,3.33494,5
1777240192819,0.000845062,1.01346,0.0127922,0.162861,-1.55515,0.0348435,3.43296,5
1777240192833,0.011137,1.00481,0.0200174,0.156269,-1.5091,0.0469079,3.35718,5
1777240192846,0.0205229,0.995048,0.0258103,0.146138,-1.46577,0.0588179,3.44771,5
1777240192860,0.0293002,0.985082,0.0315795,0.132001,-1.42524,0.0700556,3.37538,5
1777240192873,0.0373934,0.977223,0.0372716,0.115049,-1.38754,0.0808085,3.43505,5
1777240192887,0.0444301,0.971503,0.0429594,0.096863,-1.35231,0.0896994,3.43207,5
1777240192900,0.048881,0.966802,0.0466026,0.0783657,-1.31872,0.0968713,3.37249,5
1777240192914,0.0523153,0.963364,0.0503565,0.0596429,-1.28535,0.100588,3.44162,5
1777240192927,0.0541328,0.964584,0.0532561,0.0434689,-1.25075,0.0987522,3.37668,5
1777240192941,0.0558757,0.967557,0.0550893,0.0319531,-1.21392,0.0926307,3.41957,5
1777240192954,0.0582604,0.970636,0.0549846,0.0243888,-1.17482,0.0848314,3.38051,5
1777240192968,0.0600183,0.971119,0.0532014,0.0184264,-1.13333,0.0793965,3.5851,5
1777240192981,0.0543921,0.964194,0.0604606,0.0112312,-1.08889,0.0857546,3.43621,5
1777240192995,0.0587361,0.97735,0.0576581,-0.0398563,-1.05321,0.0754637,3.38588,5
1777240193009,0.0396929,0.967185,0.0456047,-0.0630292,-1.00503,0.062864,3.41838,5
1777240193022,0.033495,0.976722,0.0355421,-0.0902504,-0.955318,0.0420476,3.34023,5
1777240193035,0.0325474,0.976522,0.0268381,-0.116386,-0.911362,0.0300249,3.42853,5
1777240193049,0.000402284,1.03926,0.0385205,-0.125478,-0.864142,0.0205349,3.38073,5
1777240193063,-0.0107128,1.02516,0.029088,-0.133884,-0.814031,0.0239775,3.47212,5
1777240193076,-0.0127823,1.02978,0.0237178,-0.135948,-0.767119,0.0278307,3.37746,5
1777240193090,-0.0154615,1.03484,0.0195527,-0.139541,-0.722874,0.0339941,3.55914,5
1777240193103,-0.0137863,1.03047,0.01469,-0.137636,-0.682724,0.0364805,3.43531,5
1777240193117,-0.0129308,1.03037,0.0104287,-0.131624,-0.645242,0.0372388,3.34244,5
1777240193130,-0.0125341,1.03003,0.00520127,-0.125427,-0.609726,0.0385455,3.4411,5
1777240193144,-0.0135566,1.02966,0.000965523,-0.119517,-0.575974,0.0411791,3.36981,5
1777240193157,-0.0127003,1.02898,-0.00390908,-0.11337,-0.543821,0.0440974,3.45547,5
1777240193171,-0.0108376,1.02707,-0.00881153,-0.10749,-0.513239,0.0458929,3.3746,5
1777240193184,-0.00727167,1.02503,-0.0130966,-0.101872,-0.484074,0.0459434,3.46283,5
1777240193198,-0.00526153,1.02278,-0.0177165,-0.0970571,-0.45654,0.0442698,3.42627,5
1777240193211,-0.00352848,1.02065,-0.0219267,-0.0933128,-0.430079,0.0418209,3.36975,5
1777240193225,-0.00215284,1.01893,-0.0257911,-0.090211,-0.405214,0.0388456,3.43305,5
1777240193239,-0.000826972,1.01691,-0.0293702,-0.0879855,-0.381654,0.0357204,3.34566,5
1777240193252,-0.00327297,1.01451,-0.0337073,-0.0866512,-0.359715,0.0339951,3.42768,5
1777240193266,-0.00459577,1.01246,-0.0373491,-0.0861111,-0.339469,0.0341692,3.37131,5
1777240193279,-0.00433798,1.0135,-0.0393213,-0.0856955,-0.32071,0.0359949,3.54496,5
1777240193293,-0.00391663,1.01398,-0.0404708,-0.0847852,-0.302691,0.0379494,3.41412,5
1777240193306,-0.00191666,1.01533,-0.0403645,-0.0823715,-0.285811,0.0398586,3.3994,5
1777240193320,0.000176545,1.01669,-0.04188,-0.0783806,-0.269642,0.0407657,3.43244,5
1777240193333,0.00312464,1.0173,-0.0431325,-0.0735515,-0.254663,0.0397293,3.3894,5
1777240193347,0.00594845,1.01774,-0.0459306,-0.068441,-0.24087,0.0373809,3.49918,5
1777240193360,0.00576543,1.01895,-0.0468464,-0.0636386,-0.228293,0.0359735,3.44181,5
1777240193374,0.00637325,1.02009,-0.0479572,-0.0587458,-0.216605,0.0349576,3.54668,5
1777240193388,0.00682373,1.02095,-0.0492249,-0.0540548,-0.205667,0.0340758,3.48057,5
1777240193401,0.0073585,1.02163,-0.0504899,-0.0502605,-0.195415,0.0339114,3.46077,5
1777240193415,0.00797283,1.02188,-0.051684,-0.0470174,-0.185833,0.0338633,3.48455,5
1777240193428,0.00868964,1.02206,-0.0527837,-0.0441531,-0.176984,0.0337108,3.4157,5
1777240193442,0.00896911,1.02174,-0.0543284,-0.0418263,-0.168911,0.0338324,3.48401,5
1777240193456,0.00887684,1.02277,-0.0549511,-0.039249,-0.161346,0.0343239,3.3916,5
1777240193469,0.00980314,1.02201,-0.0562099,-0.0365507,-0.154193,0.0342398,3.46999,5
1777240193483,0.0103899,1.02106,-0.0574118,-0.0341622,-0.147492,0.0339891,3.41368,5
1777240193496,0.0107657,1.02043,-0.0585188,-0.031745,-0.14112,0.0338938,3.46516,5
1777240193510,0.011408,1.02008,-0.0593036,-0.0293949,-0.135032,0.0332601,3.44908,5
1777240193524,0.012165,1.01908,-0.0607017,-0.0271166,-0.129158,0.0321523,3.43201,5
1777240193537,0.0135778,1.01836,-0.0611312,-0.0249148,-0.123579,0.0301861,3.4572,5
1777240193551,0.0146102,1.0178,-0.0617421,-0.022785,-0.118261,0.0273711,3.39236,5
1777240193564,0.015612,1.01728,-0.0623735,-0.0204964,-0.113203,0.024016,3.4594,5
1777240193578,0.0168316,1.0166,-0.0634077,-0.0181178,-0.108378,0.0196801,3.40721,5
1777240193591,0.017476,1.01564,-0.0645071,-0.0158855,-0.10381,0.0150094,3.47066,5
1777240193605,0.0168655,1.01483,-0.0660241,-0.0137356,-0.0995973,0.0102539,3.40977,5
1777240193618,0.0170835,1.01441,-0.0670179,-0.0117705,-0.0956206,0.00564519,3.42484,5
1777240193632,0.0168236,1.01378,-0.0682161,-0.0100184,-0.0915973,0.00105095,3.48038,5
1777240193645,0.0157293,1.01321,-0.0689499,-0.00871567,-0.0877482,-0.0030672,3.34784,5
1777240193659,0.0154085,1.01233,-0.0702725,-0.00762304,-0.0839009,-0.00680878,3.43247,5
1777240193672,0.0140512,1.01228,-0.0713019,-0.00669019,-0.0800597,-0.00950552,3.37223,5
1777240193686,0.0123181,1.01238,-0.0722734,-0.00595953,-0.0762754,-0.0108906,3.49816,1
1777240193700,0.0108603,1.01268,-0.0731631,-0.00539402,-0.0726949,-0.010982,3.39851,1
1777240193713,0.0095116,1.01257,-0.0738249,-0.00493731,-0.0695678,-0.0102289,3.41412,1
1777240193727,0.00884113,1.01183,-0.0751206,-0.00453191,-0.0667275,-0.00908567,3.4231,1
1777240193740,0.00818088,1.01138,-0.0759738,-0.00444041,-0.0642478,-0.00753554,3.35523,1
1777240193754,0.00766721,1.01121,-0.0762725,-0.00435405,-0.0616673,-0.00589253,3.44418,1
1777240193767,0.00737408,1.01148,-0.0761573,-0.00443953,-0.0586707,-0.00456004,3.36221,1
1777240193781,0.00780951,1.01232,-0.0762403,-0.0042847,-0.0557479,-0.00451835,3.44423,1
1777240193794,0.00912434,1.01282,-0.0763734,-0.00383027,-0.0526466,-0.00586632,3.41966,1
1777240193808,0.00940681,1.01273,-0.0768414,-0.00323862,-0.0494152,-0.00763538,3.55725,1
1777240193821,0.00950911,1.01243,-0.0771325,-0.00256026,-0.0463522,-0.00958353,3.41203,1
1777240193835,0.00908527,1.01202,-0.0775306,-0.00205697,-0.043384,-0.0112426,3.40349,1
1777240193849,0.00786355,1.01138,-0.0783582,-0.00167183,-0.0405951,-0.0122819,3.4211,1
1777240193862,0.00772374,1.01075,-0.0791942,-0.00150526,-0.0381938,-0.0131473,3.33597,1
1777240193875,0.007044,1.0101,-0.0794902,-0.00165205,-0.0361542,-0.0135445,3.41918,1
1777240193889,0.00668997,1.00936,-0.0802216,-0.00196188,-0.0343446,-0.0137396,3.43347,1
1777240193903,0.00553413,1.00831,-0.0804738,-0.00239563,-0.0325209,-0.0137182,3.42983,1
1777240193916,0.00500459,1.00801,-0.0808898,-0.002865,-0.0308337,-0.0136767,3.36725,1
1777240193930,0.00414871,1.00715,-0.0811456,-0.00344077,-0.0292883,-0.0136803,3.44421,1
1777240193943,0.00331344,1.00668,-0.0818936,-0.00416837,-0.0279152,-0.013264,3.42679,5
1777240193957,0.00288108,1.00626,-0.0818329,-0.00498361,-0.026739,-0.0126656,3.3189,0
1777240193970,0.00260992,1.00632,-0.0819262,-0.00574885,-0.0256502,-0.0117239,3.40014,5
1777240193984,0.00186097,1.0062,-0.081713,-0.00666384,-0.024858,-0.0103427,3.34149,5
1777240193997,0.000921221,1.00616,-0.0816897,-0.00761314,-0.0242002,-0.00860641,3.42321,5
1777240194011,0.000705215,1.00677,-0.0815035,-0.00850492,-0.0236049,-0.00654793,3.35329,5
1777240194024,0.000378074,1.00755,-0.0811496,-0.00917111,-0.0232357,-0.00437798,3.3924,5
1777240194038,-4.02716e-05,1.00788,-0.0817606,-0.00963723,-0.0228187,-0.00201288,3.40005,5
1777240194051,-0.000243429,1.00802,-0.0812006,-0.00991449,-0.0224251,8.25278e-05,3.34401,5
1777240194065,0.000167364,1.00789,-0.0811102,-0.0099878,-0.0219551,0.00166219,3.41507,5
1777240194078,0.000746837,1.00773,-0.0808469,-0.00981292,-0.0214386,0.0024082,3.32196,5
1777240194092,0.00137597,1.00777,-0.0806532,-0.00941236,-0.0208184,0.00218748,3.45546,5
1777240194105,0.00147682,1.00813,-0.0804977,-0.00855898,-0.019899,0.00144819,3.36679,5
1777240194119,0.000832508,1.00858,-0.08057,-0.00737237,-0.0190055,0.00057053,3.54414,5
1777240194132,0.000265422,1.00882,-0.0801453,-0.00606821,-0.0180036,0.000174569,3.39429,5
1777240194146,-0.00106413,1.00919,-0.0797033,-0.00476441,-0.0169938,0.000438817,3.38153,5
1777240194159,-0.00175764,1.00926,-0.0800393,-0.00353803,-0.0161562,0.00149323,3.4099,5
1777240194173,-0.00330238,1.00903,-0.0800277,-0.00247892,-0.0153142,0.00343479,3.3599,0
1777240194186,-0.00491111,1.00848,-0.0797841,-0.00183461,-0.014575,0.0061752,3.41229,0
1777240194200,-0.00553947,1.00801,-0.0798143,-0.00132492,-0.0139074,0.00952835,3.40138,0
1777240194213,-0.00516027,1.008,-0.0797058,-0.000848111,-0.0134869,0.0127919,3.41575,0
1777240194227,-0.00429566,1.00777,-0.0798363,-0.000308124,-0.0131629,0.0158381,3.35557,0
1777240194240,-0.00261679,1.00822,-0.0795212,0.000497023,-0.0128956,0.0180412,3.37486,0
1777240194254,-0.00129228,1.00834,-0.0791826,0.00138546,-0.0127545,0.0193672,3.40727,0
1777240194267,-0.000644629,1.00831,-0.0792603,0.00256662,-0.0123988,0.019985,3.33227,0
1777240194281,0.000747279,1.00817,-0.079224,0.00390417,-0.0119945,0.019943,3.40355,0
1777240194294,0.00133531,1.00831,-0.0791897,0.00523521,-0.0116985,0.0194966,3.4112,0
1777240194308,0.00198621,1.00809,-0.0795271,0.00684699,-0.0113292,0.0188612,3.4077,0
1777240194321,0.00205283,1.00854,-0.079695,0.00860385,-0.0109463,0.0183042,3.35097,0
1777240194335,0.00158162,1.00856,-0.0805792,0.0103692,-0.0105378,0.0181253,3.39529,0
1777240194348,0.00193113,1.00858,-0.080825,0.0120013,-0.0101309,0.0180891,3.39216,0
1777240194362,0.00211039,1.00892,-0.0812898,0.0137602,-0.00962255,0.0183504,3.35601,0
1777240194375,0.00181399,1.00979,-0.0812766,0.0159215,-0.00925407,0.0187898,3.40747,0
1777240194389,0.00206829,1.01023,-0.0818119,0.0185181,-0.00885916,0.0195214,3.34099,0
1777240194402,0.00254114,1.01064,-0.0823036,0.0212817,-0.00862771,0.0201477,3.42938,0
1777240194416,0.00267249,1.01211,-0.0823841,0.0245239,-0.00843493,0.0208159,3.3677,0
1777240194430,0.00330316,1.01339,-0.0824602,0.0282223,-0.00828293,0.0217293,3.53749,0
1777240194443,0.00440516,1.01382,-0.0821349,0.0330921,-0.00813946,0.0229468,3.37979,0
1777240194457,0.00600681,1.01603,-0.081595,0.0393543,-0.00873624,0.0242202,3.38884,0
1777240194470,0.00847723,1.021,-0.0802089,0.0473547,-0.010173,0.0255807,3.4414,0
1777240194484,0.0144655,1.02893,-0.0786541,0.0585204,-0.0131478,0.0252334,3.35473,0
1777240194497,0.0198577,1.03983,-0.0758034,0.0737397,-0.0166108,0.0250897,3.46381,0
1777240194511,0.0243722,1.06119,-0.0723594,0.0938603,-0.0225557,0.0334364,3.36234,0
1777240194524,0.0261138,1.08539,-0.0674926,0.123411,-0.030989,0.0411994,3.44144,0
1777240194538,0.0223072,1.10742,-0.0638848,0.159247,-0.0371208,0.0451442,3.3729,0
1777240194551,0.0261229,1.13278,-0.0583978,0.203286,-0.0451823,0.0516381,3.50233,0
1777240194565,0.0282319,1.15821,-0.053109,0.25579,-0.0544616,0.0578406,3.42592,0
1777240194578,0.0294967,1.18438,-0.0482813,0.315634,-0.064719,0.0669022,3.32916,0
1777240194592,0.0364286,1.20678,-0.0446692,0.382522,-0.0781092,0.0778963,3.44951,1
1777240194605,0.0462309,1.22339,-0.0396028,0.456816,-0.0961263,0.0883164,3.43595,1
1777240194619,0.0568665,1.23747,-0.034396,0.53492,-0.115685,0.0967091,3.43812,4
1777240194632,0.0583192,1.25073,-0.035767,0.617498,-0.135298,0.097065,3.37455,4
1777240194646,0.0686876,1.26574,-0.045579,0.705956,-0.156577,0.090126,3.41579,4
1777240194659,0.0668889,1.29519,-0.0573605,0.796993,-0.177044,0.0700456,3.43957,4
1777240194673,0.0782693,1.31766,-0.0619077,0.888884,-0.208292,0.0666689,3.36205,4
1777240194686,0.0860807,1.31613,-0.0641047,0.979328,-0.246684,0.0583605,3.43692,4
1777240194700,0.0649695,1.2537,-0.0737925,1.0647,-0.269907,0.063595,3.4456,4
1777240194714,0.0630097,1.24268,-0.0785684,1.13639,-0.287776,0.0776734,3.44097,4
1777240194727,0.0622005,1.23941,-0.0819808,1.21213,-0.304621,0.0776369,3.39251,4
1777240194741,0.0590813,1.21461,-0.0882831,1.28444,-0.321297,0.0669706,3.48773,4
1777240194754,0.0549593,1.18957,-0.0941223,1.3527,-0.335217,0.0501158,3.3859,4
1777240194768,0.0569023,1.1518,-0.102578,1.41713,-0.35239,0.0326607,3.48607,4
1777240194781,0.0397559,1.07256,-0.121666,1.45315,-0.362695,0.0285593,3.42946,4
1777240194795,0.0249955,0.988019,-0.14349,1.45192,-0.361778,0.026375,3.33946,4
1777240194808,0.00414734,0.907593,-0.163447,1.4109,-0.348083,0.0248656,3.45301,4
1777240194822,-0.0148878,0.829254,-0.183023,1.33244,-0.319455,0.0206619,3.37975,4
1777240194836,-0.0296095,0.764991,-0.196572,1.22325,-0.279026,0.0105068,3.44921,4
1777240194849,-0.0353026,0.720615,-0.205457,1.0942,-0.231912,-0.00793795,3.38899,4
1777240194863,-0.0350342,0.689424,-0.210736,0.953671,-0.184747,-0.0268339,3.40533,4
1777240194876,-0.0286046,0.667296,-0.212911,0.807685,-0.141761,-0.0393689,3.44677,4
1777240194890,-0.018044,0.650695,-0.214868,0.66006,-0.104979,-0.0426671,3.3686,4
1777240194903,-0.00692536,0.636997,-0.215825,0.511442,-0.0752492,-0.0339495,3.48333,4
1777240194917,0.00347374,0.621109,-0.215688,0.359239,-0.052081,-0.0126141,3.35749,4
1777240194930,0.0139469,0.598746,-0.212354,0.198781,-0.0340618,0.0159812,3.4479,4
1777240194944,0.0197516,0.576842,-0.204017,0.0473224,-0.0188047,0.0447367,3.37403,4
1777240194957,0.0214236,0.566383,-0.189889,-0.0956402,-0.00304165,0.0671092,3.60153,4
1777240194971,0.0198796,0.565247,-0.169706,-0.230584,0.0146332,0.0819453,3.41105,4
1777240194985,0.0216266,0.577733,-0.144616,-0.357958,0.032644,0.0907425,3.5117,4
1777240194998,0.0261378,0.597872,-0.120235,-0.478187,0.0492293,0.0975304,3.44727,4
1777240195012,0.0342167,0.631603,-0.0978384,-0.591673,0.062071,0.102225,3.43529,4
1777240195025,0.0405277,0.659129,-0.0767525,-0.698792,0.0712507,0.106973,3.46077,4
1777240195039,0.0464574,0.696901,-0.0574929,-0.799903,0.077492,0.107648,3.37675,4
1777240195052,0.0510959,0.734964,-0.0400121,-0.895343,0.0798636,0.103113,3.45531,4
1777240195066,0.0555152,0.770126,-0.022964,-0.985429,0.0814512,0.0947468,3.38714,4
1777240195079,0.0618367,0.813203,-0.00573561,-1.07046,0.0826159,0.0830351,3.43134,4
1777240195093,0.0736237,0.864093,0.00910222,-1.15073,0.0811332,0.0710127,3.43544,4
1777240195106,0.090022,0.922687,0.020588,-1.22649,0.0737305,0.065839,3.44484,4
1777240195120,0.103583,0.977241,0.0256504,-1.29496,0.0605172,0.0668731,3.44768,4
1777240195134,0.111166,1.03115,0.0239514,-1.34736,0.0452277,0.0683288,3.3629,4
1777240195147,0.115749,1.08738,0.0132136,-1.37829,0.0299008,0.0683326,3.43794,4
1777240195161,0.119582,1.13168,-0.00485109,-1.38835,0.0150868,0.0681564,3.37625,4
1777240195174,0.123392,1.15666,-0.0265175,-1.38545,0.000320243,0.0734023,3.45538,4
1777240195188,0.126235,1.18041,-0.0472287,-1.36962,-0.0147356,0.0846526,3.37127,4
1777240195201,0.124481,1.19365,-0.0679012,-1.33927,-0.0295593,0.0982221,3.39416,5
1777240195215,0.115732,1.19639,-0.0861952,-1.29953,-0.0405713,0.107112,3.44292,5
1777240195228,0.103297,1.19737,-0.0978211,-1.25148,-0.0448511,0.11103,3.32079,5
1777240195242,0.0893407,1.19702,-0.101482,-1.19304,-0.0420013,0.113001,3.44414,5
1777240195255,0.0771398,1.18438,-0.0977889,-1.13001,-0.0322677,0.112418,3.37136,5
1777240195269,0.0674857,1.16678,-0.0863056,-1.06776,-0.0172738,0.114033,3.45983,5
1777240195282,0.0594824,1.15208,-0.0709745,-1.00523,0.00124646,0.115828,3.38131,5
1777240195296,0.0525716,1.13382,-0.0560652,-0.9438,0.0223932,0.115536,3.40709,5
1777240195309,0.0465826,1.12452,-0.0455528,-0.880969,0.0444647,0.114356,3.56383,5
1777240195323,0.0648811,1.2858,0.13566,-0.810816,0.072466,0.0544309,3.32673,5
1777240195336,0.0833035,1.16197,0.196892,-0.708528,0.0947346,0.0174954,3.45905,5
1777240195350,0.0691132,1.21286,0.244241,-0.578819,0.115934,-0.038722,3.35392,5
1777240195363,0.0524595,1.18459,0.266338,-0.453606,0.125051,-0.072158,3.4707,5
1777240195377,0.0502154,1.18072,0.279103,-0.325432,0.132629,-0.0952275,3.37997,5
1777240195390,0.0475082,1.16118,0.278566,-0.206755,0.128217,-0.11419,3.54201,5
1777240195404,0.0376949,1.14715,0.272129,-0.101565,0.113934,-0.119962,3.40083,5
1777240195417,0.0293906,1.13315,0.264534,-0.00853897,0.0969588,-0.115199,3.4382,5
1777240195431,0.0220999,1.12002,0.254708,0.0696558,0.0806399,-0.103671,3.44957,1
1777240195444,0.0178749,1.1061,0.240941,0.131818,0.0680539,-0.0898877,3.33362,1
1777240195458,0.00947723,1.09708,0.227604,0.177035,0.0606698,-0.072257,3.37688,1
1777240195471,0.0126979,1.09197,0.215207,0.211418,0.0568942,-0.0591136,3.4719,1
1777240195485,0.01493,1.0876,0.202889,0.239029,0.0545892,-0.0520811,3.4237,1
1777240195498,0.0184062,1.07888,0.192494,0.258009,0.0555735,-0.0509538,3.44657,1
1777240195512,0.0205372,1.07176,0.182286,0.271789,0.0577315,-0.0540603,3.50907,1
1777240195526,0.0226308,1.06471,0.17302,0.280355,0.058638,-0.0592834,3.45746,1
1777240195539,0.0206219,1.05991,0.166889,0.28716,0.0578581,-0.0635883,3.37388,1
1777240195553,0.0195747,1.05509,0.159198,0.293284,0.0554648,-0.0673007,3.46147,1
1777240195566,0.0154776,1.05279,0.15287,0.298478,0.0527304,-0.0666471,3.37534,1
1777240195580,0.0119527,1.05067,0.147623,0.30374,0.0490233,-0.0634782,3.45264,1
1777240195593,0.00842015,1.04864,0.14152,0.309362,0.0465604,-0.0587315,3.38733,1
1777240195607,0.00566087,1.048,0.135568,0.315234,0.045807,-0.0525511,3.41907,1
1777240195620,0.00608284,1.04498,0.127443,0.319359,0.0454599,-0.0473768,3.43864,1
1777240195634,0.00452283,1.04262,0.118199,0.322054,0.0471019,-0.0437131,3.35218,1
1777240195647,0.00399525,1.03924,0.107474,0.322081,0.0489044,-0.042079,3.46392,1
1777240195661,0.00327814,1.03614,0.0982414,0.319896,0.0508798,-0.0418767,3.34464,1
1777240195674,0.00220413,1.03386,0.0892798,0.316938,0.0535323,-0.0423752,3.45268,1
1777240195688,0.00139577,1.0338,0.0829298,0.312597,0.0562373,-0.0430812,3.37088,1
1777240195701,0.00171462,1.0327,0.075772,0.309668,0.0583495,-0.0443385,3.57431,1
1777240195715,-0.000463116,1.0309,0.0677421,0.306471,0.0591743,-0.0447888,3.45596,1
1777240195728,-0.000437138,1.02998,0.0601215,0.303329,0.0589037,-0.0443446,3.46014,1
1777240195742,-0.000672813,1.03013,0.0539281,0.300689,0.0587897,-0.0437541,3.44699,1
1777240195755,0.000802843,1.03082,0.048534,0.299349,0.0591145,-0.0450893,3.35225,4
1777240195769,-0.000392523,1.0257,0.0375539,0.295947,0.0599606,-0.0499635,3.45199,4
1777240195782,-0.0026027,1.02444,0.0319964,0.290222,0.0584299,-0.0558702,3.37984,4
1777240195796,-0.00360704,1.02324,0.0241076,0.283881,0.0562871,-0.0627944,3.45138,4
1777240195809,-0.00617099,1.02084,0.0153193,0.277052,0.0538963,-0.0675618,3.36012,4
1777240195823,-0.010659,1.0203,0.00946152,0.26969,0.0518793,-0.0694242,3.55731,4
1777240195837,-0.0145118,1.02088,0.00235747,0.26188,0.0500055,-0.0681548,3.43046,4
1777240195850,-0.0204491,1.02154,-0.00522454,0.254924,0.0480355,-0.0645331,3.32823,4
1777240195864,-0.0222327,1.02003,-0.0115322,0.247921,0.0463474,-0.0589179,3.44627,4
1777240195877,-0.0246146,1.01905,-0.0165,0.240977,0.0444798,-0.0520463,3.34533,4
1777240195891,-0.0242336,1.0192,-0.0200252,0.234101,0.0428712,-0.0446352,3.45607,4
1777240195904,-0.0243396,1.01808,-0.0255027,0.227521,0.0413785,-0.0377469,3.35779,4
1777240195918,-0.0234263,1.01704,-0.0299882,0.220548,0.0396655,-0.0320756,3.43988,4
1777240195931,-0.0215782,1.01729,-0.0347835,0.214167,0.0379672,-0.0276987,3.29929,4
1777240195944,-0.0215318,1.01558,-0.0401726,0.207262,0.0365483,-0.0245821,3.29803,4
1777240195958,-0.0202967,1.01427,-0.0459168,0.20074,0.034935,-0.0228393,3.31912,4
1777240195971,-0.02024,1.01437,-0.0504897,0.194319,0.0334036,-0.0212285,3.29057,4
1777240195984,-0.0216382,1.0128,-0.0548746,0.188159,0.0322321,-0.0197166,3.32571,4
1777240195998,-0.0229168,1.01179,-0.0605473,0.182238,0.0310407,-0.0180883,3.29868,4
1777240196011,-0.0239046,1.01176,-0.0647926,0.176409,0.0300361,-0.0155793,3.33098,4
1777240196025,-0.0258094,1.01078,-0.0692379,0.17041,0.0293618,-0.0118023,3.38716,4
1777240196038,-0.0265801,1.01088,-0.0729683,0.165202,0.0285669,-0.0078775,3.3477,4
1777240196052,-0.0259656,1.01127,-0.0756815,0.160692,0.0274227,-0.00379605,3.29964,4
1777240196065,-0.0246187,1.00909,-0.0786533,0.156038,0.0256575,-0.000226136,3.28979,4
1777240196078,-0.0248811,1.01554,-0.0804313,0.152586,0.0233192,0.00402131,3.32136,4
1777240196092,-0.0249782,1.0185,-0.0835886,0.149846,0.0201913,0.00835165,3.28851,4
1777240196105,-0.0234128,1.02336,-0.0863086,0.147517,0.0163612,0.0106364,3.32298,4
1777240196119,-0.0224692,1.02338,-0.0893553,0.145746,0.012429,0.0135424,3.39899,4
1777240196132,-0.0209898,1.02401,-0.0920668,0.144726,0.00830635,0.016585,3.43971,4
1777240196146,-0.0197576,1.02969,-0.0939963,0.147214,0.00446204,0.0201764,3.29642,4
1777240196159,-0.0215252,1.03538,-0.0963516,0.150287,0.000460838,0.0258442,3.29018,4
1777240196172,-0.0235223,1.04065,-0.0989446,0.159275,-0.00363706,0.0355831,3.31681,4
1777240196186,-0.0248459,1.04795,-0.0997899,0.170594,-0.00650315,0.0465612,3.29309,4
1777240196199,-0.0254242,1.04805,-0.103327,0.182362,-0.00918706,0.0566109,3.4052,4
1777240196213,-0.0265316,1.05383,-0.10483,0.196128,-0.0114078,0.0673644,3.40083,4
1777240196226,-0.0264813,1.05854,-0.106372,0.212985,-0.0132257,0.0776731,3.4317,4
1777240196240,-0.0268994,1.0668,-0.107691,0.232574,-0.0153955,0.0898185,3.40171,4
1777240196253,-0.0237746,1.07206,-0.109525,0.256352,-0.0172467,0.0997155,3.35218,4
1777240196267,-0.0201952,1.07635,-0.111611,0.283126,-0.0195934,0.10919,3.35896,4
1777240196280,-0.0210755,1.08621,-0.115567,0.312709,-0.0205368,0.115744,3.41027,4
1777240196293,-0.010718,1.09188,-0.117986,0.346937,-0.0217313,0.118252,3.36997,4
1777240196307,-0.00640561,1.09194,-0.122364,0.381779,-0.0248114,0.119318,3.40455,4
1777240196321,-0.0050877,1.09799,-0.125977,0.419342,-0.0268537,0.119737,3.4579,4
1777240196334,0.000593291,1.1029,-0.131879,0.460982,-0.0295051,0.118472,3.42933,4
1777240196348,0.00262787,1.11238,-0.136601,0.504953,-0.0333651,0.118707,3.37518,4
1777240196361,0.00254894,1.12392,-0.141469,0.553758,-0.0366147,0.118579,3.35458,4
1777240196374,0.00480249,1.12353,-0.146352,0.60376,-0.0399989,0.117177,3.40446,4
1777240196388,0.00931247,1.1291,-0.152522,0.656777,-0.0437841,0.115365,3.37296,4
1777240196401,0.0130765,1.14009,-0.156538,0.71359,-0.0478708,0.112157,3.41414,4
1777240196415,0.0159583,1.14882,-0.163164,0.77572,-0.051557,0.106491,3.3897,4
1777240196428,0.0246493,1.13881,-0.173512,0.83737,-0.0567707,0.0960175,3.43447,4
1777240196442,0.0291552,1.13678,-0.188115,0.898496,-0.0625311,0.08289,3.40494,4
1777240196455,0.0365034,1.13023,-0.197365,0.960162,-0.0672533,0.0648811,3.43214,4
1777240196469,0.0418234,1.12048,-0.211465,1.01916,-0.0716421,0.0444355,3.35055,4
1777240196482,0.0531034,1.10548,-0.227773,1.0773,-0.0783625,0.0253293,3.43512,4
1777240196496,0.063066,1.09045,-0.247028,1.13214,-0.0900282,0.00960714,3.36155,4
1777240196509,0.0727025,1.08293,-0.267804,1.18697,-0.104238,-0.00161072,3.44273,4
1777240196523,0.0709114,1.07071,-0.289566,1.23741,-0.119548,-0.0165069,3.44951,4
1777240196536,0.0706998,1.06077,-0.309107,1.28262,-0.133121,-0.0169854,3.4979,4
1777240196550,0.0685417,1.06411,-0.323416,1.33061,-0.147628,-0.0197408,3.42425,4
1777240196563,0.0678879,1.07361,-0.342729,1.3871,-0.159811,-0.0175758,3.32749,4
1777240196577,0.0726937,1.06133,-0.369546,1.44232,-0.175703,-0.00179185,3.4422,4
1777240196590,0.0725327,1.06291,-0.389489,1.49639,-0.192819,0.01744,3.35414,4
1777240196604,0.0719152,1.06014,-0.405904,1.54629,-0.209218,0.0470857,3.43553,4
1777240196617,0.0806582,1.05708,-0.42726,1.59443,-0.229618,0.0719127,3.35707,4
1777240196631,0.0803929,1.05145,-0.443007,1.63306,-0.249803,0.0838845,3.43073,4
1777240196644,0.0723913,1.01999,-0.452997,1.65008,-0.268363,0.0832513,3.43105,4
1777240196658,0.065496,0.965381,-0.446554,1.64909,-0.286255,0.0756484,3.33462,4
1777240196671,0.0524415,0.868435,-0.505425,1.62805,-0.274129,0.0759225,3.44323,4
1777240196685,0.0411326,0.835321,-0.52521,1.57024,-0.247859,0.0775771,3.36457,4
1777240196698,0.045878,0.810075,-0.537176,1.48362,-0.217672,0.086585,3.46188,4
1777240196712,0.060587,0.804063,-0.551989,1.38852,-0.195708,0.10664,3.37009,4
1777240196725,0.0754158,0.800605,-0.560399,1.29316,-0.185257,0.135076,3.52916,4
1777240196739,0.0828943,0.792837,-0.567761,1.19833,-0.183605,0.169209,3.42275,4
1777240196752,0.0806137,0.782341,-0.570889,1.10341,-0.185621,0.203795,3.35307,4
1777240196766,0.0694912,0.762258,-0.572856,1.00655,-0.185781,0.233641,3.43081,4
1777240196779,0.0512688,0.73147,-0.572782,0.902653,-0.180939,0.252585,3.34486,4
1777240196793,0.0293304,0.692262,-0.569549,0.7857,-0.169591,0.256833,3.44308,4
1777240196806,0.00670531,0.643119,-0.56206,0.648502,-0.15199,0.243151,3.35925,4
1777240196821,-0.0142262,0.592282,-0.547664,0.485507,-0.130601,0.212992,4.68525,4
1777240196835,-0.0248493,0.538121,-0.523531,0.317965,-0.110242,0.173183,3.43284,4
1777240196848,-0.030604,0.488258,-0.492234,0.159822,-0.0963036,0.13857,3.74964,4
1777240196862,-0.0297775,0.469785,-0.448122,0.0105488,-0.0928542,0.122893,3.46714,4
1777240196876,-0.0296683,0.487845,-0.403375,-0.130351,-0.0983504,0.127432,3.35579,4
1777240196889,-0.0313593,0.525214,-0.36841,-0.263347,-0.111503,0.150107,3.45684,4
1777240196903,-0.0433632,0.562623,-0.342665,-0.388884,-0.125664,0.188544,3.37905,4
1777240196916,-0.0639512,0.589759,-0.321088,-0.507378,-0.134094,0.222516,3.48114,4
1777240196930,-0.0814671,0.602061,-0.300886,-0.619226,-0.132366,0.234116,3.44077,4
1777240196944,-0.0892088,0.615605,-0.281681,-0.724801,-0.125999,0.225643,3.46564,4
1777240196957,-0.092531,0.657434,-0.266456,-0.824453,-0.125906,0.216822,3.44364,4
1777240196971,-0.0901618,0.700217,-0.25959,-0.918515,-0.129681,0.216782,3.36558,4
1777240196984,-0.0940606,0.728139,-0.2586,-1.0073,-0.134354,0.230134,3.45018,4
1777240196998,-0.106313,0.75092,-0.257967,-1.09111,-0.132893,0.245858,3.36581,4
1777240197011,-0.121398,0.787296,-0.257712,-1.17021,-0.120553,0.251995,3.47149,4
1777240197025,-0.133802,0.840201,-0.263113,-1.24488,-0.0975503,0.248603,3.39855,4
1777240197038,-0.141292,0.89033,-0.270457,-1.31536,-0.0654153,0.238431,3.48103,4
1777240197052,-0.140543,0.934689,-0.278553,-1.38189,-0.027521,0.228606,3.39844,4
1777240197066,-0.129112,0.978422,-0.285004,-1.44468,0.0119943,0.224107,3.50849,4
1777240197079,-0.11642,1.02118,-0.291791,-1.50395,0.0496741,0.233622,3.48205,4
1777240197093,-0.109397,1.07084,-0.300731,-1.55261,0.0862981,0.253008,3.35344,5
1777240197106,-0.109204,1.12356,-0.314702,-1.58127,0.12595,0.267291,3.43773,5
1777240197120,-0.113993,1.16619,-0.335915,-1.59183,0.172118,0.26615,3.37786,5
1777240197133,-0.110502,1.20469,-0.362086,-1.58521,0.2219,0.249375,3.45746,5
1777240197147,-0.0945119,1.2447,-0.394992,-1.5572,0.268774,0.227958,3.39342,5
1777240197160,-0.0688469,1.27614,-0.432572,-1.50745,0.30758,0.213549,3.43318,5
1777240197174,-0.0391574,1.29636,-0.474137,-1.43882,0.334075,0.210447,3.42895,5
1777240197187,0.101243,1.44801,-0.548168,-1.29378,0.338334,0.279124,3.38529,5
1777240197201,0.144166,1.3599,-0.484882,-1.13537,0.330502,0.309198,3.45744,5
1777240197214,0.161578,1.36134,-0.428679,-0.967993,0.309454,0.29751,3.36833,5
1777240197228,0.163881,1.32956,-0.372944,-0.810751,0.278715,0.277298,3.46514,5
1777240197242,0.144404,1.30933,-0.340932,-0.661897,0.246759,0.258699,3.43597,5
1777240197255,0.132853,1.2673,-0.314633,-0.544228,0.219777,0.247104,3.54084,5
1777240197269,0.127907,1.24505,-0.293424,-0.452175,0.196402,0.232965,3.38831,5
1777240197282,0.121294,1.25777,-0.273829,-0.362669,0.175961,0.218579,3.50358,5
1777240197296,0.109068,1.23525,-0.258332,-0.277914,0.161303,0.21525,3.46433,5
1777240197309,0.098499,1.223,-0.244732,-0.210219,0.147926,0.21475,3.34279,5
1777240197323,0.0914128,1.2103,-0.231032,-0.155429,0.137591,0.216342,3.4544,5
1777240197337,0.0857922,1.19545,-0.218703,-0.110833,0.129436,0.217155,3.44403,1
1777240197350,0.0828561,1.18355,-0.203641,-0.0724332,0.122887,0.217914,3.42359,1
1777240197364,0.0789069,1.17107,-0.191246,-0.0387355,0.117616,0.218948,3.46731,1
1777240197377,0.0816156,1.15881,-0.180601,-0.0107688,0.112561,0.212297,3.44949,1
1777240197391,0.0794478,1.14867,-0.170073,0.0129231,0.10948,0.20372,3.32973,1
1777240197404,0.0814278,1.13858,-0.162697,0.034314,0.106366,0.191544,3.3186,1
1777240197418,0.0799279,1.12942,-0.154639,0.0529208,0.10275,0.177952,3.46838,1
1777240197431,0.0781834,1.12123,-0.148074,0.0683644,0.100626,0.163239,3.48329,1
1777240197445,0.0741129,1.11458,-0.141206,0.0818369,0.101242,0.148413,3.47968,1
1777240197459,0.0723111,1.10954,-0.134436,0.0952003,0.102333,0.133704,3.37355,1
1777240197472,0.0694875,1.10315,-0.131455,0.105874,0.104133,0.120852,3.40992,1
1777240197486,0.0650694,1.09862,-0.127533,0.114614,0.106958,0.109436,3.40494,1
1777240197499,0.0616797,1.09316,-0.124926,0.120658,0.1073,0.101914,3.47151,1
1777240197513,0.060233,1.08749,-0.121397,0.125288,0.108205,0.095611,3.52929,1
1777240197526,0.0554028,1.08315,-0.116587,0.128563,0.104859,0.0917081,3.39255,1
1777240197540,0.0533907,1.07921,-0.112266,0.13102,0.100874,0.0884822,3.50107,1
1777240197553,0.0512997,1.07589,-0.108502,0.132436,0.0968859,0.0850434,3.38583,1
1777240197567,0.0483811,1.07191,-0.105196,0.132376,0.0921835,0.0826367,3.48618,1
1777240197581,0.0461192,1.06768,-0.104348,0.131558,0.0874965,0.0800353,3.4104,1
1777240197594,0.0468326,1.06398,-0.10211,0.130413,0.0825715,0.0769546,3.41744,1
1777240197608,0.0434936,1.06128,-0.098971,0.129285,0.0781497,0.0745521,3.47701,1
1777240197621,0.0413963,1.0579,-0.0972266,0.127843,0.0741172,0.0722286,3.33738,1
1777240197635,0.0366092,1.05483,-0.0969357,0.126093,0.0703965,0.0712686,3.69631,1
1777240197649,0.0347338,1.05151,-0.0952506,0.12409,0.0668589,0.0720795,3.3721,1
1777240197662,0.0334154,1.04871,-0.0945776,0.122105,0.0636182,0.0726951,3.43007,1
1777240197676,0.0331022,1.04613,-0.0934493,0.119469,0.0605849,0.0732033,3.38116,1
1777240197689,0.0336557,1.04348,-0.0933292,0.116523,0.0575805,0.0730365,3.50999,1
1777240197703,0.0331647,1.04113,-0.0920655,0.113768,0.0545005,0.0723223,3.42734,5
1777240197716,0.0350156,1.03828,-0.090188,0.111351,0.0515933,0.0705949,3.41173,5
1777240197730,0.0361875,1.03575,-0.0903604,0.109443,0.048314,0.067971,3.48821,5
1777240197744,0.0373622,1.03369,-0.0896467,0.107483,0.04515,0.0654387,3.43577,5
1777240197757,0.0370878,1.02931,-0.0902193,0.105299,0.0418767,0.0631939,3.43292,5
1777240197771,0.0379791,1.02833,-0.0901023,0.103632,0.038697,0.0608653,3.37286,5
1777240197784,0.0378893,1.02651,-0.0896359,0.101848,0.0356444,0.0587614,3.49397,5
1777240197798,0.0373799,1.02598,-0.0902227,0.0998776,0.032643,0.0572209,3.38831,5
1777240197811,0.0374195,1.02785,-0.0897359,0.0985142,0.0298357,0.0558953,3.42742,5
1777240197825,0.0378951,1.02815,-0.088441,0.0977883,0.0271859,0.0550337,3.42927,5
1777240197838,0.0380565,1.02772,-0.0889031,0.0981051,0.0246119,0.0534154,3.45422,4
1777240197852,0.0376747,1.0298,-0.0889695,0.0994317,0.0223236,0.052012,3.42925,4
1777240197865,0.0375882,1.03517,-0.0871424,0.102748,0.0204249,0.0488762,3.36886,4
1777240197879,0.0362877,1.03491,-0.087965,0.106524,0.0188767,0.0476718,3.43416,4
1777240197893,0.036238,1.03712,-0.0874404,0.112153,0.0172398,0.0479265,3.39634,4
1777240197906,0.0349859,1.04298,-0.0857676,0.119598,0.0155106,0.051387,3.48594,4
1777240197920,0.0357349,1.048,-0.0856128,0.129473,0.0135915,0.0578604,3.41929,4
1777240197933,0.0317722,1.05871,-0.085316,0.142143,0.0117244,0.0645146,3.40884,4
1777240197947,0.0325372,1.07022,-0.0831187,0.158808,0.00921702,0.0732575,3.43423,4
1777240197960,0.0341631,1.07874,-0.0834137,0.180494,0.00629361,0.0815657,3.36696,4
1777240197974,0.0330411,1.08762,-0.083076,0.205613,0.0030803,0.0877209,3.43738,4
1777240197987,0.036104,1.09438,-0.0837569,0.233323,-0.00116453,0.0928542,3.3926,4
1777240198001,0.0362152,1.09641,-0.085098,0.263401,-0.00524833,0.0968432,3.64536,4
1777240198015,0.0366214,1.09326,-0.0897054,0.294421,-0.00860209,0.100369,3.41446,4
1777240198028,0.0366761,1.08462,-0.0964919,0.324017,-0.0112882,0.103919,3.43194,4
1777240198042,0.0385355,1.07552,-0.104856,0.350901,-0.0128559,0.106808,3.59747,4
1777240198055,0.0417833,1.06418,-0.114298,0.37318,-0.0150464,0.110254,3.38347,4
1777240198069,0.0460813,1.05452,-0.124704,0.392852,-0.0169342,0.110668,3.39679,4
1777240198083,0.0502616,1.04485,-0.135046,0.409696,-0.0188446,0.111547,3.31351,4
1777240198096,0.0565628,1.0296,-0.147301,0.422914,-0.0207292,0.110094,3.3516,4
1777240198110,0.0611137,1.01783,-0.160059,0.431862,-0.0231675,0.107961,3.38653,4
1777240198123,0.0658476,1.00771,-0.172773,0.437585,-0.0259957,0.103746,3.45379,4
1777240198137,0.0707404,1.00064,-0.184911,0.440889,-0.0292776,0.0974301,3.47868,4
1777240198150,0.0762764,0.99615,-0.195847,0.441747,-0.0331846,0.0899997,3.44783,4
1777240198164,0.0787355,0.994586,-0.207238,0.441611,-0.037001,0.081984,3.47035,4
1777240198177,0.077592,0.995739,-0.217073,0.442103,-0.0406332,0.0755142,3.3722,4
1777240198191,0.0771426,1.00084,-0.22563,0.443282,-0.0440874,0.0695614,3.47075,4
1777240198205,0.0768827,1.00094,-0.234351,0.446438,-0.0469754,0.0628549,3.42914,4
1777240198218,0.0746791,1.00378,-0.24209,0.4516,-0.0497056,0.0589224,3.43851,4
1777240198232,0.0724074,1.00635,-0.250257,0.459757,-0.052167,0.0570475,3.4247,4
1777240198245,0.0687431,1.01036,-0.256446,0.470317,-0.0541179,0.0569305,3.43823,4
1777240198259,0.0643941,1.01842,-0.262959,0.485556,-0.0557752,0.0582416,3.44829,4
1777240198273,0.0636168,1.03181,-0.268943,0.504208,-0.056967,0.0608537,3.38516,4
1777240198286,0.0642115,1.04498,-0.273741,0.528383,-0.0599461,0.066505,3.44525,4
1777240198300,0.0682238,1.05472,-0.279846,0.559338,-0.0644964,0.06939,3.38225,4
1777240198313,0.0718331,1.06935,-0.284964,0.594649,-0.0715234,0.0737661,3.4452,4
1777240198327,0.0720354,1.07841,-0.292301,0.635734,-0.080447,0.080226,3.38538,4
1777240198340,0.0680084,1.08811,-0.295886,0.680787,-0.0863052,0.0863663,3.47884,4
1777240198354,0.0588802,1.09537,-0.303939,0.730609,-0.0931921,0.0978015,3.42962,4
1777240198368,0.0506612,1.09664,-0.310376,0.781773,-0.0973378,0.110822,3.4259,5
1777240198381,0.0426704,1.1021,-0.31852,0.83733,-0.0954361,0.124542,3.45236,5
1777240198395,0.0352373,1.10505,-0.328631,0.899177,-0.0901171,0.136255,3.36209,5
1777240198408,0.0303028,1.09912,-0.339093,0.963074,-0.0823261,0.148441,3.43416,5
1777240198422,0.0251931,1.09754,-0.352268,1.02667,-0.0707973,0.156951,3.38038,5
1777240198435,0.0303807,1.09908,-0.362787,1.0966,-0.0586606,0.166983,3.4739,5
1777240198449,0.0193644,1.10185,-0.378029,1.17029,-0.0436422,0.16735,3.43018,5
1777240198463,0.0201406,1.08843,-0.392772,1.24495,-0.0228464,0.17652,3.43177,5
1777240198476,0.0419901,1.08017,-0.410263,1.31429,-0.0101066,0.201203,3.4734,5
1777240198490,0.0587933,1.06666,-0.435633,1.38087,-0.00700913,0.218032,3.32766,5
1777240198503,0.0613156,1.04338,-0.474178,1.44372,-0.00243687,0.230705,3.45973,5
1777240198517,0.0439764,0.973803,-0.513834,1.48472,0.0102714,0.246226,3.38158,5
1777240198530,0.0699119,0.943528,-0.554141,1.49594,0.0172656,0.294973,3.43647,5
1777240198544,0.0729609,0.932207,-0.582451,1.49146,0.0202921,0.351929,3.44173,5
1777240198558,0.0986537,0.899802,-0.589603,1.46547,0.0222924,0.411737,3.51401,5
1777240198571,0.155498,0.885401,-0.56902,1.42184,-0.00163474,0.488726,3.44097,5
1777240198585,0.227162,0.820057,-0.538896,1.37562,-0.0666873,0.574247,3.41777,5
1777240198598,0.218748,0.87311,-0.540645,1.28256,-0.142666,0.626341,3.44953,5
1777240198612,0.207162,0.872339,-0.53831,1.19001,-0.195261,0.651852,3.34749,4
1777240198626,0.19027,0.873666,-0.536832,1.09913,-0.232244,0.638269,3.44773,4
1777240198639,0.175365,0.866716,-0.536136,1.01464,-0.250967,0.590705,3.44895,4
1777240198653,0.161311,0.835437,-0.532287,0.923916,-0.260307,0.521505,3.5476,4
1777240198666,0.148948,0.788876,-0.526902,0.815557,-0.26506,0.443054,3.44662,4
1777240198680,0.137622,0.737546,-0.515739,0.684739,-0.267576,0.361672,3.49414,4
1777240198694,0.126479,0.681016,-0.497519,0.526656,-0.268791,0.27866,3.5001,4
1777240198707,0.114865,0.611168,-0.472186,0.356807,-0.271368,0.194134,3.41992,4
1777240198721,0.110134,0.535269,-0.434786,0.196485,-0.278288,0.111896,3.50514,4
1777240198735,0.107284,0.499999,-0.381447,0.0451552,-0.293221,0.0421197,3.44607,4
1777240198748,0.109359,0.520062,-0.319173,-0.0976858,-0.317626,-0.00365241,3.58314,4
1777240198762,0.11314,0.561677,-0.270978,-0.232514,-0.352939,-0.0127563,3.42438,4
1777240198775,0.110354,0.596822,-0.235483,-0.35978,-0.39397,0.0140229,3.51434,4
1777240198789,0.0890867,0.629174,-0.208484,-0.479907,-0.428619,0.0537471,3.49634,4
1777240198803,0.0536469,0.651686,-0.193325,-0.593296,-0.444985,0.0699835,3.48222,4
1777240198816,0.026823,0.652148,-0.181262,-0.700325,-0.43791,0.0552505,3.49723,4
1777240198830,0.00835107,0.682916,-0.166014,-0.80135,-0.418883,0.0288752,3.42123,4
1777240198844,-0.00312769,0.733528,-0.152429,-0.896709,-0.393374,0.0164224,3.48999,4
1777240198857,-0.0150718,0.784998,-0.147097,-0.986718,-0.363477,0.0281028,3.54246,4
1777240198871,-0.0295916,0.837662,-0.147118,-1.07168,-0.323876,0.0536649,3.56544,4
1777240198885,-0.0444472,0.88251,-0.15156,-1.15187,-0.273732,0.0781571,3.47033,4
1777240198898,-0.0475551,0.923816,-0.155466,-1.22757,-0.21612,0.0956148,3.46836,4
1777240198912,-0.0389442,0.964859,-0.160947,-1.29902,-0.159209,0.115185,3.50621,4
1777240198926,-0.0293647,1.02462,-0.166572,-1.36646,-0.106201,0.140474,3.42896,4
1777240198939,-0.0272657,1.07818,-0.173662,-1.43012,-0.0528612,0.16798,3.50323,4
1777240198953,-0.0308854,1.1234,-0.180381,-1.48539,0.00540417,0.18886,3.54946,5
1777240198967,-0.031618,1.15918,-0.187258,-1.53322,0.0668626,0.204771,3.47588,5
1777240198980,-0.0201488,1.20193,-0.197693,-1.56884,0.123846,0.219177,3.46501,5
1777240198994,0.000290584,1.24743,-0.216157,-1.5881,0.171116,0.22852,3.46757,5
1777240199007,0.0214459,1.28238,-0.246498,-1.59165,0.2101,0.232144,3.46798,5
1777240199021,0.0359641,1.3222,-0.285587,-1.57704,0.242872,0.240968,3.4337,5
1777240199035,0.0510238,1.35675,-0.329234,-1.53606,0.26761,0.262255,3.45468,5
1777240199048,0.0709493,1.39329,-0.381321,-1.4667,0.280217,0.282724,3.39727,5
1777240199062,0.0825949,1.40389,-0.429458,-1.37546,0.282269,0.284258,3.48183,5
1777240199075,0.0890955,1.40172,-0.464597,-1.27726,0.275757,0.275319,3.43044,5
1777240199089,0.0984223,1.39541,-0.482373,-1.17449,0.261724,0.260719,3.5047,5
1777240199103,0.0449711,1.5415,-0.230952,-1.12641,0.240261,0.25876,3.44429,5
1777240199116,0.0448314,1.49032,-0.15284,-1.00709,0.21321,0.246353,3.4557,5
1777240199130,0.0297452,1.50531,-0.12545,-0.848092,0.187986,0.22469,3.48184,5
1777240199143,0.000756297,1.44105,-0.104705,-0.70661,0.167867,0.23326,3.41236,5
1777240199157,0.0166953,1.39692,-0.0815224,-0.586077,0.132092,0.235145,3.9512,5
1777240199171,0.0152658,1.37345,-0.0625978,-0.472254,0.102489,0.229406,3.43149,5
1777240199185,0.00511098,1.33771,-0.0489664,-0.377494,0.0799812,0.226806,3.49818,5
1777240199198,-0.00174903,1.32529,-0.0354011,-0.294926,0.0662632,0.229314,3.44658,5
1777240199212,-0.000404731,1.31779,-0.0235828,-0.213338,0.0613217,0.23044,3.55881,1
1777240199226,0.00582155,1.30281,-0.0148787,-0.137704,0.0574796,0.226605,3.46946,1
1777240199239,0.00785045,1.28447,-0.0078816,-0.076221,0.0540156,0.225023,3.59581,1
1777240199253,0.0135041,1.26872,-0.000140363,-0.0211755,0.0498639,0.220061,3.49964,1
1777240199267,0.0171289,1.25096,0.00512617,0.0273825,0.0466002,0.215009,3.49351,1
1777240199280,0.0200984,1.23513,0.0115078,0.071183,0.0418325,0.209059,3.50325,1
1777240199294,0.0222987,1.21997,0.0171207,0.111773,0.0359749,0.204059,3.45492,1
1777240199308,0.0280047,1.2047,0.0202413,0.147765,0.0295167,0.198363,3.52481,1
1777240199321,0.0282826,1.18941,0.0201056,0.177864,0.0234036,0.192092,3.49712,1
1777240199335,0.0266277,1.17673,0.0195119,0.204433,0.0202111,0.187826,3.54216,1
1777240199349,0.0270513,1.1699,0.0183353,0.225388,0.0175659,0.186454,3.48745,1
1777240199362,0.0324359,1.16288,0.01528,0.241785,0.0154716,0.185068,3.49542,1
1777240199376,0.0321229,1.15454,0.0112458,0.256594,0.0185045,0.183979,3.49946,1
1777240199390,0.0369903,1.14495,0.0022751,0.267057,0.0212303,0.181872,3.42484,1
1777240199403,0.0403247,1.13564,-0.00223473,0.273782,0.024848,0.178277,3.52171,1
1777240199417,0.0447594,1.12568,-0.00999738,0.276383,0.0269739,0.173449,3.43597,1
1777240199430,0.0492329,1.11892,-0.0138873,0.277537,0.029079,0.167013,3.48631,1
1777240199444,0.0527707,1.11033,-0.0178055,0.276326,0.0306508,0.159195,3.50016,1
1777240199458,0.0565073,1.10193,-0.0205727,0.273064,0.0312994,0.151207,3.45896,1
1777240199471,0.0598973,1.09323,-0.0242529,0.267415,0.0309353,0.143167,3.4932,1
1777240199485,0.0615223,1.08656,-0.0286852,0.259708,0.0302149,0.136057,3.42175,1
1777240199499,0.0636587,1.07968,-0.0324033,0.250771,0.0295177,0.129555,3.48783,1
1777240199512,0.0657437,1.07234,-0.0364059,0.240245,0.0284743,0.123312,3.42938,1
1777240199526,0.0677118,1.06761,-0.0398553,0.229446,0.0273952,0.11753,3.52383,1
1777240199539,0.0702953,1.06228,-0.0428099,0.218224,0.0255674,0.111674,3.4357,1
1777240199553,0.0721176,1.05721,-0.0449551,0.207045,0.0240733,0.106125,3.45118,1
1777240199567,0.0726874,1.05325,-0.0478565,0.196348,0.0216739,0.100853,3.49388,1
1777240199580,0.0724446,1.0495,-0.0501706,0.18512,0.0188953,0.0974992,3.38733,5
1777240199594,0.0775289,1.04447,-0.052615,0.173777,0.0159171,0.0944923,3.48618,5
1777240199607,0.0752343,1.04087,-0.0549635,0.162749,0.0133972,0.0944758,3.40673,5
1777240199621,0.07667,1.03806,-0.0558244,0.152083,0.0112755,0.094092,3.48212,5
1777240199634,0.0793809,1.03569,-0.0563495,0.142473,0.00928998,0.0920127,3.4177,5
1777240199648,0.0825835,1.03266,-0.0571738,0.133415,0.00756568,0.0882774,3.51368,5
1777240199662,0.0861815,1.03021,-0.0581299,0.124784,0.00619501,0.0823066,3.5082,5
1777240199675,0.0887698,1.02923,-0.0582244,0.11713,0.00527803,0.0740888,3.50418,5
1777240199689,0.0913224,1.02808,-0.0582451,0.11029,0.00448956,0.0642338,3.48944,5
1777240199703,0.0899522,1.02655,-0.0589905,0.103877,0.00357832,0.0557494,3.45027,5
1777240199716,0.0890286,1.02564,-0.0592832,0.0975703,0.00276102,0.0494794,3.50072,5
1777240199730,0.087787,1.02538,-0.0593815,0.0921958,0.0021908,0.0449142,3.45994,5
1777240199743,0.0880256,1.02357,-0.0593921,0.087748,0.00187523,0.0411017,3.53323,5
1777240199757,0.0892916,1.02244,-0.0597033,0.0842946,0.00165872,0.0366681,3.46379,5
1777240199771,0.0909249,1.02288,-0.0589016,0.0816987,0.00167701,0.0307919,3.48397,5
1777240199784,0.0932608,1.02258,-0.0585283,0.0799292,0.00189551,0.022445,3.48653,5
1777240199798,0.0955889,1.0217,-0.0603533,0.0785202,0.00242719,0.0115946,3.41458,5
1777240199812,0.0965539,1.02092,-0.060282,0.0772587,0.00298898,-0.000231443,3.47409,4
1777240199825,0.095301,1.01999,-0.0599271,0.0763848,0.0037719,-0.0114969,3.42038,4
1777240199839,0.0947347,1.01895,-0.0597154,0.0758511,0.00480635,-0.0221818,3.48542,4
1777240199852,0.092776,1.01842,-0.0608028,0.0759982,0.00583415,-0.0318007,3.41486,4
1777240199866,0.0902698,1.01803,-0.0609117,0.0760985,0.00653455,-0.0393813,3.49005,4
1777240199880,0.0857952,1.01914,-0.0632604,0.0765528,0.00693018,-0.0450467,3.49605,4
1777240199893,0.083119,1.0204,-0.0649021,0.0777225,0.00725652,-0.0489213,3.4592,4
1777240199907,0.0791962,1.02143,-0.0670954,0.0785011,0.00750461,-0.0491873,3.49988,5
1777240199920,0.075288,1.02183,-0.068166,0.0796299,0.00761461,-0.0468222,3.41929,5
1777240199934,0.0723522,1.02278,-0.0694368,0.0818002,0.00785546,-0.042436,3.46586,5
1777240199947,0.0698001,1.0233,-0.0692668,0.0853559,0.00804426,-0.0365959,3.45697,5
1777240199961,0.0670352,1.02595,-0.0703525,0.0911314,0.00851792,-0.0310106,3.49694,5
1777240199975,0.0676573,1.03214,-0.0704735,0.0987796,0.008661,-0.0267663,3.47653,5
1777240199988,0.067683,1.03602,-0.0702043,0.107108,0.00856483,-0.020709,3.46697,5
1777240200002,0.0702681,1.03601,-0.0714566,0.116241,0.00696256,-0.0166785,3.45886,5
1777240200015,0.0661759,1.04458,-0.07168,0.126826,0.00553152,-0.0175842,3.37309,5
1777240200029,0.0701876,1.04603,-0.0725619,0.139623,0.0029904,-0.0131124,3.52925,5
1777240200043,0.0704685,1.05545,-0.0749829,0.154434,-0.000855463,-0.0036419,3.42314,5
1777240200056,0.0715416,1.06774,-0.0742827,0.173,-0.00456695,0.00230436,3.51497,5
1777240200070,0.0722806,1.0778,-0.0725125,0.196613,-0.00967596,0.00797703,3.59384,5
1777240200084,0.0651039,1.08497,-0.0748541,0.225209,-0.0126615,0.013704,3.50038,5
1777240200097,0.0584119,1.09225,-0.0769548,0.256131,-0.0133471,0.0198591,3.46271,5
1777240200111,0.0586138,1.09473,-0.0796908,0.288124,-0.0155701,0.0270862,3.45479,5
1777240200124,0.053176,1.09373,-0.0858751,0.321923,-0.0160583,0.0322081,3.49949,5
1777240200138,0.0524391,1.09484,-0.0914111,0.357128,-0.0162152,0.0393591,3.43131,5
1777240200152,0.0548522,1.09213,-0.096801,0.395209,-0.0154727,0.0427948,3.46573,5
1777240200165,0.0571437,1.08795,-0.105052,0.432032,-0.0144592,0.0464875,3.41079,5
1777240200179,0.0606897,1.09052,-0.111717,0.468952,-0.0152624,0.0472069,3.51033,5
1777240200192,0.0675837,1.09356,-0.117337,0.508284,-0.0176477,0.0466571,3.49016,5
1777240200206,0.0760219,1.10138,-0.123341,0.550347,-0.0224768,0.0433977,3.4697,5
1777240200220,0.0831514,1.10697,-0.129925,0.593313,-0.0286579,0.0378248,3.47809,5
1777240200233,0.0915106,1.11341,-0.135003,0.640142,-0.0370058,0.0305991,3.38142,5
1777240200247,0.0945942,1.12106,-0.14207,0.689872,-0.0470049,0.0229481,3.48975,5
1777240200260,0.0906166,1.13058,-0.147111,0.74124,-0.0574408,0.0176059,3.42873,5
1777240200274,0.0884232,1.14208,-0.152143,0.798167,-0.0695264,0.0157791,3.94475,5
1777240200288,0.0716861,1.14781,-0.157234,0.858729,-0.0795512,0.02103,3.40631,4
1777240200302,0.0540528,1.15153,-0.168244,0.922236,-0.0867656,0.031527,3.58729,4
1777240200315,0.0368197,1.15469,-0.177089,0.987067,-0.0887968,0.0517802,3.47047,4
1777240200329,0.0223336,1.15731,-0.189943,1.05166,-0.0863551,0.0790115,3.56136,4
1777240200343,0.00898863,1.1606,-0.204528,1.11889,-0.0804022,0.10761,3.47612,4
1777240200356,-0.00400489,1.16313,-0.221266,1.18969,-0.0700689,0.141819,3.39636,4
1777240200370,-0.00623155,1.17614,-0.244789,1.26326,-0.057956,0.183204,3.4734,4
1777240200383,0.00367671,1.16349,-0.261268,1.3327,-0.0472846,0.218906,3.50007,4
1777240200397,0.00700364,1.16261,-0.28556,1.39825,-0.0397938,0.254987,3.5111,4
1777240200411,0.0154985,1.13933,-0.318322,1.46012,-0.0309804,0.289925,3.44449,4
1777240200424,0.0266802,1.09797,-0.352217,1.50471,-0.0273458,0.328042,3.45388,4
1777240200438,0.0489572,1.07709,-0.381747,1.53272,-0.0274561,0.37989,3.48908,4
1777240200451,0.0664378,1.04322,-0.401225,1.54982,-0.0372116,0.413175,3.43933,4
1777240200465,0.0833076,1.01648,-0.405944,1.55464,-0.0490019,0.429148,3.50651,4
1777240200479,0.120964,0.972511,-0.401853,1.55278,-0.070921,0.427269,3.48301,4
1777240200492,0.167286,0.915674,-0.461424,1.54801,-0.126247,0.398909,3.56579,4
