timestamp,ax,ay,az,gx,gy,gz,roll_k,pitch_k,delay_ms,classe_prevista
1777236464587,0.0860588,-0.659893,-0.0511127,0.0587955,0.292683,0.250131,0,0,3.26716,-1
1777236464600,0.112996,-0.789457,-0.0624295,0.046946,0.382718,0.139479,0,0,3.26729,-1
1777236464614,0.126836,-0.842527,-0.0672061,0.0449928,0.379414,0.102731,0,0,3.30705,-1
1777236464627,0.146912,-0.867366,-0.0663618,0.0451052,0.349148,0.0807541,0,0,3.2531,-1
1777236464640,0.165692,-0.890254,-0.0521692,0.049385,0.301713,0.0714676,0,0,3.26434,-1
1777236464654,0.198767,-0.890278,-0.0164957,0.0494651,0.246007,0.0666772,0,0,3.25038,-1
1777236464667,0.236343,-0.912895,0.0475795,0.0493763,0.16613,0.0550637,0,0,3.26408,-1
1777236464680,0.251731,-0.930933,0.108403,0.0381447,0.0746977,0.0627983,0,0,3.2514,-1
1777236464694,0.242827,-0.963478,0.141696,0.0127808,-0.0188924,0.103074,0,0,3.26525,-1
1777236464707,0.205263,-0.999137,0.131731,-0.0248449,-0.102309,0.144226,0,0,3.25931,-1
1777236464720,0.153035,-1.0159,0.139613,-0.0543193,-0.160238,0.161493,0,0,3.2422,-1
1777236464734,0.104569,-1.02474,0.152806,-0.0818821,-0.190989,0.154508,0,0,3.24925,-1
1777236464747,0.0785177,-1.02415,0.154935,-0.107994,-0.205241,0.138471,0,0,3.23936,-1
1777236464760,0.06006,-1.01739,0.153247,-0.126693,-0.207653,0.129909,0,0,3.24271,-1
1777236464774,0.0496493,-1.01361,0.147407,-0.152188,-0.206585,0.140636,0,0,3.24457,-1
1777236464787,0.0389016,-1.00361,0.133297,-0.166293,-0.197138,0.158252,0,0,3.24795,-1
1777236464800,0.0112538,-0.985157,0.122289,-0.160207,-0.153433,0.173119,0,0,3.23353,-1
1777236464814,-0.00228796,-0.980041,0.115946,-0.141648,-0.0928065,0.173338,0,0,3.22368,-1
1777236464827,-0.00253553,-0.980357,0.116533,-0.121768,-0.0458359,0.16758,0,0,3.23038,-1
1777236464840,0.00673853,-0.985877,0.115681,-0.105943,-0.0267079,0.162365,0,0,3.22075,-1
1777236464855,0.00144916,-0.984999,0.114264,-0.0942927,-0.0193617,0.164963,0,0,4.52024,-1
1777236464868,-0.000227929,-0.987791,0.115458,-0.0896429,-0.0192772,0.168693,0,0,3.22568,-1
1777236464883,0.00448018,-0.988791,0.114364,-0.0916626,-0.0354863,0.17007,0,0,4.26562,-1
1777236464896,-0.00333314,-0.986435,0.114317,-0.0948598,-0.0519562,0.17903,0,0,3.21999,-1
1777236464911,-0.0142034,-0.985132,0.113794,-0.0970401,-0.0599398,0.188787,0,0,5.21728,-1
1777236464925,-0.0270174,-0.984678,0.113469,-0.0984879,-0.0584102,0.191267,0,0,3.22221,-1
1777236464939,-0.0371393,-0.985121,0.112091,-0.09832,-0.0491067,0.186233,0,0,4.03379,-1
1777236464952,-0.0431877,-0.984475,0.11286,-0.099707,-0.0402092,0.180741,0,0,3.23018,-1
1777236464965,-0.0449614,-0.984623,0.111435,-0.10328,-0.0345633,0.178824,0,0,3.24125,-1
1777236464979,-0.0453746,-0.984526,0.109683,-0.108497,-0.0347188,0.179185,0,0,3.54096,0
1777236464992,-0.0473423,-0.980612,0.106875,-0.114155,-0.0398739,0.1817,0,0,3.33775,0
1777236465006,-0.0545209,-0.977858,0.103311,-0.11962,-0.0442335,0.18615,0,0,3.42446,0
1777236465019,-0.0601416,-0.974276,0.098672,-0.12289,-0.0456271,0.186728,0,0,3.44573,0
1777236465034,-0.0669519,-0.970331,0.0923605,-0.123591,-0.0428954,0.189398,0,0,4.16542,0
1777236465049,-0.073894,-0.970347,0.0884896,-0.12041,-0.0321837,0.194804,0,0,4.74077,0
1777236465063,-0.080629,-0.971167,0.0856759,-0.114604,-0.0175958,0.194575,0,0,4.22996,0
1777236465076,-0.0887927,-0.972167,0.0841339,-0.107246,0.00318676,0.191879,0,0,3.42942,0
1777236465090,-0.0912155,-0.975063,0.0815404,-0.0995117,0.0208363,0.186133,0,0,3.33607,0
1777236465103,-0.0935442,-0.979121,0.0807686,-0.0930663,0.0370837,0.181231,0,0,3.4006,0
1777236465117,-0.0958877,-0.982645,0.0810958,-0.0880133,0.0499362,0.175975,0,0,3.3609,0
1777236465132,-0.0985337,-0.987441,0.0822164,-0.0866141,0.0590181,0.169648,0,0,3.40807,0
1777236465145,-0.0998658,-0.988549,0.0807121,-0.0871403,0.0643599,0.162531,0,0,3.28775,0
1777236465158,-0.101119,-0.989318,0.0786661,-0.0886856,0.0668775,0.15431,0,0,3.32979,0
1777236465172,-0.102593,-0.990694,0.0759889,-0.0922125,0.0689246,0.14765,0,0,3.42192,0
1777236465186,-0.105385,-0.990054,0.0725063,-0.0949863,0.0709232,0.143704,0,0,4.1209,0
1777236465200,-0.109321,-0.991429,0.0722494,-0.0988244,0.074039,0.13745,0,0,3.40923,0
1777236465213,-0.113317,-0.990371,0.0705786,-0.102888,0.0775389,0.131247,0,0,3.39442,0
1777236465227,-0.114503,-0.988937,0.066329,-0.106834,0.0785852,0.124372,0,0,3.3851,0
1777236465240,-0.12187,-0.988336,0.062929,-0.110835,0.0800424,0.11975,0,0,3.43333,4
1777236465254,-0.127269,-0.983503,0.0575642,-0.112782,0.0822745,0.115008,0,0,3.37347,4
1777236465267,-0.137297,-0.975511,0.0530672,-0.115105,0.0853305,0.109466,0,0,3.41562,4
1777236465281,-0.148545,-0.967253,0.0478759,-0.116671,0.0918213,0.103855,0,0,4.04988,4
1777236465295,-0.159984,-0.962624,0.0443981,-0.116616,0.101747,0.0973732,0,0,3.41894,4
1777236465309,-0.165508,-0.961598,0.0404779,-0.116951,0.114026,0.087671,0,0,3.41431,4
1777236465322,-0.1695,-0.966755,0.0384576,-0.116505,0.126663,0.0794078,0,0,3.75792,4
1777236465336,-0.168848,-0.971586,0.0366714,-0.116833,0.138822,0.0723309,0,0,3.37727,4
1777236465350,-0.168893,-0.977035,0.0349918,-0.1182,0.149425,0.0658356,0,0,3.43629,4
1777236465363,-0.16491,-0.982925,0.0343379,-0.123195,0.154267,0.0594431,0,0,3.38697,4
1777236465377,-0.165925,-0.990805,0.0331267,-0.131823,0.154408,0.0552993,0,0,3.38883,4
1777236465390,-0.170988,-0.994268,0.0294692,-0.139598,0.157426,0.0516553,0,0,3.41533,4
1777236465404,-0.17696,-0.996214,0.0276449,-0.14838,0.162639,0.0462776,0,0,4.14307,4
1777236465418,-0.175518,-1.01039,0.0129028,-0.159451,0.175965,0.0456003,0,0,3.41081,4
1777236465432,-0.177,-1.01378,0.00644119,-0.165535,0.188661,0.0378348,0,0,3.35779,4
1777236465445,-0.17922,-1.01161,0.00301869,-0.171903,0.205678,0.0280558,0,0,3.41855,4
1777236465459,-0.181984,-1.00989,0.00435816,-0.174715,0.225075,0.0208098,0,0,3.38107,4
1777236465472,-0.185253,-1.00788,0.0066793,-0.180647,0.244929,0.0163492,0,0,3.38571,4
1777236465486,-0.184197,-1.00774,0.00435142,-0.187333,0.263306,0.0109398,0,0,3.4099,4
1777236465499,-0.182188,-1.00633,-0.000339936,-0.19489,0.278442,0.00360761,0,0,3.42708,4
1777236465513,-0.178545,-1.00125,-0.00531389,-0.20508,0.289732,-0.00345677,0,0,3.40644,4
1777236465527,-0.179918,-1.00028,-0.011241,-0.213686,0.301978,-0.00921652,0,0,3.72153,4
1777236465540,-0.178922,-1.00308,-0.0176417,-0.22255,0.314765,-0.0185074,0,0,3.43477,4
1777236465554,-0.183431,-1.00183,-0.0227164,-0.235827,0.327584,-0.0266824,0,0,3.37675,4
1777236465567,-0.186669,-1.00677,-0.0276372,-0.245759,0.342821,-0.0327315,0,0,3.41747,4
1777236465581,-0.182275,-1.00627,-0.0365744,-0.256543,0.356066,-0.0453424,0,0,3.38136,4
1777236465594,-0.172154,-1.00563,-0.0408915,-0.26619,0.365233,-0.0596047,0,0,3.38535,4
1777236465608,-0.159184,-1.01026,-0.045251,-0.280998,0.367745,-0.0703576,0,0,3.43546,4
1777236465622,-0.139494,-1.0268,-0.044146,-0.302549,0.36232,-0.0774608,0,0,4.00444,4
1777236465636,-0.135043,-1.06174,-0.038007,-0.342964,0.346221,-0.076739,0,0,3.39597,4
1777236465649,-0.157912,-1.08793,-0.0341568,-0.387954,0.341952,-0.0725115,0,0,3.36773,4
1777236465663,-0.172846,-1.12608,-0.0227389,-0.439211,0.348395,-0.0920548,0,0,3.40997,4
1777236465676,-0.207077,-1.16516,-0.0137586,-0.507345,0.373765,-0.1167,0,0,3.37625,4
1777236465690,-0.238052,-1.20394,-0.000331665,-0.588233,0.423226,-0.130748,0,0,3.42397,4
1777236465703,-0.264431,-1.24173,0.0311114,-0.689672,0.484457,-0.139211,0,0,3.37929,4
1777236465717,-0.301907,-1.28921,0.0605344,-0.819498,0.559541,-0.135233,0,0,3.41807,4
1777236465730,-0.342359,-1.3205,0.0908738,-0.962686,0.656946,-0.123636,0,0,3.35699,4
1777236465744,-0.381824,-1.35258,0.118985,-1.12126,0.783218,-0.111338,0,0,3.74868,4
1777236465758,-0.403477,-1.36962,0.150984,-1.28919,0.928089,-0.108888,0,0,3.45059,4
1777236465771,-0.41047,-1.36956,0.192439,-1.44865,1.06785,-0.124532,0,0,3.41333,4
1777236465785,-0.412359,-1.33675,0.202598,-1.60372,1.21276,-0.155863,0,0,3.48238,4
1777236465799,-0.350975,-1.25361,0.130603,-1.69296,1.31619,-0.209733,0,0,3.40679,4
1777236465812,-0.252125,-1.19668,0.052074,-1.69495,1.30389,-0.27876,0,0,3.45644,4
1777236465826,-0.224242,-1.14605,-0.0106699,-1.6299,1.24584,-0.279692,0,0,3.39844,4
1777236465840,-0.253759,-1.07115,-0.0435909,-1.51372,1.25516,-0.17099,0,0,3.94744,4
1777236465854,-0.263527,-1.01239,-0.0471121,-1.37123,1.32474,-0.0406086,0,0,3.40988,4
1777236465867,-0.232854,-0.952945,-0.038105,-1.20717,1.40638,0.0197218,0,0,3.37425,4
1777236465881,-0.185537,-0.898695,-0.0286119,-1.03427,1.49187,0.0146664,0,0,3.42977,4
1777236465894,-0.108423,-0.847959,-0.0162196,-0.861613,1.57722,-0.00108588,0,0,3.3952,4
1777236465908,-0.00260806,-0.812627,-0.000859804,-0.703888,1.61135,0.00577449,0,0,3.46527,4
1777236465921,0.0979498,-0.76535,0.0163044,-0.558011,1.58476,0.0472675,0,0,3.42864,4
1777236465935,0.173579,-0.723177,0.0201398,-0.419844,1.50939,0.119937,0,0,3.43457,4
1777236465949,0.212571,-0.679645,0.0195449,-0.262873,1.42095,0.21066,0,0,3.44899,4
1777236465962,0.233235,-0.630396,0.0174197,-0.112941,1.33572,0.297318,0,0,3.75077,4
1777236465976,0.244774,-0.586061,0.0301484,0.0816841,1.25535,0.380577,0,0,3.47177,4
1777236465990,0.256916,-0.55606,0.0509476,0.277777,1.18534,0.45384,0,0,3.42516,4
1777236466003,0.280937,-0.544845,0.0710972,0.479446,1.11277,0.516444,0,0,3.4741,4
1777236466017,0.310544,-0.544694,0.088656,0.672286,1.03091,0.570472,0,0,3.48894,4
1777236466031,0.333547,-0.556821,0.105574,0.852999,0.940399,0.620406,0,0,3.49901,4
1777236466044,0.349015,-0.570212,0.115791,1.01712,0.856542,0.667845,0,0,3.41679,4
1777236466059,0.344879,-0.591748,0.121412,1.18362,0.797309,0.699667,0,0,4.24662,4
1777236466072,0.350489,-0.623154,0.132501,1.33455,0.74917,0.703437,0,0,3.43097,4
1777236466086,0.361922,-0.658271,0.134923,1.47769,0.71399,0.698501,0,0,3.3886,4
1777236466099,0.386809,-0.702916,0.135964,1.62576,0.672116,0.685633,0,0,3.44001,5
1777236466113,0.410218,-0.76008,0.138315,1.77066,0.609702,0.666196,0,0,3.40659,5
1777236466127,0.41555,-0.822387,0.135724,1.89244,0.542907,0.641194,0,0,3.46629,5
1777236466140,0.401295,-0.897749,0.129614,1.99391,0.483148,0.606364,0,0,3.36044,5
1777236466154,0.369519,-0.980939,0.11366,2.07848,0.426873,0.56613,0,0,3.40964,5
1777236466168,0.319765,-1.06999,0.1259,2.14895,0.384455,0.524218,0,0,3.44692,5
1777236466182,0.276309,-1.14036,0.0874327,2.17748,0.373738,0.48111,0,0,4.03583,5
1777236466195,0.26348,-1.23936,0.0620454,2.17794,0.345939,0.459971,0,0,3.4532,5
1777236466209,0.252052,-1.30063,0.0326684,2.13534,0.297748,0.455129,0,0,3.3564,5
1777236466224,0.225948,-1.34694,-0.0013951,2.06897,0.243798,0.447671,0,0,4.83796,5
1777236466237,0.194179,-1.36991,-0.0378546,1.98307,0.204119,0.44428,0,0,3.38468,5
1777236466251,0.165696,-1.38004,-0.069767,1.88746,0.173013,0.438312,0,0,3.45497,5
1777236466265,0.136172,-1.38613,-0.0941606,1.77203,0.151887,0.426965,0,0,3.36768,5
1777236466280,0.103397,-1.37833,-0.122996,1.64015,0.153952,0.416275,0,0,4.6027,5
1777236466293,0.083917,-1.36669,-0.148579,1.49667,0.175723,0.405,0,0,3.3672,5
1777236466307,0.0842798,-1.35511,-0.172689,1.34358,0.198357,0.383569,0,0,4.09735,5
1777236466321,0.0925733,-1.34557,-0.193751,1.17953,0.208326,0.350671,0,0,3.44914,5
1777236466335,0.0966211,-1.3315,-0.212423,1.00742,0.203859,0.309974,0,0,3.33594,5
1777236466348,0.0931221,-1.31667,-0.228345,0.831193,0.194794,0.269304,0,0,3.43722,5
1777236466362,0.0901807,-1.29988,-0.235349,0.65448,0.178397,0.232295,0,0,3.35475,5
1777236466375,0.0866618,-1.27777,-0.237376,0.479166,0.154275,0.201099,0,0,3.37496,5
1777236466389,0.0832527,-1.25361,-0.233796,0.313516,0.126285,0.174529,0,0,3.42388,5
1777236466402,0.113848,-1.2312,-0.224124,0.151467,0.0827437,0.138596,0,0,3.42268,5
1777236466416,0.128218,-1.18722,-0.204853,0.0200648,0.0151872,0.108079,0,0,4.09946,5
1777236466430,0.110164,-1.18983,-0.0547382,-0.0860656,-0.0432728,0.114163,0,0,3.84159,5
1777236466444,0.0550146,-1.24277,0.274093,-0.240793,-0.04774,0.147235,0,0,3.47996,5
1777236466458,0.11481,-1.223,0.251133,-0.497225,-0.09159,0.119528,0,0,3.36801,5
1777236466471,0.0891613,-1.22862,0.138062,-0.655461,-0.0751418,0.0970492,0,0,3.42757,5
1777236466485,0.0320825,-1.16918,0.124115,-0.682655,-0.0341067,0.101371,0,0,3.41316,5
1777236466498,-0.0147081,-1.19894,0.0736905,-0.714172,-0.0589566,0.0900861,0,0,3.4119,1
1777236466512,-0.00926322,-1.13853,0.100945,-0.683324,-0.090988,0.0604153,0,0,3.42212,1
1777236466525,0.0177912,-1.13755,0.100351,-0.682999,-0.177197,0.0394428,0,0,3.83355,1
1777236466539,-0.0221618,-1.109,0.119041,-0.69554,-0.255082,0.0716094,0,0,3.43166,1
1777236466552,-0.0901152,-1.06121,0.116223,-0.68725,-0.27108,0.108529,0,0,3.3319,1
1777236466566,-0.12016,-1.04887,0.127836,-0.675584,-0.268393,0.0864336,0,0,3.43603,1
1777236466579,-0.129291,-1.02489,0.12254,-0.6566,-0.259361,0.0281476,0,0,3.34934,1
1777236466593,-0.126313,-1.01402,0.116783,-0.629113,-0.237483,-0.0242663,0,0,3.43725,1
1777236466606,-0.100563,-1.016,0.116161,-0.592111,-0.215345,-0.0195604,0,0,3.36201,1
1777236466620,-0.0603841,-1.00923,0.11057,-0.551721,-0.206821,0.0275419,0,0,3.55151,1
1777236466634,-0.0380463,-1.0119,0.11231,-0.509945,-0.20534,0.0532061,0,0,3.4179,1
1777236466648,-0.02988,-1.01291,0.11691,-0.479662,-0.212669,0.0602544,0,0,3.82964,1
1777236466661,-0.0306718,-1.00989,0.116239,-0.456156,-0.229692,0.0718532,0,0,3.35507,1
1777236466675,-0.0407211,-1.0074,0.117554,-0.437382,-0.253739,0.0717225,0,0,3.4301,1
1777236466688,-0.0615106,-0.997703,0.112777,-0.421762,-0.262403,0.07141,0,0,3.42605,1
1777236466702,-0.078531,-0.991282,0.107857,-0.404522,-0.252613,0.0697755,0,0,3.43766,1
1777236466715,-0.0938233,-0.987734,0.104067,-0.386504,-0.224926,0.062103,0,0,3.42542,1
1777236466729,-0.0978672,-0.987452,0.10052,-0.365751,-0.188456,0.0517652,0,0,3.43796,1
1777236466743,-0.0918234,-0.986789,0.0961536,-0.34698,-0.158052,0.0403896,0,0,3.75546,1
1777236466756,-0.0820719,-0.989141,0.092105,-0.331364,-0.140552,0.0300829,0,0,3.43353,1
1777236466770,-0.0812944,-0.987966,0.0873351,-0.320488,-0.133017,0.0254381,0,0,3.34131,1
1777236466783,-0.0829679,-0.986914,0.0835799,-0.313333,-0.127591,0.022407,0,0,3.44334,1
1777236466797,-0.0822332,-0.985325,0.0765877,-0.308197,-0.12513,0.0161407,0,0,3.33868,1
1777236466810,-0.08922,-0.981564,0.069809,-0.300966,-0.117354,0.0129417,0,0,3.42605,1
1777236466824,-0.0924228,-0.977913,0.0617038,-0.290041,-0.10226,0.0112936,0,0,3.62553,1
1777236466838,-0.101927,-0.976963,0.0549562,-0.276905,-0.0806241,0.0103274,0,0,3.48301,1
1777236466851,-0.105611,-0.976846,0.048583,-0.263184,-0.0551002,0.00515833,0,0,3.36731,1
1777236466865,-0.108102,-0.977645,0.0428888,-0.251241,-0.0311077,-0.00337314,0,0,3.79046,1
1777236466879,-0.108012,-0.978757,0.0388457,-0.240856,-0.00981619,-0.0132181,0,0,3.43264,1
1777236466892,-0.100889,-0.981685,0.0345311,-0.234365,0.00161628,-0.0239286,0,0,3.34068,1
1777236466906,-0.0955729,-0.984806,0.0295304,-0.23019,0.00802629,-0.0295842,0,0,3.42625,4
1777236466919,-0.0877402,-0.988932,0.0255747,-0.228059,0.0113832,-0.0304296,0,0,3.34183,4
1777236466933,-0.0783659,-0.995023,0.0210464,-0.226385,0.0140026,-0.0270247,0,0,3.44496,4
1777236466946,-0.0753744,-0.999797,0.0171471,-0.224888,0.0194423,-0.0197216,0,0,3.34762,4
1777236466960,-0.0703642,-1.01054,0.0153379,-0.225142,0.0263292,-0.0144626,0,0,3.84509,4
1777236466973,-0.0747649,-1.02668,0.0138637,-0.229501,0.0341674,-0.00864253,0,0,3.39951,4
1777236466987,-0.0780066,-1.02754,0.00981697,-0.23176,0.0432311,-0.00497564,0,0,3.31601,4
1777236467000,-0.0745155,-1.02909,0.00514534,-0.237752,0.0537104,-0.00342118,0,0,3.45462,4
1777236467014,-0.0759563,-1.02436,0.00301959,-0.243215,0.0662091,-0.00053546,0,0,3.33301,4
1777236467028,-0.0706442,-1.0262,0.000240998,-0.249626,0.0797035,0.00221282,0,0,3.73596,4
1777236467041,-0.0358231,-1.09182,0.0101502,-0.271444,0.0786969,0.0158644,0,0,3.33608,4
1777236467055,-0.0445824,-1.12839,-0.000517043,-0.274842,0.106599,0.0330931,0,0,3.44597,4
1777236467068,-0.0464287,-1.09581,-0.0157625,-0.275778,0.103285,0.0132137,0,0,3.38953,4
1777236467082,-0.0486752,-1.07643,-0.0263288,-0.28255,0.114417,0.019472,0,0,3.78822,4
1777236467096,-0.0457678,-1.06912,-0.0320926,-0.285688,0.115335,0.0205142,0,0,3.4171,4
1777236467109,-0.0494847,-1.05995,-0.0397027,-0.291088,0.115883,0.0158229,0,0,3.34149,4
1777236467123,-0.0498808,-1.05507,-0.0484012,-0.299635,0.109559,0.00626462,0,0,3.4234,4
1777236467136,-0.0501281,-1.05181,-0.0535084,-0.311706,0.0981696,-0.00306193,0,0,3.38466,4
1777236467150,-0.0512437,-1.05009,-0.0585538,-0.325709,0.0859428,-0.00998163,0,0,3.46775,4
1777236467163,-0.0498637,-1.0562,-0.0619693,-0.343256,0.0728404,-0.0185216,0,0,3.37597,4
1777236467177,-0.0497272,-1.06289,-0.0650633,-0.362981,0.0633085,-0.0309054,0,0,3.74012,4
1777236467191,-0.0501557,-1.0702,-0.0687148,-0.385626,0.0580751,-0.0431845,0,0,3.39629,4
1777236467204,-0.0551603,-1.07704,-0.0712739,-0.408353,0.0608387,-0.051865,0,0,3.31034,4
1777236467218,-0.0593125,-1.08516,-0.07356,-0.434098,0.0715513,-0.0628518,0,0,3.41403,4
1777236467231,-0.0685475,-1.09372,-0.0751267,-0.465527,0.087018,-0.0753155,0,0,3.39018,4
1777236467245,-0.0799436,-1.10055,-0.077613,-0.500166,0.10721,-0.0890097,0,0,3.4112,4
1777236467258,-0.0933447,-1.10705,-0.0793212,-0.539705,0.133896,-0.104862,0,0,3.33083,4
1777236467272,-0.0994142,-1.11289,-0.0817051,-0.582732,0.168183,-0.121431,0,0,3.4377,4
1777236467285,-0.0811343,-1.13475,-0.0784344,-0.632862,0.198651,-0.143978,0,0,3.38895,4
1777236467299,-0.0823785,-1.16513,-0.0696108,-0.701341,0.21927,-0.161,0,0,3.78683,4
1777236467313,-0.0952979,-1.17808,-0.0596658,-0.76641,0.251542,-0.171202,0,0,3.39296,4
1777236467326,-0.101979,-1.1975,-0.046302,-0.839375,0.297456,-0.193177,0,0,3.31577,4
1777236467340,-0.111768,-1.22092,-0.0316108,-0.924059,0.353414,-0.218704,0,0,3.40331,4
1777236467353,-0.117758,-1.2399,-0.00190114,-1.02027,0.421,-0.233118,0,0,3.34788,4
1777236467367,-0.134734,-1.25037,0.015722,-1.12348,0.49437,-0.249265,0,0,3.42936,4
1777236467380,-0.151564,-1.26136,0.0351408,-1.23102,0.572879,-0.266932,0,0,3.34462,4
1777236467394,-0.16045,-1.2671,0.0573412,-1.34067,0.639689,-0.284212,0,0,3.41427,4
1777236467407,-0.171574,-1.26687,0.0881978,-1.45309,0.686229,-0.299566,0,0,3.4124,4
1777236467421,-0.187249,-1.25519,0.113122,-1.56346,0.721654,-0.315822,0,0,3.34238,4
1777236467434,-0.182682,-1.24547,0.132253,-1.67165,0.744279,-0.345309,0,0,3.42655,4
1777236467448,-0.156936,-1.2413,0.0803378,-1.79451,0.741441,-0.401015,0,0,3.32844,4
1777236467461,-0.12654,-1.2576,-0.0459696,-1.91232,0.700234,-0.479802,0,0,3.36788,4
1777236467475,-0.132578,-1.2491,-0.155504,-1.99312,0.658338,-0.541197,0,0,3.39023,4
1777236467488,-0.151944,-1.22297,-0.247484,-2.03662,0.660956,-0.57017,0,0,3.40258,4
1777236467502,-0.14389,-1.12156,-0.313124,-2.01049,0.665758,-0.560333,0,0,3.39908,4
1777236467515,-0.0822694,-1.20022,-0.407401,-1.89684,0.641911,-0.493649,0,0,3.65527,4
1777236467529,-0.00161623,-1.1093,-0.450648,-1.77752,0.599391,-0.435203,0,0,3.40973,4
1777236467543,0.0615242,-1.02325,-0.496819,-1.58824,0.514683,-0.401156,0,0,3.39079,4
1777236467556,0.0970736,-0.985924,-0.510107,-1.40958,0.425391,-0.356726,0,0,3.42077,4
1777236467570,0.127971,-0.957312,-0.504239,-1.24556,0.347521,-0.307094,0,0,3.39073,4
1777236467583,0.15663,-0.895603,-0.482608,-1.08451,0.262501,-0.289283,0,0,3.42875,4
1777236467597,0.176172,-0.836234,-0.457522,-0.920577,0.174349,-0.302901,0,0,3.36199,4
1777236467611,0.186705,-0.753997,-0.430819,-0.736092,0.0900111,-0.306171,0,0,3.75548,4
1777236467624,0.131121,-0.71081,-0.320772,-0.537786,0.035938,-0.245117,0,0,3.45534,4
1777236467638,0.112363,-0.639535,-0.346996,-0.422214,0.0504318,-0.104684,0,0,3.4256,4
1777236467651,0.185224,-0.50221,-0.326847,-0.222405,0.00899849,-0.0117023,0,0,3.4461,4
1777236467665,0.22828,-0.46135,-0.324442,0.00578238,-0.112183,0.000248086,0,0,3.35553,4
1777236467679,0.203378,-0.392932,-0.327501,0.248241,-0.218359,0.00408715,0,0,3.4552,4
1777236467692,0.14254,-0.330698,-0.323401,0.520608,-0.228416,0.0578462,0,0,3.35764,4
1777236467707,0.124079,-0.29468,-0.301214,0.805354,-0.177649,0.141386,0,0,5.31122,4
1777236467721,0.143535,-0.27631,-0.270883,1.08801,-0.132036,0.192198,0,0,3.35668,4
1777236467735,0.170401,-0.274355,-0.254812,1.32356,-0.108198,0.217073,0,0,3.57468,4
1777236467748,0.181759,-0.292057,-0.20843,1.51985,-0.0955722,0.255653,0,0,3.44755,4
1777236467762,0.191298,-0.327727,-0.159506,1.68342,-0.095814,0.319545,0,0,3.36221,4
1777236467775,0.182787,-0.371372,-0.12327,1.81974,-0.0925803,0.385893,0,0,3.45273,4
1777236467789,0.170443,-0.428729,-0.109986,1.93333,-0.0707635,0.425636,0,0,3.35255,4
1777236467803,0.176262,-0.488984,-0.109133,2.02799,-0.0490205,0.438934,0,0,3.45072,5
1777236467816,0.194311,-0.583379,-0.0932404,2.10688,-0.0626697,0.455384,0,0,3.3581,5
1777236467831,0.17974,-0.66437,-0.0932432,2.17261,-0.0882935,0.498443,0,0,4.535,5
1777236467844,0.135176,-0.747718,-0.0928918,2.22739,-0.0556263,0.529835,0,0,3.43475,5
1777236467859,0.148248,-0.851708,-0.103621,2.27304,-0.0245104,0.496962,0,0,4.22494,5
1777236467872,0.183533,-0.945179,-0.121237,2.31109,-0.0287078,0.468728,0,0,3.45405,5
1777236467886,0.205064,-1.02781,-0.137787,2.34279,-0.0597629,0.490161,0,0,3.32588,5
1777236467899,0.198503,-1.10142,-0.14733,2.36921,-0.0973724,0.535669,0,0,3.45796,5
1777236467913,0.174436,-1.17714,-0.148795,2.39122,-0.12253,0.570347,0,0,3.34964,5
1777236467927,0.14479,-1.25453,-0.143793,2.40494,-0.130951,0.5816,0,0,4.5629,5
1777236467941,0.128124,-1.3342,-0.151097,2.38184,-0.133744,0.57328,0,0,3.43712,5
1777236467956,0.125653,-1.40237,-0.167347,2.327,-0.138107,0.564921,0,0,4.60448,5
1777236467969,0.144838,-1.46536,-0.188501,2.23391,-0.168385,0.555602,0,0,3.38457,5
1777236467983,0.143446,-1.50663,-0.204326,2.10859,-0.210079,0.547608,0,0,4.11907,5
1777236467997,0.124286,-1.5212,-0.232189,1.95137,-0.242229,0.533261,0,0,3.4442,5
1777236468010,0.0890881,-1.51915,-0.262107,1.77173,-0.245865,0.510809,0,0,3.33745,5
1777236468024,0.0463352,-1.5119,-0.295161,1.56813,-0.208221,0.476463,0,0,3.47116,5
1777236468038,0.0230177,-1.49466,-0.332319,1.34692,-0.142016,0.424839,0,0,3.56596,5
1777236468052,0.02777,-1.47362,-0.36574,1.11307,-0.0722015,0.35776,0,0,3.45712,5
1777236468065,0.0276817,-1.45383,-0.38829,0.866881,-0.00903563,0.288948,0,0,3.35746,5
1777236468079,0.00913855,-1.4281,-0.40063,0.626269,0.0626611,0.229848,0,0,3.37134,5
1777236468092,-0.00976,-1.37056,-0.379687,0.401903,0.137485,0.167164,0,0,3.41979,5
1777236468106,-0.0465649,-1.31925,-0.295327,0.223558,0.219596,0.11125,0,0,4.10203,5
1777236468121,-0.123238,-1.28967,0.0712888,0.0802679,0.306877,0.0797563,0,0,4.61829,5
1777236468135,-0.0810362,-1.18558,0.294076,-0.105629,0.400731,0.0492117,0,0,3.35329,5
1777236468149,0.0268645,-1.24071,0.247539,-0.363202,0.362072,-0.00662387,0,0,4.68559,5
1777236468163,0.0626702,-1.26365,0.1804,-0.539463,0.266778,0.000994099,0,0,3.35931,5
1777236468178,-0.0363761,-1.23091,0.216853,-0.680583,0.236704,0.0920752,0,0,4.70446,5
1777236468191,-0.0752072,-1.15068,0.143816,-0.786821,0.197508,0.140559,0,0,3.34055,5
1777236468206,-0.0429376,-1.14372,0.088318,-0.782682,0.0912184,0.0760764,0,0,4.65485,5
1777236468219,-0.0461267,-1.11558,0.109173,-0.726752,-0.0223689,0.0176337,0,0,3.35914,5
1777236468233,-0.0404344,-1.08452,0.110615,-0.725295,-0.104468,0.0325191,0,0,4.13237,5
1777236468247,-0.0416692,-1.05865,0.123031,-0.705571,-0.185657,0.100496,0,0,3.40064,5
1777236468261,-0.0664838,-1.04462,0.132684,-0.696169,-0.265439,0.151673,0,0,3.46616,5
1777236468274,-0.11412,-1.02091,0.139007,-0.683614,-0.293451,0.157946,0,0,3.40679,1
1777236468287,-0.134116,-1.00564,0.139478,-0.66646,-0.277444,0.129815,0,0,3.29549,1
1777236468301,-0.120207,-1.00001,0.139404,-0.63738,-0.253926,0.0974034,0,0,3.41075,1
1777236468316,-0.115209,-0.99425,0.133291,-0.59755,-0.226427,0.112925,0,0,3.42477,1
1777236468331,-0.107845,-0.989796,0.128113,-0.534968,-0.182964,0.136814,0,0,4.67505,1
1777236468344,-0.0909313,-0.998508,0.134748,-0.493123,-0.16107,0.129623,0,0,3.42557,1
1777236468358,-0.0906915,-0.994425,0.133045,-0.460719,-0.150319,0.113604,0,0,4.04359,1
1777236468372,-0.0940865,-0.994903,0.133722,-0.437011,-0.138828,0.1185,0,0,3.42877,1
1777236468385,-0.0847767,-1.00413,0.136981,-0.428642,-0.146517,0.124373,0,0,3.34044,1
1777236468399,-0.0915892,-0.999663,0.133761,-0.421934,-0.156971,0.118288,0,0,3.44075,1
1777236468412,-0.105129,-0.993852,0.126751,-0.408559,-0.148302,0.112823,0,0,3.34127,1
1777236468426,-0.119039,-0.987938,0.121341,-0.388672,-0.119463,0.108166,0,0,3.43921,1
1777236468439,-0.132307,-0.98319,0.114231,-0.363664,-0.073255,0.100749,0,0,3.35625,1
1777236468453,-0.137393,-0.98,0.107285,-0.335522,-0.0217201,0.0910189,0,0,3.92914,1
1777236468467,-0.136242,-0.978904,0.104183,-0.309372,0.017676,0.0771086,0,0,3.3761,1
1777236468480,-0.13534,-0.97837,0.100138,-0.287683,0.0441956,0.0629595,0,0,3.39936,1
1777236468494,-0.136937,-0.976941,0.0959822,-0.274125,0.0605702,0.054222,0,0,3.43162,1
1777236468507,-0.138678,-0.974672,0.091924,-0.265702,0.0676889,0.0506175,0,0,3.33879,1
1777236468521,-0.141058,-0.970803,0.0866955,-0.261228,0.0673234,0.0451329,0,0,3.41481,1
1777236468534,-0.150363,-0.964291,0.0785849,-0.257982,0.0657848,0.0376108,0,0,3.3522,1
1777236468548,-0.152618,-0.961179,0.0703527,-0.255316,0.0671235,0.0255917,0,0,3.42092,1
1777236468561,-0.152743,-0.960182,0.0618863,-0.25298,0.0673611,0.0122933,0,0,3.43325,1
1777236468575,-0.151082,-0.958834,0.0514793,-0.250028,0.0667195,0.00339965,0,0,3.51109,1
1777236468588,-0.144524,-0.95776,0.0414463,-0.244171,0.0595182,-0.00723057,0,0,3.42562,1
1777236468602,-0.134198,-0.959079,0.0363064,-0.239124,0.046685,-0.017285,0,0,3.35568,1
1777236468615,-0.126648,-0.963185,0.0308144,-0.236713,0.0301001,-0.0201803,0,0,3.42396,1
1777236468629,-0.122442,-0.9681,0.0265287,-0.235213,0.0159486,-0.0144123,0,0,3.34366,4
1777236468642,-0.116795,-0.97224,0.0246736,-0.231926,0.000784101,-0.0143258,0,0,3.35986,4
1777236468656,-0.119388,-0.97815,0.0233847,-0.227979,-0.0049191,-0.0145717,0,0,3.43166,4
1777236468669,-0.113275,-0.990487,0.0215257,-0.229321,-0.00783971,-0.00908968,0,0,3.40873,4
1777236468683,-0.122606,-0.993543,0.0188822,-0.229333,-0.00359416,-0.00401239,0,0,3.40773,4
1777236468696,-0.124272,-1.00141,0.0175522,-0.231429,0.00667408,-0.00316554,0,0,3.33629,4
1777236468710,-0.126459,-1.00811,0.0149819,-0.233531,0.0250528,-0.00343948,0,0,3.41312,4
1777236468723,-0.130063,-1.01331,0.0114956,-0.236582,0.0501267,-0.000716104,0,0,3.32464,4
1777236468737,-0.134672,-1.01117,0.00618453,-0.237342,0.0796349,0.00328365,0,0,3.42175,4
1777236468750,-0.129762,-1.01504,0.00234545,-0.239795,0.107876,-0.000317057,0,0,3.39899,4
1777236468764,-0.125274,-1.01483,-0.002725,-0.245275,0.128167,-0.00268152,0,0,3.37553,4
1777236468777,-0.114621,-1.03211,-0.0119209,-0.257271,0.128561,0.0127781,0,0,3.40286,4
1777236468791,-0.126123,-1.07025,-0.0163339,-0.268286,0.162185,0.0307121,0,0,3.38372,4
1777236468804,-0.123305,-1.07479,-0.0257632,-0.280798,0.168577,-0.00485192,0,0,3.40871,4
1777236468818,-0.12282,-1.06455,-0.0314085,-0.294202,0.183598,-0.0156463,0,0,3.33396,4
1777236468831,-0.102904,-1.06596,-0.0332214,-0.308654,0.184092,-0.0229495,0,0,3.40336,4
1777236468845,-0.100668,-1.06318,-0.0352136,-0.32571,0.183334,-0.0339465,0,0,3.33003,4
1777236468858,-0.0938692,-1.06702,-0.0381658,-0.348754,0.178669,-0.0486195,0,0,3.44044,4
1777236468872,-0.0928562,-1.07118,-0.0432384,-0.375692,0.170481,-0.0600583,0,0,3.34086,4
1777236468885,-0.0960946,-1.07525,-0.0485112,-0.403992,0.163162,-0.0707865,0,0,3.47666,4
1777236468899,-0.0999358,-1.0792,-0.0524457,-0.433034,0.160854,-0.0830345,0,0,3.39683,4
1777236468912,-0.10266,-1.08662,-0.0561191,-0.465722,0.164325,-0.0966382,0,0,3.29258,4
1777236468926,-0.107823,-1.09287,-0.0595337,-0.499259,0.174571,-0.109489,0,0,3.44727,4
1777236468939,-0.113626,-1.09813,-0.0622087,-0.532564,0.194547,-0.12334,0,0,3.32903,4
1777236468953,-0.120014,-1.10563,-0.0658825,-0.567124,0.22772,-0.138648,0,0,3.37533,4
1777236468966,-0.101594,-1.13646,-0.0598068,-0.60829,0.268775,-0.157741,0,0,3.3471,4
1777236468979,-0.100496,-1.17684,-0.0475826,-0.670751,0.307159,-0.169085,0,0,3.40792,4
1777236468993,-0.122127,-1.19819,-0.0365189,-0.725778,0.381513,-0.17196,0,0,3.31657,4
1777236469006,-0.129873,-1.23143,-0.0159426,-0.790451,0.48948,-0.181939,0,0,3.29783,4
1777236469020,-0.135343,-1.26814,0.00970778,-0.879447,0.608791,-0.177175,0,0,3.33283,4
1777236469033,-0.150098,-1.29171,0.0432059,-0.989374,0.731053,-0.149096,0,0,3.40373,4
1777236469047,-0.169054,-1.318,0.0846437,-1.11399,0.849504,-0.11482,0,0,3.36231,4
1777236469060,-0.188246,-1.35118,0.125769,-1.26483,0.94292,-0.0891435,0,0,3.48518,4
1777236469074,-0.199375,-1.37585,0.161088,-1.42579,0.989023,-0.101933,0,0,3.40668,4
1777236469087,-0.206754,-1.38925,0.17126,-1.59862,0.978016,-0.163493,0,0,3.42466,4
1777236469101,-0.202061,-1.36729,0.133829,-1.74908,0.910713,-0.277542,0,0,3.36447,4
1777236469114,-0.203038,-1.32366,0.0283979,-1.86944,0.796917,-0.434886,0,0,3.35114,4
1777236469128,-0.253012,-1.32157,-0.0619177,-1.9563,0.704238,-0.578003,0,0,3.39509,4
1777236469141,-0.292315,-1.25372,-0.0964179,-1.98166,0.668531,-0.630448,0,0,3.34949,4
1777236469155,-0.290631,-1.19805,-0.129943,-1.958,0.653064,-0.609686,0,0,3.41086,4
1777236469168,-0.2625,-1.1513,-0.152745,-1.92095,0.619652,-0.573479,0,0,3.40734,4
1777236469182,-0.224434,-1.09659,-0.189979,-1.86454,0.571491,-0.565278,0,0,3.41444,4
1777236469195,-0.193798,-1.02476,-0.231314,-1.76948,0.551548,-0.584475,0,0,3.39912,4
1777236469209,-0.14751,-0.961626,-0.261862,-1.65081,0.556901,-0.603754,0,0,3.33499,4
1777236469222,-0.0742167,-0.895166,-0.282497,-1.51073,0.542087,-0.606233,0,0,3.4036,4
1777236469236,0.00173995,-0.8235,-0.298837,-1.36099,0.487935,-0.579011,0,0,3.37945,4
1777236469249,0.0806204,-0.64025,-0.323061,-1.15161,0.423877,-0.47742,0,0,3.29936,4
1777236469263,0.125171,-0.569425,-0.324629,-0.960148,0.339554,-0.421323,0,0,3.42751,4
1777236469276,0.166907,-0.50491,-0.334806,-0.724843,0.245353,-0.380378,0,0,3.35636,4
1777236469290,0.191336,-0.469131,-0.327716,-0.47083,0.143952,-0.325315,0,0,3.58685,4
1777236469303,0.142541,-0.461328,-0.351545,-0.228325,0.0926956,-0.200536,0,0,3.3486,4
1777236469317,0.173688,-0.39748,-0.34196,0.0118282,0.0418265,-0.0843523,0,0,3.44892,4
1777236469330,0.219197,-0.371129,-0.302078,0.277554,-0.0704626,-0.0463114,0,0,3.41405,4
1777236469344,0.191342,-0.374921,-0.285532,0.522389,-0.168553,-0.0313664,0,0,3.4371,4
1777236469357,0.115201,-0.366116,-0.272228,0.75437,-0.166504,0.0397647,0,0,3.43736,4
1777236469371,0.0693928,-0.351362,-0.26576,0.98368,-0.0905222,0.130885,0,0,3.33986,4
1777236469384,0.0845381,-0.327131,-0.250879,1.23019,-0.0160713,0.188295,0,0,3.51007,4
1777236469398,0.110299,-0.361557,-0.224157,1.44204,0.0345971,0.210704,0,0,3.38155,4
1777236469411,0.129609,-0.385848,-0.182973,1.61858,0.0750523,0.233971,0,0,3.48253,4
1777236469425,0.140808,-0.425824,-0.14165,1.7657,0.118841,0.289123,0,0,3.40903,4
1777236469438,0.170221,-0.474236,-0.11063,1.8883,0.143856,0.370084,0,0,3.32314,4
1777236469452,0.175329,-0.514725,-0.103451,1.99047,0.166102,0.434255,0,0,3.37644,4
1777236469465,0.167796,-0.571304,-0.0982481,2.07561,0.203914,0.466511,0,0,3.45733,4
1777236469479,0.188988,-0.637351,-0.101773,2.14656,0.226926,0.465553,0,0,3.42653,5
1777236469492,0.208513,-0.713514,-0.104673,2.20568,0.23212,0.470136,0,0,3.3209,5
1777236469506,0.230773,-0.790611,-0.116328,2.25495,0.225774,0.502887,0,0,3.48342,5
1777236469520,0.262873,-0.875919,-0.133331,2.29601,0.190537,0.538475,0,0,3.40142,5
1777236469533,0.283535,-0.953395,-0.154464,2.33022,0.125079,0.559734,0,0,3.44408,5
1777236469547,0.280982,-1.02632,-0.171106,2.35873,0.049474,0.578697,0,0,3.41586,5
1777236469560,0.251355,-1.10171,-0.179218,2.3825,-0.0180464,0.601026,0,0,3.52679,5
1777236469574,0.212539,-1.18427,-0.181725,2.4023,-0.0673415,0.617509,0,0,3.54477,5
1777236469588,0.189325,-1.26867,-0.184738,2.39479,-0.103484,0.614069,0,0,3.51084,5
1777236469601,0.194232,-1.34316,-0.193306,2.3462,-0.147089,0.597831,0,0,3.59862,5
1777236469615,0.201484,-1.41067,-0.20393,2.25892,-0.204966,0.583193,0,0,3.45192,5
1777236469629,0.19488,-1.453,-0.220553,2.14816,-0.2605,0.57079,0,0,3.36588,5
1777236469642,0.179334,-1.48101,-0.237977,2.0163,-0.307961,0.550722,0,0,3.42971,5
1777236469656,0.146373,-1.50101,-0.252784,1.86184,-0.334102,0.52592,0,0,3.50829,5
1777236469669,0.115342,-1.49625,-0.27024,1.68954,-0.336816,0.49403,0,0,3.44014,5
1777236469683,0.0904913,-1.486,-0.29109,1.49866,-0.313809,0.455368,0,0,3.37338,5
1777236469696,0.0774087,-1.46941,-0.316367,1.29986,-0.275223,0.407082,0,0,3.43896,5
1777236469710,0.0676908,-1.45098,-0.331171,1.09243,-0.231452,0.356334,0,0,3.4129,5
1777236469723,0.0481864,-1.4227,-0.330384,0.88564,-0.175726,0.305075,0,0,3.38616,5
1777236469737,0.0300619,-1.38392,-0.313325,0.690629,-0.119696,0.25531,0,0,3.40925,5
1777236469750,0.00255099,-1.34073,-0.266021,0.521402,-0.0705224,0.219285,0,0,3.33322,5
1777236469764,-0.0170559,-1.27948,-0.216875,0.373636,-0.0316567,0.180053,0,0,3.43234,5
1777236469777,-0.0261006,-1.22651,-0.160404,0.251593,-0.00188948,0.149879,0,0,3.38753,5
1777236469791,-0.0165164,-1.17761,-0.102205,0.152472,0.00870533,0.143869,0,0,3.45014,5
1777236469804,-0.00488156,-1.12767,-0.0469461,0.0652917,0.00813231,0.138211,0,0,3.37814,5
1777236469818,-0.0217074,-1.0861,0.0212669,0.011509,0.0179856,0.134871,0,0,3.5482,5
1777236469832,-0.0261499,-1.06771,0.0909468,-0.0521904,0.0312602,0.132189,0,0,3.44177,5
1777236469845,-0.0575135,-1.06934,0.318318,-0.130578,0.0691927,0.13129,0,0,3.49044,5
1777236469859,-0.0510929,-1.11795,0.439578,-0.305609,0.15364,0.1125,0,0,3.48892,5
1777236469872,0.029023,-1.13722,0.359101,-0.471163,0.155413,0.0778845,0,0,3.36116,1
1777236469886,0.0414773,-1.15298,0.324295,-0.584137,0.149994,0.0958325,0,0,3.4711,1
1777236469900,-0.0145619,-1.13305,0.321711,-0.668269,0.158786,0.16383,0,0,3.41646,1
1777236469913,-0.0444607,-1.10136,0.278482,-0.742006,0.194548,0.198039,0,0,3.50194,1
1777236469927,-0.0455188,-1.06925,0.219361,-0.722269,0.144477,0.174651,0,0,3.4559,1
1777236469940,-0.0455044,-1.08406,0.18875,-0.692565,0.0427261,0.144003,0,0,3.40684,1
1777236469954,-0.0583606,-1.03727,0.188585,-0.652634,-0.0298275,0.147827,0,0,3.46729,1
1777236469968,-0.0618659,-1.01602,0.203466,-0.619867,-0.0756578,0.174321,0,0,3.45105,1
1777236469981,-0.0623033,-1.00895,0.207153,-0.605143,-0.121038,0.188983,0,0,3.42079,1
1777236469995,-0.092667,-0.992747,0.196263,-0.593663,-0.144516,0.184877,0,0,3.48031,1
1777236470008,-0.115716,-0.98032,0.19646,-0.569032,-0.132975,0.169561,0,0,3.49731,1
1777236470022,-0.104553,-0.983814,0.192898,-0.556572,-0.136321,0.157357,0,0,3.47683,1
1777236470036,-0.117961,-0.972853,0.186879,-0.546342,-0.143143,0.18094,0,0,3.48184,1
1777236470049,-0.142341,-0.957578,0.18014,-0.503313,-0.119044,0.186954,0,0,3.48368,1
1777236470063,-0.131659,-0.966096,0.181239,-0.479097,-0.0990762,0.145387,0,0,3.48883,1
1777236470077,-0.120004,-0.970145,0.177077,-0.459604,-0.0931233,0.118574,0,0,3.5286,1
1777236470090,-0.112555,-0.970476,0.170762,-0.445229,-0.0903636,0.119498,0,0,3.4586,1
1777236470104,-0.0984635,-0.977552,0.171745,-0.435452,-0.0989035,0.11691,0,0,3.44549,1
1777236470117,-0.0903464,-0.984724,0.170475,-0.431706,-0.12228,0.0985829,0,0,3.48222,1
1777236470131,-0.101058,-0.977246,0.162359,-0.422249,-0.127905,0.0941117,0,0,3.5152,1
1777236470145,-0.0927274,-0.980213,0.157629,-0.418515,-0.138827,0.0980702,0,0,3.46057,1
1777236470158,-0.105795,-0.977769,0.147474,-0.415149,-0.150307,0.0977557,0,0,3.42346,1
1777236470172,-0.130009,-0.962972,0.133446,-0.389826,-0.121706,0.095,0,0,3.4899,1
1777236470185,-0.125424,-0.965792,0.12577,-0.362374,-0.0914982,0.077589,0,0,3.4221,1
1777236470199,-0.124146,-0.966922,0.11917,-0.336762,-0.068933,0.0672148,0,0,3.41483,1
1777236470213,-0.114897,-0.968675,0.113568,-0.31552,-0.0590472,0.0619792,0,0,3.48494,1
1777236470226,-0.113429,-0.969554,0.106678,-0.297717,-0.0548422,0.056344,0,0,3.44533,1
1777236470240,-0.117849,-0.968611,0.100342,-0.279828,-0.0445059,0.0577422,0,0,3.51229,4
1777236470254,-0.119853,-0.968823,0.0936821,-0.260964,-0.0305106,0.0577877,0,0,3.4842,4
1777236470267,-0.123362,-0.96936,0.0895731,-0.242355,-0.0121431,0.0550012,0,0,3.5357,4
1777236470281,-0.12731,-0.970631,0.0868742,-0.225983,0.00864668,0.0542185,0,0,3.42116,4
1777236470294,-0.126362,-0.970222,0.0825041,-0.210813,0.0304626,0.0535027,0,0,3.39514,4
1777236470308,-0.125958,-0.971926,0.0790638,-0.198095,0.0495839,0.0533515,0,0,3.4452,4
1777236470321,-0.131333,-0.970768,0.0752082,-0.187178,0.0689917,0.0556682,0,0,3.43186,4
1777236470335,-0.133426,-0.971049,0.0701234,-0.17929,0.083371,0.0541765,0,0,3.47166,4
1777236470349,-0.137592,-0.970617,0.0662556,-0.176405,0.0904682,0.049829,0,0,3.45249,4
1777236470362,-0.13857,-0.972591,0.0625757,-0.177374,0.092095,0.0446794,0,0,3.36318,4
1777236470376,-0.138809,-0.972793,0.0571609,-0.17958,0.0876364,0.0392557,0,0,3.5142,4
1777236470389,-0.139595,-0.975091,0.0528135,-0.182614,0.083781,0.0321024,0,0,3.41555,4
1777236470403,-0.142176,-0.978663,0.048846,-0.186173,0.0830236,0.0268792,0,0,3.34449,4
1777236470416,-0.14387,-0.978676,0.0441466,-0.188949,0.0851914,0.0229719,0,0,3.45568,4
1777236470430,-0.14608,-0.979716,0.0390692,-0.189289,0.0898987,0.0147666,0,0,3.41688,4
1777236470444,-0.146487,-0.981939,0.0335026,-0.189815,0.0968749,0.00482462,0,0,3.46636,4
1777236470457,-0.148707,-0.984866,0.0294095,-0.189668,0.106034,-0.00119577,0,0,3.43157,4
1777236470471,-0.150698,-0.988726,0.0257271,-0.189507,0.119418,-0.00639088,0,0,3.46603,4
1777236470484,-0.148695,-0.99034,0.0205354,-0.186268,0.135164,-0.0154657,0,0,3.39651,4
1777236470498,-0.143932,-0.988879,0.0158347,-0.185618,0.149418,-0.0197456,0,0,3.44831,4
1777236470512,-0.136933,-0.992274,0.012236,-0.186577,0.156741,-0.0183249,0,0,3.38962,4
1777236470525,-0.137098,-0.997989,0.00853248,-0.19286,0.158239,-0.015716,0,0,3.40664,4
1777236470539,-0.141552,-1.00469,0.0048344,-0.202676,0.154855,-0.0166845,0,0,3.39334,4
1777236470552,-0.146127,-1.01028,0.0025566,-0.217739,0.152023,-0.0180386,0,0,3.40403,4
1777236470566,-0.14685,-1.01462,-0.00045053,-0.233001,0.148874,-0.0237853,0,0,3.46057,4
1777236470579,-0.147606,-1.0272,-0.00174236,-0.252069,0.147459,-0.0338033,0,0,3.34492,4
1777236470593,-0.154761,-1.02973,-0.00444037,-0.270426,0.146419,-0.0388437,0,0,3.41096,4
1777236470606,-0.161745,-1.02597,-0.00749062,-0.289846,0.154713,-0.0532222,0,0,3.37697,4
1777236470620,-0.160442,-1.02738,-0.00605315,-0.315928,0.163597,-0.0745681,0,0,3.40309,4
1777236470633,-0.156833,-1.04204,-0.00673539,-0.345538,0.175975,-0.0938195,0,0,3.39857,4
1777236470647,-0.153572,-1.05526,-0.00790681,-0.377745,0.190653,-0.115982,0,0,3.41475,4
1777236470660,-0.148713,-1.07288,-0.00876301,-0.413986,0.209806,-0.140481,0,0,3.40658,4
1777236470674,-0.128441,-1.0938,-0.00339381,-0.454606,0.232917,-0.164498,0,0,3.41075,4
1777236470687,-0.112609,-1.13137,0.00734829,-0.510683,0.249556,-0.181878,0,0,3.38575,4
1777236470701,-0.114692,-1.16123,0.0159993,-0.570595,0.279032,-0.194046,0,0,3.44981,4
1777236470714,-0.100834,-1.20355,0.0323896,-0.643104,0.314321,-0.229389,0,0,3.35296,4
1777236470728,-0.10257,-1.2384,0.0483573,-0.729419,0.361514,-0.270254,0,0,3.36234,4
1777236470741,-0.109161,-1.26756,0.0660815,-0.822684,0.431961,-0.287235,0,0,3.40233,4
1777236470755,-0.115849,-1.29475,0.0915398,-0.93118,0.513505,-0.284846,0,0,3.38853,4
1777236470768,-0.133269,-1.33454,0.116249,-1.07084,0.591623,-0.254318,0,0,3.45779,4
1777236470782,-0.168952,-1.35879,0.147933,-1.2308,0.670589,-0.215596,0,0,3.51003,4
1777236470796,-0.212833,-1.37379,0.18593,-1.40384,0.76544,-0.205643,0,0,3.4277,4
1777236470809,-0.228411,-1.37266,0.224131,-1.56699,0.848961,-0.239117,0,0,3.3469,4
1777236470823,-0.219803,-1.37265,0.247261,-1.71668,0.877035,-0.309137,0,0,3.42177,4
1777236470836,-0.194249,-1.3284,0.197338,-1.84746,0.838636,-0.409739,0,0,3.34046,4
1777236470850,-0.154239,-1.26972,0.0735326,-1.91923,0.734792,-0.52267,0,0,3.40923,4
1777236470863,-0.157786,-1.22925,-0.00851085,-1.8988,0.607339,-0.604274,0,0,3.34823,4
1777236470877,-0.199438,-1.18942,-0.0463169,-1.81936,0.526192,-0.608053,0,0,3.41544,4
1777236470890,-0.230905,-1.14706,-0.0640204,-1.73362,0.48885,-0.549789,0,0,3.39309,4
1777236470904,-0.239598,-1.0929,-0.0804527,-1.63597,0.464703,-0.491249,0,0,3.34107,4
1777236470917,-0.23817,-1.03311,-0.0987089,-1.5129,0.452151,-0.476703,0,0,3.40321,4
1777236470931,-0.227826,-0.977884,-0.116554,-1.36257,0.457365,-0.505039,0,0,3.33549,4
1777236470944,-0.192689,-0.940906,-0.127833,-1.21894,0.469394,-0.555738,0,0,3.41403,4
1777236470958,-0.139501,-0.901851,-0.138366,-1.0877,0.462282,-0.599464,0,0,3.34738,4
1777236470971,-0.0834456,-0.856587,-0.150664,-0.961889,0.41769,-0.605622,0,0,3.44325,4
1777236470985,-0.0376722,-0.795313,-0.161469,-0.820226,0.347235,-0.574265,0,0,3.40623,4
1777236470998,-0.0115069,-0.736227,-0.16535,-0.668089,0.271437,-0.517307,0,0,3.40166,4
1777236471012,0.00519434,-0.678235,-0.172934,-0.516333,0.205141,-0.448201,0,0,3.43451,4
1777236471025,0.0176037,-0.616754,-0.186403,-0.349998,0.152554,-0.380613,0,0,3.36073,4
1777236471039,0.0294394,-0.554913,-0.208006,-0.157975,0.114698,-0.318564,0,0,3.44955,4
1777236471052,0.0374313,-0.495076,-0.236639,0.0680358,0.0952766,-0.251183,0,0,3.38433,4
1777236471066,0.0501288,-0.451554,-0.246635,0.319266,0.0843081,-0.167372,0,0,3.45701,4
1777236471080,0.0599306,-0.435482,-0.246274,0.570903,0.0714909,-0.074846,0,0,3.44373,4
1777236471093,0.058918,-0.411812,-0.241907,0.823628,0.0733798,0.0217378,0,0,3.42997,4
1777236471107,0.0516045,-0.412334,-0.224314,1.07731,0.0959972,0.119413,0,0,3.44853,4
1777236471120,0.0606971,-0.444991,-0.196139,1.29834,0.116588,0.205439,0,0,3.36816,4
1777236471134,0.0795941,-0.49239,-0.174314,1.47213,0.118276,0.26952,0,0,3.45886,4
1777236471147,0.0880546,-0.549789,-0.172545,1.59965,0.118945,0.318417,0,0,3.36234,4
1777236471161,0.0848802,-0.595861,-0.1888,1.70284,0.140431,0.358846,0,0,3.45105,4
1777236471175,0.106156,-0.641556,-0.206098,1.79449,0.155639,0.393186,0,0,3.44594,4
1777236471188,0.157122,-0.698634,-0.219765,1.86901,0.118822,0.426294,0,0,3.44008,4
1777236471202,0.166369,-0.741081,-0.234687,1.95152,0.0825422,0.485067,0,0,3.43351,4
1777236471215,0.183631,-0.792315,-0.235129,2.02956,0.0483781,0.541512,0,0,3.41173,4
1777236471229,0.2028,-0.85475,-0.235383,2.08769,-0.00736943,0.570395,0,0,3.44814,5
1777236471242,0.213395,-0.904453,-0.23599,2.12345,-0.0742837,0.585329,0,0,3.3557,5
1777236471256,0.223109,-0.953429,-0.234684,2.13949,-0.153595,0.594505,0,0,3.46346,5
1777236471269,0.216711,-0.988714,-0.239147,2.15028,-0.238632,0.614835,0,0,3.38084,5
1777236471283,0.194685,-1.02726,-0.234722,2.15647,-0.319827,0.652541,0,0,3.47979,5
1777236471296,0.160795,-1.06601,-0.221036,2.15644,-0.390136,0.690336,0,0,3.36834,5
1777236471310,0.131306,-1.10994,-0.200466,2.14284,-0.444795,0.70369,0,0,3.42251,5
1777236471324,0.117445,-1.15703,-0.184667,2.1145,-0.486273,0.69567,0,0,3.44645,5
1777236471337,0.121948,-1.20177,-0.173265,2.07191,-0.527314,0.684662,0,0,3.33805,5
1777236471351,0.124151,-1.2495,-0.161211,2.01485,-0.575205,0.67648,0,0,3.4597,5
1777236471364,0.108403,-1.28248,-0.159334,1.94777,-0.609693,0.664586,0,0,3.39518,5
1777236471378,0.0781609,-1.327,-0.165974,1.86693,-0.610406,0.63746,0,0,3.44721,5
1777236471391,0.0609766,-1.34945,-0.180231,1.78644,-0.599232,0.597782,0,0,3.44157,5
1777236471405,0.0333168,-1.37418,-0.198079,1.67863,-0.572171,0.56581,0,0,3.41129,5
1777236471418,-0.0102262,-1.38451,-0.225929,1.5517,-0.496301,0.541992,0,0,3.44084,5
1777236471432,-0.020203,-1.38683,-0.263106,1.40381,-0.388138,0.501953,0,0,3.40703,5
1777236471445,0.0077782,-1.39203,-0.296703,1.23362,-0.299797,0.427034,0,0,3.45234,5
1777236471459,0.0235468,-1.37692,-0.330956,1.04631,-0.216892,0.356549,0,0,3.35029,5
1777236471472,0.035468,-1.36434,-0.353779,0.855729,-0.135858,0.304529,0,0,3.39953,5
1777236471486,0.04051,-1.35191,-0.368833,0.656963,-0.063444,0.251064,0,0,3.40073,5
1777236471499,0.0419922,-1.33909,-0.371254,0.454975,-0.00102521,0.187871,0,0,3.37029,5
1777236471513,0.0392254,-1.30326,-0.342279,0.262734,0.0479625,0.128035,0,0,3.3101,5
1777236471526,0.0107965,-1.23524,-0.276328,0.129937,0.103646,0.0973704,0,0,3.46749,5
1777236471540,-0.0173929,-1.1714,-0.150478,0.0329502,0.155163,0.0699207,0,0,3.42212,5
1777236471553,-0.14813,-1.18806,0.237457,-0.0447044,0.25803,0.0699848,0,0,3.32462,5
1777236471567,-0.104031,-1.11547,0.337298,-0.168958,0.313193,0.0232061,0,0,3.35579,5
1777236471580,-0.0224729,-1.19355,0.240089,-0.356002,0.301528,-0.0373537,0,0,3.37501,5
1777236471594,0.0247564,-1.2117,0.170586,-0.482763,0.204798,-0.0187489,0,0,3.34755,5
1777236471607,-0.0498301,-1.2117,0.193919,-0.588714,0.144914,0.0822894,0,0,3.31444,5
1777236471620,-0.0855693,-1.15018,0.183197,-0.670863,0.154426,0.134274,0,0,3.34877,5
1777236471634,-0.0656715,-1.12975,0.178584,-0.682678,0.162963,0.0738418,0,0,3.3019,1
1777236471647,-0.0339185,-1.11452,0.177475,-0.689751,0.0984871,0.0176544,0,0,3.35653,1
1777236471661,-0.03228,-1.09663,0.166249,-0.716993,-0.0026348,0.068885,0,0,3.30053,1
1777236471674,-0.0567233,-1.05439,0.151258,-0.697431,-0.0735061,0.160699,0,0,3.34047,1
1777236471688,-0.0865032,-1.02927,0.149214,-0.670696,-0.104843,0.198038,0,0,3.43358,1
1777236471701,-0.104123,-1.01673,0.150495,-0.640338,-0.115359,0.166291,0,0,3.36931,1
1777236471715,-0.123603,-1.00909,0.142213,-0.62032,-0.111692,0.132915,0,0,3.36653,1
1777236471728,-0.126844,-1.00638,0.145607,-0.602964,-0.107174,0.139706,0,0,3.40901,1
1777236471742,-0.12956,-0.99756,0.137262,-0.579238,-0.111869,0.159806,0,0,3.46281,1
1777236471756,-0.15238,-0.979898,0.132557,-0.531019,-0.0785927,0.170029,0,0,3.7146,1
1777236471769,-0.128215,-0.987566,0.137738,-0.478623,-0.0458629,0.145444,0,0,3.32368,1
1777236471783,-0.105464,-0.997569,0.139148,-0.445341,-0.0375448,0.128672,0,0,3.41762,1
1777236471796,-0.101218,-0.992581,0.135354,-0.410176,-0.0296461,0.157595,0,0,3.31914,1
1777236471809,-0.101489,-0.997065,0.13978,-0.381991,-0.0216262,0.173505,0,0,3.35544,1
1777236471823,-0.10819,-0.998256,0.143076,-0.362639,-0.0130473,0.167387,0,0,3.31012,1
1777236471836,-0.113204,-0.9981,0.143172,-0.348828,-0.00629258,0.161092,0,0,3.34692,1
1777236471850,-0.129075,-0.992817,0.133957,-0.340524,0.0127333,0.164841,0,0,3.31157,1
1777236471863,-0.140473,-0.989324,0.13239,-0.321569,0.0516289,0.170994,0,0,3.30946,1
1777236471877,-0.132258,-0.992243,0.128811,-0.312033,0.074589,0.164327,0,0,3.3216,1
1777236471890,-0.149768,-0.985447,0.12004,-0.294888,0.10142,0.153059,0,0,3.35784,1
1777236471903,-0.16822,-0.974239,0.113841,-0.256274,0.161819,0.149495,0,0,3.36247,1
1777236471917,-0.1466,-0.983971,0.114829,-0.235877,0.187165,0.128155,0,0,3.30064,1
1777236471930,-0.150509,-0.977108,0.104523,-0.226552,0.193375,0.113793,0,0,3.34616,1
1777236471944,-0.159051,-0.968832,0.0968625,-0.210969,0.207813,0.119064,0,0,3.30331,1
1777236471957,-0.158071,-0.969304,0.0926883,-0.20152,0.206752,0.113228,0,0,3.34071,1
1777236471971,-0.170893,-0.961349,0.0849462,-0.191254,0.20293,0.101138,0,0,3.32475,1
1777236471984,-0.185113,-0.952866,0.0775165,-0.180027,0.2051,0.092691,0,0,3.38134,1
1777236471998,-0.195819,-0.9492,0.0717415,-0.171867,0.20224,0.0818226,0,0,3.35896,1
1777236472011,-0.219431,-0.942221,0.0653119,-0.163655,0.2052,0.067244,0,0,3.32649,1
1777236472025,-0.237421,-0.932463,0.0567698,-0.149458,0.22268,0.046024,0,0,3.4242,1
1777236472038,-0.24117,-0.930424,0.0533748,-0.133276,0.238721,0.0184805,0,0,3.37944,1
1777236472052,-0.24198,-0.927078,0.0483681,-0.119295,0.247637,-0.00267843,0,0,3.54818,1
1777236472065,-0.235701,-0.926521,0.0446325,-0.106206,0.247153,-0.0171557,0,0,3.36783,1
1777236472079,-0.231956,-0.927549,0.0414213,-0.095452,0.237233,-0.0311157,0,0,3.40553,1
1777236472092,-0.229347,-0.927348,0.0352553,-0.0833092,0.228305,-0.0442377,0,0,3.4181,1
1777236472106,-0.217141,-0.931099,0.0324433,-0.0748696,0.208956,-0.060796,0,0,3.40297,1
1777236472119,-0.215294,-0.933197,0.0321895,-0.0682056,0.190326,-0.0745438,0,0,3.38903,1
1777236472133,-0.207803,-0.943898,0.0355403,-0.0654003,0.174165,-0.0866745,0,0,3.40557,1
1777236472146,-0.199015,-0.953414,0.0363905,-0.0714469,0.14973,-0.0957402,0,0,3.41586,1
1777236472160,-0.195278,-0.954084,0.0334932,-0.0750225,0.128885,-0.100674,0,0,3.40816,1
1777236472173,-0.19036,-0.958269,0.0329724,-0.0773534,0.109134,-0.109964,0,0,3.36196,1
1777236472187,-0.189308,-0.957559,0.02985,-0.0807207,0.0943421,-0.118698,0,0,3.43099,1
1777236472200,-0.177552,-0.959098,0.0283294,-0.081771,0.0787838,-0.128584,0,0,3.32333,4
1777236472214,-0.169051,-0.958118,0.0261727,-0.0850128,0.0559076,-0.131123,0,0,3.41784,4
1777236472227,-0.164147,-0.96132,0.0240429,-0.0876888,0.0334981,-0.132424,0,0,3.34231,4
1777236472241,-0.163717,-0.967382,0.0228371,-0.0956694,0.0130805,-0.137949,0,0,3.49279,4
1777236472255,-0.164535,-0.971648,0.0219511,-0.104292,0.00137113,-0.141726,0,0,3.3641,4
1777236472268,-0.158875,-0.978569,0.0219861,-0.115218,-0.0058294,-0.145637,0,0,3.37349,4
1777236472282,-0.152706,-0.982809,0.0202792,-0.125137,-0.00880185,-0.147878,0,0,3.42533,4
1777236472295,-0.147446,-0.988291,0.0175426,-0.132983,-0.00757661,-0.151972,0,0,3.39184,4
1777236472309,-0.144714,-0.993759,0.0175794,-0.143097,-0.00546142,-0.153743,0,0,3.41223,4
1777236472322,-0.143628,-0.999086,0.0156168,-0.154858,-0.000632611,-0.152941,0,0,3.33658,4
1777236472336,-0.139307,-1.00593,0.0146206,-0.16798,0.00230997,-0.153952,0,0,3.4211,4
1777236472349,-0.136682,-1.01271,0.0126618,-0.183558,0.00566544,-0.151296,0,0,3.34762,4
1777236472363,-0.131958,-1.0184,0.00912734,-0.197482,0.0117187,-0.150698,0,0,3.37331,4
1777236472376,-0.127599,-1.02415,0.00631601,-0.211031,0.0193203,-0.150798,0,0,3.40895,4
1777236472390,-0.123267,-1.03023,0.00210572,-0.224714,0.0281613,-0.149024,0,0,3.39714,4
1777236472403,-0.118219,-1.03609,-0.00274012,-0.239323,0.0341929,-0.150077,0,0,3.40084,4
1777236472417,-0.11818,-1.04096,-0.0061431,-0.25581,0.037947,-0.157138,0,0,3.32118,4
1777236472430,-0.127958,-1.05924,-0.00526926,-0.28035,0.0473859,-0.16703,0,0,3.40873,4
1777236472444,-0.133198,-1.05301,-0.0149985,-0.315241,0.0667529,-0.16867,0,0,3.34994,4
1777236472457,-0.132182,-1.04731,-0.0206467,-0.331403,0.0837444,-0.173243,0,0,3.48897,4
1777236472471,-0.131557,-1.05455,-0.0261941,-0.349592,0.0987819,-0.187397,0,0,3.38105,4
1777236472484,-0.124484,-1.05686,-0.0276324,-0.370029,0.117471,-0.201139,0,0,3.36336,4
1777236472498,-0.113743,-1.06519,-0.0291386,-0.397645,0.136188,-0.214448,0,0,3.40679,4
1777236472511,-0.0957944,-1.07536,-0.0304142,-0.42604,0.154991,-0.228795,0,0,3.32738,4
1777236472525,-0.0620666,-1.10677,-0.0201651,-0.464575,0.167213,-0.242342,0,0,3.39599,4
1777236472538,-0.0430139,-1.14964,-0.0057009,-0.526586,0.156583,-0.24456,0,0,3.35094,4
1777236472552,-0.0318766,-1.18223,0.0100744,-0.595692,0.144544,-0.254703,0,0,3.41336,4
1777236472565,-0.0212096,-1.22453,0.0249935,-0.680443,0.122451,-0.29579,0,0,3.34922,4
1777236472579,-0.0242699,-1.24921,0.0391691,-0.77453,0.103722,-0.332687,0,0,3.43412,4
1777236472592,-0.0315597,-1.27306,0.0530531,-0.882706,0.0987378,-0.341985,0,0,3.40834,4
1777236472606,-0.0394652,-1.29096,0.0652041,-1.00602,0.0928285,-0.333753,0,0,3.31707,4
1777236472619,-0.0584255,-1.29142,0.0747566,-1.12934,0.0944691,-0.322021,0,0,3.3889,4
1777236472633,-0.0926138,-1.28966,0.0772273,-1.24726,0.116103,-0.317931,0,0,3.33684,4
1777236472646,-0.139348,-1.29653,0.0763483,-1.36467,0.163801,-0.321037,0,0,3.39699,4
1777236472660,-0.190347,-1.29616,0.0967218,-1.47446,0.23285,-0.347454,0,0,3.34855,4
1777236472673,-0.247012,-1.28647,0.117789,-1.58846,0.316179,-0.400245,0,0,3.38529,4
1777236472687,-0.272532,-1.27903,0.133506,-1.70909,0.388482,-0.465535,0,0,3.40181,4
1777236472700,-0.253927,-1.25645,0.106808,-1.8146,0.411865,-0.540388,0,0,3.37449,4
1777236472714,-0.210654,-1.23179,0.00394043,-1.89202,0.367903,-0.635146,0,0,3.39146,4
1777236472727,-0.191163,-1.22464,-0.0997528,-1.93346,0.287095,-0.741769,0,0,3.31905,4
1777236472741,-0.214101,-1.21437,-0.156034,-1.91619,0.245251,-0.803866,0,0,3.38188,4
1777236472754,-0.239615,-1.18651,-0.186143,-1.86353,0.254846,-0.78457,0,0,3.34057,4
1777236472768,-0.229144,-1.13919,-0.196456,-1.79083,0.272448,-0.709139,0,0,3.44827,4
1777236472781,-0.192096,-1.08073,-0.197463,-1.68853,0.262116,-0.63511,0,0,3.35664,4
1777236472795,-0.159062,-1.02315,-0.212107,-1.55499,0.243481,-0.591192,0,0,3.39616,4
1777236472808,-0.128418,-0.965923,-0.22717,-1.39193,0.230865,-0.562393,0,0,3.39977,4
1777236472822,-0.0902624,-0.91807,-0.236517,-1.23318,0.220161,-0.532452,0,0,3.32107,4
1777236472835,-0.0439768,-0.86121,-0.246787,-1.07378,0.201203,-0.489944,0,0,3.40475,4
1777236472849,0.00187178,-0.795113,-0.257408,-0.89801,0.166308,-0.427091,0,0,3.37147,4
1777236472862,0.0343435,-0.72312,-0.268496,-0.704309,0.124481,-0.341456,0,0,3.44896,4
1777236472876,0.0465793,-0.649998,-0.267185,-0.493781,0.0962275,-0.236939,0,0,3.35947,4
1777236472889,0.0508006,-0.582586,-0.251183,-0.269945,0.0858639,-0.125884,0,0,3.43612,4
1777236472903,0.034101,-0.528561,-0.241408,-0.0344326,0.0964514,-0.0161374,0,0,3.45234,4
1777236472916,0.0299612,-0.46779,-0.235784,0.21712,0.133468,0.0775827,0,0,3.35916,4
1777236472930,0.0572838,-0.411906,-0.21829,0.487842,0.162177,0.140594,0,0,3.4662,4
1777236472943,0.0596119,-0.400672,-0.183091,0.747655,0.189321,0.198625,0,0,3.36097,4
1777236472957,0.0550703,-0.396003,-0.160701,0.989012,0.235554,0.272531,0,0,3.44401,4
1777236472970,0.0729393,-0.396967,-0.141874,1.22116,0.280531,0.346664,0,0,3.3729,4
1777236472984,0.0996173,-0.424088,-0.120508,1.43389,0.307835,0.395311,0,0,3.52029,4
1777236472998,0.120882,-0.460536,-0.0985156,1.61179,0.324277,0.441665,0,0,3.44579,4
1777236473011,0.144684,-0.504278,-0.0847616,1.76005,0.337279,0.51864,0,0,3.41499,4
1777236473025,0.172396,-0.555028,-0.0719193,1.88359,0.334247,0.591907,0,0,3.44896,4
1777236473038,0.207652,-0.620838,-0.0663349,1.98654,0.3092,0.633714,0,0,3.33964,4
1777236473052,0.228996,-0.685183,-0.0654114,2.07233,0.287642,0.657408,0,0,3.44597,4
1777236473065,0.269179,-0.766367,-0.0720089,2.14383,0.246177,0.673463,0,0,3.36634,4
1777236473079,0.31433,-0.844575,-0.0876781,2.20341,0.154651,0.696779,0,0,3.40858,5
1777236473092,0.328309,-0.911576,-0.0996417,2.25305,0.0293088,0.738843,0,0,3.45585,5
1777236473106,0.308789,-0.97319,-0.109482,2.29443,-0.0993038,0.778756,0,0,3.55029,5
1777236473120,0.272409,-1.03376,-0.117768,2.32891,-0.215527,0.804803,0,0,3.46097,5
1777236473133,0.234904,-1.09337,-0.12374,2.35334,-0.323842,0.81885,0,0,3.3446,5
1777236473147,0.202341,-1.15149,-0.129986,2.35894,-0.426026,0.830543,0,0,3.44949,5
1777236473160,0.178058,-1.21183,-0.131678,2.34774,-0.520912,0.843124,0,0,3.36721,5
1777236473174,0.165758,-1.27055,-0.131956,2.31606,-0.607045,0.842603,0,0,3.46462,5
1777236473187,0.162157,-1.3254,-0.136315,2.26675,-0.682245,0.822895,0,0,3.37362,5
1777236473201,0.155974,-1.37694,-0.147693,2.19533,-0.751527,0.79217,0,0,3.46308,5
1777236473214,0.128761,-1.4132,-0.168188,2.11012,-0.809479,0.763157,0,0,3.45036,5
1777236473228,0.0790107,-1.43593,-0.194443,2.00745,-0.837263,0.736244,0,0,3.38231,5
1777236473241,0.0310228,-1.45573,-0.224702,1.88042,-0.831981,0.699148,0,0,3.3684,5
1777236473255,-0.00510805,-1.46272,-0.263746,1.7244,-0.797135,0.653208,0,0,3.4811,5
1777236473268,-0.0232553,-1.46487,-0.31045,1.53874,-0.739164,0.602775,0,0,3.41834,5
1777236473282,-0.0182284,-1.4557,-0.360167,1.33262,-0.681174,0.550837,0,0,3.41314,5
1777236473296,-0.0118692,-1.43853,-0.407902,1.1122,-0.621881,0.49585,0,0,3.44577,5
1777236473309,-0.00995128,-1.41587,-0.445807,0.883987,-0.562827,0.436644,0,0,3.47862,5
1777236473323,-0.0134013,-1.39144,-0.456874,0.656872,-0.499837,0.377585,0,0,3.50873,5
1777236473336,-0.00153353,-1.31383,-0.489452,0.41934,-0.43564,0.31959,0,0,3.43583,5
1777236473350,-0.0527093,-1.24928,-0.396386,0.286168,-0.351342,0.305905,0,0,3.36934,5
1777236473364,-0.224444,-1.35136,0.103095,0.120941,-0.156996,0.315557,0,0,3.45942,5
1777236473377,-0.120423,-1.25059,0.299365,-0.103032,-0.00376875,0.215382,0,0,3.37584,5
1777236473391,0.023295,-1.34089,0.122608,-0.375593,-0.0146928,0.0388613,0,0,3.44162,5
1777236473404,0.0491797,-1.33583,0.108253,-0.514496,-0.0445213,0.0193946,0,0,3.41001,5
1777236473418,-0.0646251,-1.32381,0.135361,-0.637041,-0.0318212,0.170679,0,0,3.39466,5
1777236473431,-0.0732566,-1.24092,0.108966,-0.770461,0.0362304,0.244115,0,0,3.43283,5
1777236473445,-0.0224559,-1.19692,0.124687,-0.765804,0.0618078,0.166279,0,0,3.38509,5
1777236473458,0.00833159,-1.18085,0.126015,-0.797979,-0.00888792,0.0994312,0,0,3.42962,1
1777236473472,-0.0185357,-1.13752,0.104745,-0.828036,-0.0903837,0.165378,0,0,3.35414,1
1777236473485,-0.0509992,-1.09344,0.0835428,-0.805361,-0.118373,0.266416,0,0,3.41481,1
1777236473499,-0.0634852,-1.07469,0.0937994,-0.764391,-0.137092,0.29055,0,0,3.48886,1
1777236473512,-0.0802133,-1.05806,0.112388,-0.730173,-0.170796,0.24425,0,0,3.45773,1
1777236473526,-0.125043,-1.02979,0.114372,-0.692205,-0.179963,0.204114,0,0,3.37055,1
1777236473540,-0.154056,-1.01116,0.11677,-0.644471,-0.160148,0.179599,0,0,3.4727,1
1777236473553,-0.146688,-1.00859,0.122583,-0.611182,-0.143316,0.141192,0,0,3.42684,1
1777236473567,-0.137396,-1.00109,0.124124,-0.582817,-0.127293,0.110714,0,0,3.38033,1
1777236473580,-0.112631,-0.998664,0.124851,-0.551151,-0.114754,0.0971597,0,0,3.44364,1
1777236473594,-0.0944754,-0.99884,0.125064,-0.516786,-0.116226,0.0936127,0,0,3.36566,1
1777236473607,-0.0922565,-0.999636,0.126696,-0.484956,-0.123433,0.0829343,0,0,3.44618,1
1777236473621,-0.0956705,-0.999813,0.125797,-0.467743,-0.132924,0.0640355,0,0,3.36879,1
1777236473634,-0.0951279,-1.00222,0.12611,-0.466147,-0.153442,0.0494571,0,0,3.42825,1
1777236473648,-0.0957506,-0.99858,0.120012,-0.470479,-0.186482,0.0317613,0,0,3.43397,1
1777236473661,-0.108806,-0.989695,0.111726,-0.469012,-0.208455,0.0108825,0,0,3.36388,1
1777236473675,-0.120591,-0.981434,0.100349,-0.458274,-0.205659,-0.00710171,0,0,3.45621,1
1777236473688,-0.129119,-0.970368,0.0867073,-0.437009,-0.186153,-0.0254728,0,0,3.35225,1
1777236473702,-0.120211,-0.97067,0.0782734,-0.41037,-0.163359,-0.0376141,0,0,3.42723,1
1777236473715,-0.105432,-0.972154,0.0711761,-0.383629,-0.15009,-0.0422738,0,0,3.4096,1
1777236473729,-0.090992,-0.975952,0.0671696,-0.359144,-0.142225,-0.0463096,0,0,3.46068,1
1777236473742,-0.0775861,-0.97851,0.0625006,-0.337823,-0.139564,-0.0438712,0,0,3.35999,1
1777236473756,-0.0689708,-0.9788,0.0563236,-0.316978,-0.138695,-0.0335314,0,0,3.47436,1
1777236473770,-0.0661878,-0.981015,0.0508319,-0.296654,-0.135592,-0.0210726,0,0,3.50559,1
1777236473783,-0.0679538,-0.980975,0.046289,-0.277123,-0.12751,-0.00595744,0,0,3.33268,1
1777236473797,-0.0725756,-0.980265,0.040318,-0.257946,-0.116106,0.00658763,0,0,3.4197,1
1777236473810,-0.0769101,-0.981289,0.0358738,-0.240553,-0.10248,0.0114693,0,0,3.42849,1
1777236473824,-0.0794187,-0.981599,0.032369,-0.225181,-0.0877026,0.0125222,0,0,3.59005,1
1777236473838,-0.0778649,-0.980099,0.027428,-0.210628,-0.0727547,0.0147099,0,0,3.40714,1
1777236473851,-0.0721726,-0.981306,0.022752,-0.197572,-0.0600055,0.0186069,0,0,3.47675,4
1777236473865,-0.0674235,-0.983351,0.0191748,-0.186462,-0.0506408,0.0240045,0,0,3.44921,4
1777236473878,-0.0637506,-0.984934,0.0160046,-0.176886,-0.0441854,0.0308816,0,0,3.34331,4
1777236473892,-0.0634893,-0.986308,0.0121905,-0.167902,-0.0394166,0.0356074,0,0,3.42212,4
1777236473905,-0.0620399,-0.989077,0.0101981,-0.159867,-0.0348573,0.0363141,0,0,3.3394,4
1777236473919,-0.0648029,-0.990291,0.00737435,-0.152485,-0.0292513,0.0381116,0,0,3.42831,4
1777236473932,-0.0682313,-0.991539,0.00341065,-0.146091,-0.0218061,0.0386426,0,0,3.34873,4
1777236473946,-0.0721088,-0.993908,3.36056e-05,-0.140076,-0.0105636,0.0372531,0,0,3.48286,4
1777236473960,-0.0710678,-0.995097,-0.00312363,-0.135152,0.00110792,0.0345557,0,0,3.36368,4
1777236473973,-0.0692632,-0.996129,-0.00567179,-0.129688,0.0126154,0.0340636,0,0,3.37534,4
1777236473987,-0.0713961,-0.997057,-0.00865629,-0.123697,0.0264416,0.0359054,0,0,3.42242,4
1777236474000,-0.0722828,-0.999022,-0.0108614,-0.118106,0.0439558,0.0380891,0,0,3.34473,4
1777236474014,-0.070672,-1.00211,-0.0118752,-0.11421,0.0580675,0.0435221,0,0,3.41185,4
1777236474027,-0.0797613,-0.998583,-0.0156508,-0.112593,0.0688603,0.0512684,0,0,3.34816,4
1777236474041,-0.0837923,-0.998705,-0.017996,-0.113306,0.0757424,0.043029,0,0,3.42301,4
1777236474054,-0.0891903,-0.997846,-0.0205146,-0.116419,0.079938,0.0321679,0,0,3.35229,4
1777236474068,-0.0948099,-0.996972,-0.022637,-0.122932,0.0859661,0.0248601,0,0,3.4459,4
1777236474081,-0.100944,-0.998851,-0.0251232,-0.127901,0.0922364,0.0134903,0,0,3.43818,4
1777236474095,-0.100478,-1.00219,-0.0276357,-0.137271,0.0975761,-0.00159527,0,0,3.31692,4
1777236474108,-0.100299,-1.00866,-0.0273076,-0.147001,0.101517,-0.0158332,0,0,3.39662,4
1777236474122,-0.101335,-1.00944,-0.0292749,-0.158735,0.104916,-0.0277363,0,0,3.38305,4
1777236474135,-0.105193,-1.0157,-0.0295673,-0.175065,0.108193,-0.042223,0,0,3.41051,4
1777236474149,-0.106999,-1.01942,-0.0301751,-0.19347,0.111611,-0.060453,0,0,3.35249,4
1777236474162,-0.103709,-1.02661,-0.0324079,-0.215627,0.11418,-0.0791943,0,0,3.40634,4
1777236474176,-0.101689,-1.038,-0.0347325,-0.238812,0.117643,-0.0987561,0,0,3.39847,4
1777236474189,-0.0977471,-1.05175,-0.0340806,-0.262839,0.12352,-0.12035,0,0,3.33421,4
1777236474203,-0.0891775,-1.06709,-0.0332894,-0.288486,0.131165,-0.14318,0,0,3.39901,4
1777236474216,-0.0692546,-1.15814,-0.0372994,-0.346333,0.127205,-0.160182,0,0,3.38371,4
1777236474230,-0.0801714,-1.19724,-0.0387543,-0.387021,0.123561,-0.167836,0,0,3.39434,4
1777236474243,-0.0728884,-1.20188,-0.0390844,-0.438128,0.119749,-0.198349,0,0,3.33992,4
1777236474257,-0.0575892,-1.22611,-0.0322934,-0.497244,0.104333,-0.244184,0,0,3.41081,4
1777236474270,-0.0543436,-1.22961,-0.0268476,-0.559039,0.0933433,-0.275688,0,0,3.34395,4
1777236474284,-0.045413,-1.24327,-0.0191918,-0.628525,0.0896945,-0.296521,0,0,3.43197,4
1777236474297,-0.0444153,-1.24528,-0.0142499,-0.701812,0.0948599,-0.316554,0,0,3.3904,4
1777236474311,-0.0524285,-1.24552,-0.0117609,-0.77436,0.123668,-0.339685,0,0,3.41333,4
1777236474324,-0.059643,-1.23398,-0.0102755,-0.842781,0.182014,-0.368796,0,0,3.44166,4
1777236474338,-0.0656495,-1.21894,-0.010337,-0.900867,0.265584,-0.399684,0,0,3.3301,4
1777236474351,-0.0694811,-1.20939,-0.00916785,-0.953572,0.360315,-0.420729,0,0,3.42038,4
1777236474365,-0.0753494,-1.20445,-0.0068981,-1.01144,0.458608,-0.409424,0,0,3.3421,4
1777236474378,-0.0708572,-1.21206,0.00260069,-1.09687,0.541996,-0.343731,0,0,3.40144,4
1777236474392,-0.0762868,-1.21687,0.0146118,-1.19136,0.595709,-0.272919,0,0,3.39179,4
1777236474405,-0.103714,-1.2129,0.027067,-1.2905,0.641551,-0.238819,0,0,3.34775,4
1777236474419,-0.135988,-1.19845,0.0456343,-1.38553,0.694397,-0.251738,0,0,3.40412,4
1777236474432,-0.146186,-1.19756,0.0520712,-1.47621,0.726336,-0.308752,0,0,3.33107,4
1777236474446,-0.117915,-1.19096,-0.0188117,-1.55929,0.708092,-0.406441,0,0,3.38912,4
1777236474459,-0.072843,-1.16676,-0.130992,-1.59925,0.634326,-0.531665,0,0,3.33025,4
1777236474473,-0.0559412,-1.14774,-0.201913,-1.56485,0.544012,-0.632583,0,0,3.44421,4
1777236474486,-0.0728269,-1.13654,-0.220249,-1.4866,0.480811,-0.647471,0,0,3.34455,4
1777236474500,-0.076903,-1.1319,-0.230411,-1.42733,0.435867,-0.578058,0,0,3.35407,4
1777236474513,-0.056603,-1.09293,-0.234697,-1.35963,0.38396,-0.486053,0,0,3.45542,4
1777236474527,-0.0319646,-1.04366,-0.244532,-1.26105,0.323211,-0.431317,0,0,3.35525,4
1777236474540,-0.0160099,-0.99666,-0.259697,-1.14326,0.270182,-0.42756,0,0,3.39107,4
1777236474554,-0.00148197,-0.960811,-0.272092,-1.01676,0.229351,-0.44485,0,0,3.33971,4
1777236474567,0.021909,-0.929107,-0.280377,-0.901626,0.186698,-0.447973,0,0,3.40899,4
1777236474581,0.0454669,-0.88839,-0.286186,-0.791775,0.132083,-0.417751,0,0,3.38468,4
1777236474594,0.0666283,-0.836245,-0.296217,-0.678019,0.070578,-0.358927,0,0,3.38045,4
1777236474608,0.0827813,-0.780869,-0.309365,-0.553235,0.0121102,-0.293444,0,0,3.4147,4
1777236474621,0.100602,-0.724555,-0.322518,-0.415571,-0.0478853,-0.235924,0,0,3.41223,4
1777236474635,0.119613,-0.666879,-0.325219,-0.261971,-0.116571,-0.184313,0,0,3.45051,4
1777236474648,0.124698,-0.618829,-0.327082,-0.0994793,-0.183542,-0.126915,0,0,3.3496,4
1777236474662,0.117821,-0.578817,-0.327445,0.0700014,-0.234682,-0.0583069,0,0,3.46134,4
1777236474675,0.105931,-0.543594,-0.331845,0.246477,-0.264461,0.0138155,0,0,3.35986,4
1777236474689,0.098567,-0.512949,-0.330583,0.432789,-0.284583,0.0758513,0,0,3.54083,4
1777236474703,0.09227,-0.493388,-0.32701,0.623737,-0.301796,0.120589,0,0,3.38712,4
1777236474716,0.0852908,-0.473766,-0.322331,0.820264,-0.314461,0.150834,0,0,3.57321,4
1777236474730,0.0699981,-0.464032,-0.309357,1.02475,-0.314112,0.17871,0,0,3.44362,4
1777236474743,0.0473908,-0.467807,-0.288377,1.2209,-0.288401,0.215503,0,0,3.35418,4
1777236474757,0.0572638,-0.507759,-0.252982,1.36728,-0.27424,0.265311,0,0,3.44779,4
1777236474770,0.0256214,-0.533085,-0.23837,1.51275,-0.23361,0.321385,0,0,3.38236,4
1777236474784,0.00680286,-0.566366,-0.227484,1.64376,-0.151189,0.359615,0,0,3.4692,4
1777236474797,0.0202227,-0.622961,-0.219609,1.75265,-0.074235,0.35861,0,0,3.3782,4
1777236474811,0.0378903,-0.680334,-0.224161,1.83888,-0.0162773,0.365712,0,0,3.40107,4
1777236474824,0.0599857,-0.73449,-0.229174,1.91368,0.0165883,0.404824,0,0,3.45696,4
1777236474838,0.0757915,-0.788587,-0.233013,1.97935,0.0231365,0.452506,0,0,3.34084,5
1777236474852,0.0797666,-0.827063,-0.226854,2.03861,0.0155654,0.485269,0,0,3.45097,5
1777236474865,0.0776521,-0.886945,-0.223116,2.08418,-0.00393721,0.507902,0,0,3.36475,5
1777236474879,0.0854034,-0.944277,-0.220031,2.10911,-0.0468942,0.52843,0,0,3.45533,5
1777236474892,0.0882727,-1.00699,-0.212527,2.11221,-0.112615,0.554913,0,0,3.3754,5
1777236474906,0.0863886,-1.06047,-0.207074,2.09346,-0.19022,0.593433,0,0,3.51027,5
1777236474919,0.0923131,-1.11289,-0.197449,2.05708,-0.28512,0.633662,0,0,3.40581,5
1777236474933,0.0964595,-1.15762,-0.186905,2.00474,-0.39148,0.667059,0,0,3.44855,5
1777236474946,0.100542,-1.19582,-0.17405,1.94319,-0.498078,0.691048,0,0,3.45383,5
1777236474960,0.0988106,-1.23227,-0.160927,1.87555,-0.598755,0.702069,0,0,3.36122,5
1777236474974,0.0847926,-1.2608,-0.151689,1.80615,-0.682881,0.702539,0,0,3.45723,5
1777236474987,0.0604931,-1.27938,-0.146242,1.73978,-0.747477,0.693286,0,0,3.38375,5
1777236475001,0.0258193,-1.29276,-0.141544,1.67773,-0.788992,0.674685,0,0,3.47103,5
1777236475014,-0.0179904,-1.2998,-0.138882,1.61149,-0.800178,0.651283,0,0,3.38094,5
1777236475028,-0.0636196,-1.29999,-0.135733,1.53964,-0.778685,0.622138,0,0,3.4554,5
1777236475041,-0.108223,-1.29305,-0.137408,1.45871,-0.717237,0.592265,0,0,3.44816,5
1777236475055,-0.13424,-1.28461,-0.141596,1.36878,-0.625484,0.560412,0,0,3.33657,5
1777236475068,-0.136787,-1.27767,-0.145907,1.26429,-0.526402,0.523982,0,0,3.45088,5
1777236475082,-0.132402,-1.26801,-0.150262,1.14608,-0.419814,0.484909,0,0,3.35464,5
1777236475095,-0.123095,-1.24935,-0.153496,1.02086,-0.301397,0.441775,0,0,3.44549,5
1777236475109,-0.103464,-1.22814,-0.146781,0.893221,-0.178632,0.389444,0,0,3.37292,5
1777236475122,-0.0771543,-1.20522,-0.131043,0.763867,-0.0611502,0.333658,0,0,3.49916,5
1777236475136,-0.045915,-1.17712,-0.102868,0.637243,0.0432527,0.279804,0,0,3.40871,5
1777236475149,-0.0115536,-1.14744,-0.0656347,0.520972,0.120917,0.219023,0,0,3.39784,5
1777236475163,0.0207891,-1.1218,-0.027581,0.410645,0.171413,0.152748,0,0,3.4326,5
1777236475176,0.0471327,-1.09925,0.00890058,0.305156,0.20105,0.108524,0,0,3.32877,5
1777236475190,0.0640853,-1.07729,0.0390628,0.206078,0.214018,0.0711365,0,0,3.43796,5
1777236475204,0.069056,-1.05595,0.0634165,0.117278,0.223793,0.0254763,0,0,3.36251,5
1777236475217,0.0756237,-1.04298,0.0850759,0.0329611,0.231024,-0.0299021,0,0,3.44116,5
1777236475231,0.0684252,-1.02653,0.114465,-0.0413747,0.247443,-0.0779336,0,0,3.42183,5
1777236475244,0.0762664,-1.02786,0.132937,-0.125408,0.256737,-0.127782,0,0,3.38597,5
1777236475258,0.0401575,-0.981565,0.148363,-0.170651,0.280602,-0.163164,0,0,3.4304,1
1777236475271,-0.0373593,-0.98779,0.190228,-0.203265,0.371023,-0.178184,0,0,3.33633,1
1777236475285,-0.166913,-1.00166,0.33197,-0.244159,0.525967,-0.198843,0,0,3.43053,1
1777236475298,-0.293036,-0.979369,0.538776,-0.308389,0.797021,-0.22784,0,0,3.35279,1
1777236475312,-0.190818,-1.01271,0.463597,-0.406508,0.954896,-0.373403,0,0,3.35651,1
1777236475325,-0.0451266,-1.08764,0.385713,-0.53022,0.919653,-0.46575,0,0,3.41803,1
1777236475339,-0.0257324,-1.09819,0.383626,-0.62989,0.769049,-0.387997,0,0,3.42612,1
1777236475352,-0.0666416,-1.06647,0.338639,-0.739578,0.65847,-0.265367,0,0,3.44647,1
1777236475366,-0.0660637,-1.02991,0.301897,-0.740628,0.595252,-0.246648,0,0,3.42181,1
1777236475379,-0.0382483,-1.04897,0.295123,-0.751808,0.492621,-0.290489,0,0,3.43634,1
1777236475393,-0.0172189,-1.02698,0.256748,-0.755782,0.323252,-0.283499,0,0,3.34477,1
1777236475406,-0.0370839,-1.01779,0.212234,-0.734538,0.192481,-0.213781,0,0,3.43231,1
1777236475420,-0.0425886,-0.987171,0.189222,-0.680194,0.101546,-0.146395,0,0,3.36079,1
1777236475434,-0.0354966,-0.999317,0.17767,-0.638419,0.00408748,-0.125342,0,0,3.46203,1
1777236475447,-0.0450067,-0.986346,0.167159,-0.604904,-0.0935658,-0.11636,0,0,3.40086,1
1777236475461,-0.0778426,-0.971512,0.155394,-0.569964,-0.153519,-0.0806309,0,0,3.40681,1
1777236475474,-0.0766895,-0.976714,0.160011,-0.542324,-0.205922,-0.0519888,0,0,3.4506,1
1777236475488,-0.110562,-0.956941,0.148609,-0.511873,-0.220151,-0.0364156,0,0,3.3401,1
1777236475501,-0.138685,-0.94965,0.147911,-0.466981,-0.182963,-0.0163769,0,0,3.46125,1
1777236475515,-0.129739,-0.947244,0.144345,-0.417471,-0.141706,0.00576734,0,0,3.40847,1
1777236475528,-0.113158,-0.9504,0.139801,-0.368083,-0.114373,0.0194499,0,0,3.53351,1
1777236475542,-0.0928093,-0.965815,0.138526,-0.332703,-0.107169,0.0239563,0,0,3.44495,1
1777236475556,-0.0785848,-0.971382,0.138095,-0.307698,-0.122882,0.038017,0,0,3.42627,1
1777236475569,-0.0746315,-0.973641,0.134664,-0.294303,-0.15099,0.0567063,0,0,3.46214,1
1777236475583,-0.0743197,-0.980331,0.13471,-0.292301,-0.19655,0.0631967,0,0,3.47159,1
1777236475596,-0.0904887,-0.972854,0.126739,-0.290391,-0.238206,0.0601321,0,0,3.48527,1
1777236475610,-0.11865,-0.967004,0.120461,-0.284626,-0.252322,0.0606954,0,0,3.45833,5
1777236475624,-0.147251,-0.958966,0.114625,-0.271832,-0.239187,0.0611647,0,0,3.46816,5
1777236475637,-0.170378,-0.95395,0.1084,-0.254275,-0.204157,0.0487568,0,0,3.45616,5
1777236475651,-0.170446,-0.956479,0.102448,-0.240432,-0.16882,0.0254271,0,0,3.40562,5
1777236475664,-0.154549,-0.958901,0.0981168,-0.23017,-0.147656,0.00487886,0,0,3.47755,5
1777236475678,-0.130323,-0.965507,0.0947424,-0.221223,-0.141723,-0.0107562,0,0,3.44481,5
1777236475692,-0.117718,-0.968379,0.090365,-0.207889,-0.136093,-0.0249177,0,0,3.45151,5
1777236475705,-0.104586,-0.973576,0.092291,-0.19361,-0.130039,-0.0287291,0,0,3.36753,5
1777236475719,-0.0917375,-0.964897,0.0882044,-0.18339,-0.12306,-0.0109765,0,0,3.49246,5
1777236475732,-0.0948981,-0.97023,0.0860719,-0.175675,-0.114904,-0.0110937,0,0,3.38877,5
1777236475746,-0.103144,-0.971772,0.0852177,-0.172935,-0.105588,-0.0175145,0,0,3.43753,5
1777236475759,-0.105831,-0.969894,0.079393,-0.172281,-0.0944404,-0.0216819,0,0,3.33525,5
1777236475773,-0.112089,-0.968971,0.0762018,-0.169191,-0.0813339,-0.0281573,0,0,3.5296,5
1777236475786,-0.113243,-0.9692,0.0710504,-0.163435,-0.0652973,-0.0369123,0,0,3.38329,5
1777236475800,-0.11106,-0.970395,0.0662562,-0.157252,-0.0520226,-0.0427449,0,0,3.47496,5
1777236475813,-0.106399,-0.972913,0.0641526,-0.153689,-0.0393191,-0.0458244,0,0,3.39523,4
1777236475827,-0.0998097,-0.977319,0.0621011,-0.152566,-0.0279186,-0.046075,0,0,3.4282,4
1777236475841,-0.0971452,-0.978763,0.0581322,-0.15154,-0.0153647,-0.0421745,0,0,3.42546,4
1777236475854,-0.0950249,-0.978538,0.0536247,-0.149095,-0.000831918,-0.0419774,0,0,3.43066,4
1777236475868,-0.0950821,-0.980047,0.0493251,-0.1445,0.00909045,-0.0442433,0,0,3.40979,4
1777236475881,-0.0958074,-0.982161,0.0465893,-0.140531,0.022181,-0.0523783,0,0,3.42514,4
1777236475895,-0.0936703,-0.982775,0.0409005,-0.138267,0.038077,-0.0427707,0,0,3.44531,4
1777236475908,-0.0973162,-0.982632,0.037602,-0.131152,0.0518708,-0.0434667,0,0,3.43677,4
1777236475922,-0.0888999,-0.981832,0.034159,-0.124267,0.065045,-0.0459932,0,0,3.3532,4
1777236475935,-0.0822361,-0.984483,0.031009,-0.117042,0.0715579,-0.0427425,0,0,3.43586,4
1777236475949,-0.0725576,-0.986464,0.0274375,-0.109316,0.0714382,-0.0385322,0,0,3.41768,4
1777236475963,-0.0718436,-0.985867,0.0238541,-0.103158,0.0676616,-0.033815,0,0,3.44396,4
1777236475976,-0.0749555,-0.984641,0.0202604,-0.0955834,0.0681022,-0.0324031,0,0,3.36571,4
1777236475990,-0.0798128,-0.982193,0.0146308,-0.0880116,0.0721081,-0.0361247,0,0,3.39203,4
1777236476003,-0.0865073,-0.983253,0.0140862,-0.0810911,0.08523,-0.0393278,0,0,3.36794,4
1777236476017,-0.0938638,-0.983722,0.0143855,-0.0760619,0.105262,-0.0410048,0,0,3.47305,4
1777236476030,-0.0986424,-0.984773,0.0137445,-0.0725071,0.13025,-0.0441834,0,0,3.38029,4
1777236476044,-0.104239,-0.984914,0.0111934,-0.0679416,0.154674,-0.0548729,0,0,3.44545,4
1777236476057,-0.108326,-0.983073,0.0105227,-0.0573178,0.182254,-0.0727503,0,0,3.41186,4
1777236476071,-0.110298,-0.979127,0.00704492,-0.0450167,0.209957,-0.0946583,0,0,3.45781,4
1777236476085,-0.115099,-0.975282,0.00447583,-0.0284427,0.244099,-0.115956,0,0,3.44794,4
1777236476098,-0.11399,-0.970143,-0.000939692,-0.0116793,0.27993,-0.131006,0,0,3.45088,4
1777236476112,-0.115827,-0.978581,0.00246563,0.00296442,0.326226,-0.135839,0,0,3.44664,4
1777236476125,-0.126559,-0.982337,0.0140442,0.0115416,0.377352,-0.129586,0,0,3.4454,4
1777236476139,-0.154375,-0.982637,0.0181131,0.0180786,0.438938,-0.129209,0,0,3.37225,4
1777236476152,-0.152048,-0.983252,0.0159514,0.0225591,0.483123,-0.174532,0,0,3.48375,4
1777236476166,-0.14813,-0.983207,0.0149754,0.0244608,0.516228,-0.212415,0,0,3.42427,4
1777236476180,-0.135945,-0.984165,0.010171,0.0247861,0.549694,-0.227382,0,0,3.46434,4
1777236476193,-0.169152,-0.979142,0.0115331,0.0303752,0.590661,-0.218149,0,0,3.41573,4
1777236476207,-0.256438,-0.968926,0.0192144,0.0456052,0.678935,-0.2052,0,0,3.43431,4
1777236476221,-0.3393,-0.960731,0.0295188,0.0619484,0.829825,-0.237871,0,0,3.54975,5
1777236476234,-0.360412,-0.960404,0.044385,0.0711402,0.997615,-0.303862,0,0,3.42533,5
1777236476248,-0.348661,-0.981869,0.0578391,0.0599069,1.16411,-0.371221,0,0,3.44792,5
1777236476261,-0.299339,-0.948966,0.0593541,0.0382812,1.29949,-0.451857,0,0,3.46742,5
1777236476275,-0.221448,-0.942307,0.0591574,0.0508705,1.39227,-0.499461,0,0,3.4264,5
1777236476288,-0.143141,-0.946725,0.0639732,0.0606999,1.43109,-0.519067,0,0,3.46571,5
1777236476302,-0.0761825,-0.958893,0.0697308,0.0664739,1.43401,-0.531831,0,0,3.43481,5
1777236476316,-0.0244172,-0.965435,0.0779146,0.0654967,1.41093,-0.522811,0,0,3.4096,5
1777236476329,0.00772257,-0.971502,0.0817064,0.0626594,1.37747,-0.5042,0,0,3.62192,5
1777236476343,0.0150695,-0.971976,0.0830039,0.0595317,1.35204,-0.48738,0,0,3.49866,5
1777236476357,0.0238934,-0.972066,0.08368,0.0593299,1.34098,-0.478758,0,0,3.44742,5
1777236476370,0.0276617,-0.97179,0.0855539,0.0605612,1.34446,-0.474487,0,0,3.48812,5
1777236476384,0.0266868,-0.967818,0.0879852,0.0688646,1.36821,-0.4772,0,0,3.44962,5
1777236476398,0.0211756,-0.96733,0.0917689,0.0786976,1.41071,-0.494002,0,0,3.50196,5
1777236476411,0.00915194,-0.965586,0.0995581,0.087935,1.47886,-0.514073,0,0,3.42323,5
1777236476425,-0.00469745,-0.970153,0.106803,0.0930502,1.57148,-0.532682,0,0,3.4486,5
1777236476438,-0.0175583,-0.97547,0.119979,0.0959642,1.67674,-0.552197,0,0,3.49407,5
1777236476452,-0.0378933,-0.982145,0.130002,0.0942704,1.79137,-0.571678,0,0,3.47444,5
1777236476466,-0.0608248,-0.984111,0.134233,0.091663,1.90969,-0.585495,0,0,3.47903,5
1777236476479,-0.0832439,-0.992832,0.135848,0.0851136,2.00829,-0.596831,0,0,3.39686,5
1777236476493,-0.106248,-0.998571,0.128563,0.0734598,2.09046,-0.601074,0,0,3.48473,5
1777236476506,-0.114574,-1.00082,0.109659,0.0594735,2.15893,-0.594394,0,0,3.39264,5
1777236476520,-0.102597,-1.00476,0.0716594,0.04792,2.21599,-0.57688,0,0,3.50183,5
1777236476533,-0.087018,-1.01253,0.0296911,0.0397298,2.26354,-0.542769,0,0,3.42405,5
1777236476547,-0.0759695,-1.02607,-0.0181355,0.0236043,2.30317,-0.501023,0,0,3.63584,5
1777236476561,-0.070334,-1.04229,-0.0659333,-0.00323048,2.33619,-0.460509,0,0,3.46364,5
1777236476574,-0.0812051,-1.0464,-0.113352,-0.0348168,2.36371,-0.419966,0,0,3.40584,5
1777236476588,-0.0946651,-1.05007,-0.144839,-0.0649427,2.38664,-0.37043,0,0,3.46984,5
1777236476601,-0.104003,-1.05106,-0.155029,-0.0969688,2.40575,-0.313221,0,0,3.38929,5
1777236476615,-0.111403,-1.04559,-0.148852,-0.121405,2.42167,-0.259211,0,0,3.51392,5
1777236476629,-0.113934,-1.04013,-0.124315,-0.136451,2.43494,-0.217128,0,0,3.39501,5
1777236476642,-0.107607,-1.03259,-0.0934882,-0.144625,2.446,-0.191169,0,0,3.42138,5
1777236476656,-0.0967408,-1.02932,-0.0549169,-0.148116,2.45522,-0.178239,0,0,3.4587,5
1777236476669,-0.0936121,-1.0252,-0.0133211,-0.154308,2.45572,-0.170988,0,0,3.42149,5
1777236476683,-0.0944346,-1.01525,0.0276514,-0.154799,2.45107,-0.172948,0,0,3.46923,5
1777236476696,-0.094473,-1.00906,0.0666027,-0.151734,2.44254,-0.181821,0,0,3.39357,5
1777236476710,-0.0890373,-1.0015,0.101322,-0.150644,2.42544,-0.193884,0,0,3.43649,5
1777236476723,-0.0802964,-0.997696,0.133943,-0.150307,2.39682,-0.205386,0,0,3.46145,5
1777236476737,-0.0714848,-0.989635,0.162427,-0.15032,2.36402,-0.212389,0,0,3.45897,5
1777236476751,-0.060006,-0.98225,0.190214,-0.144083,2.32591,-0.219816,0,0,3.4634,5
1777236476764,-0.0474017,-0.974262,0.215078,-0.134421,2.28075,-0.228332,0,0,3.46114,5
1777236476778,-0.035268,-0.968195,0.236795,-0.122997,2.22874,-0.238941,0,0,3.48007,5
1777236476791,-0.0270495,-0.964665,0.257098,-0.111009,2.1702,-0.251764,0,0,3.38494,5
1777236476805,-0.0224556,-0.95893,0.273246,-0.0994921,2.10912,-0.263722,0,0,3.4761,5
1777236476819,-0.0229067,-0.956106,0.287716,-0.088279,2.0468,-0.274234,0,0,3.39234,5
1777236476832,-0.0262581,-0.949762,0.297577,-0.0770773,1.98539,-0.282129,0,0,3.40864,5
1777236476846,-0.0311626,-0.946151,0.305302,-0.0649435,1.92365,-0.287563,0,0,3.47184,5
1777236476859,-0.0456834,-0.945526,0.308278,-0.0531781,1.86302,-0.286188,0,0,3.52196,5
1777236476873,-0.065079,-0.946431,0.306164,-0.0432464,1.80823,-0.281098,0,0,3.47721,5
1777236476886,-0.086648,-0.948053,0.302977,-0.0382906,1.76235,-0.279261,0,0,3.38903,5
1777236476900,-0.106533,-0.951134,0.301208,-0.0364763,1.72391,-0.279829,0,0,3.47862,5
1777236476914,-0.127304,-0.947504,0.300026,-0.0377124,1.69486,-0.273815,0,0,3.41192,5
1777236476927,-0.13633,-0.94773,0.301058,-0.0393023,1.66234,-0.268624,0,0,3.49521,5
1777236476941,-0.147095,-0.945706,0.307649,-0.0448384,1.62541,-0.262098,0,0,3.42149,5
1777236476955,-0.153802,-0.936614,0.322637,-0.0504824,1.58114,-0.24998,0,0,3.53805,5
1777236476968,-0.155508,-0.923669,0.348776,-0.0548041,1.52127,-0.232528,0,0,3.46808,5
1777236476982,-0.155381,-0.891679,0.399298,-0.042922,1.44213,-0.206597,0,0,3.46031,5
1777236476995,-0.154659,-0.859626,0.46311,-0.011608,1.33954,-0.149569,0,0,3.49701,5
1777236477009,-0.141775,-0.902317,0.470448,-0.00841378,1.20813,-0.0815748,0,0,3.43073,5
1777236477023,-0.0715537,-0.912133,0.371297,-0.020612,1.05452,-0.0862232,0,0,3.4721,5
1777236477036,-0.0221999,-0.947711,0.30149,-0.00617157,0.908669,-0.116115,0,0,3.39996,5
1777236477050,0.0714491,-0.974677,0.294737,-0.0301939,0.72202,-0.105897,0,0,3.49129,5
1777236477063,0.163953,-0.999826,0.272306,-0.0872481,0.47363,-0.0493545,0,0,3.45188,5
1777236477077,0.144729,-0.974916,0.229989,-0.0892716,0.293267,0.0395583,0,0,3.43592,5
1777236477091,0.13222,-0.983884,0.20795,-0.0952327,0.200878,0.120917,0,0,3.46255,5
1777236477104,0.123258,-0.980088,0.175529,-0.096587,0.104485,0.158067,0,0,3.37816,5
1777236477118,0.0568285,-0.976567,0.15005,-0.091965,0.0575285,0.20073,0,0,3.48531,5
1777236477131,0.0113454,-0.972223,0.130985,-0.0776426,0.035205,0.225952,0,0,3.3927,5
1777236477145,-0.0353184,-0.973503,0.114432,-0.0676284,0.0305207,0.215278,0,0,3.49738,5
1777236477158,-0.0632219,-0.969434,0.095396,-0.0586471,0.0432329,0.19249,0,0,3.46099,5
1777236477172,-0.0653466,-0.969762,0.0808949,-0.0521423,0.0510402,0.172291,0,0,3.44358,5
1777236477186,-0.0564139,-0.969661,0.0684334,-0.047256,0.0512358,0.1614,0,0,3.47131,5
1777236477199,-0.035468,-0.977069,0.0589974,-0.0416828,0.0386507,0.151765,0,0,3.40214,5
1777236477213,-0.0218183,-0.986879,0.0545689,-0.0418476,0.0181631,0.152501,0,0,3.47353,5
1777236477226,-0.0225143,-0.990731,0.0495658,-0.0405982,-0.00396079,0.159247,0,0,3.38494,5
1777236477240,-0.0305823,-0.99369,0.0443855,-0.0372033,-0.0164177,0.157426,0,0,3.47097,5
1777236477253,-0.0351743,-0.994135,0.0385044,-0.0320842,-0.0208952,0.14769,0,0,3.48436,5
1777236477267,-0.0410271,-0.992978,0.0313716,-0.0263297,-0.0186467,0.144474,0,0,3.43257,5
1777236477281,-0.0457226,-0.990686,0.0258864,-0.017374,-0.00975014,0.147685,0,0,3.47183,5
1777236477294,-0.0530166,-0.988825,0.0228935,-0.00742998,0.00287997,0.149051,0,0,3.54673,5
1777236477308,-0.0625022,-0.988528,0.0196193,0.00305771,0.0196646,0.145863,0,0,3.46629,5
1777236477321,-0.0664911,-0.987305,0.0177739,0.0115812,0.0321505,0.138626,0,0,3.39455,5
1777236477335,-0.0670912,-0.986372,0.0157535,0.0177935,0.0376191,0.12855,0,0,3.47538,5
1777236477349,-0.0650063,-0.986238,0.0137098,0.0212019,0.0341482,0.116501,0,0,3.39957,5
1777236477362,-0.0632927,-0.986185,0.0133187,0.0224011,0.0272736,0.108382,0,0,3.55553,5
1777236477376,-0.0664054,-0.987105,0.0117888,0.0231587,0.0198909,0.102812,0,0,3.45557,5
1777236477389,-0.0736762,-0.986616,0.0114901,0.0256348,0.0200363,0.0962493,0,0,3.47227,5
1777236477403,-0.0769327,-0.987865,0.0120993,0.0287669,0.0249412,0.0872943,0,0,3.47816,5
1777236477416,-0.0815617,-0.987405,0.0128856,0.0326747,0.0336851,0.0790811,0,0,3.40416,5
1777236477430,-0.0823635,-0.987006,0.0123136,0.0372416,0.0426892,0.0706847,0,0,3.49134,5
1777236477444,-0.0813224,-0.986981,0.0123639,0.0414291,0.0477372,0.0612957,0,0,3.39133,5
1777236477457,-0.0806759,-0.986059,0.0135014,0.0451858,0.0510914,0.0536625,0,0,3.51497,5
1777236477471,-0.07664,-0.986062,0.0136847,0.0491434,0.0497899,0.046449,0,0,3.4134,5
1777236477484,-0.0756132,-0.98481,0.0140369,0.0528231,0.0436036,0.0399543,0,0,3.52888,5
1777236477498,-0.076298,-0.982951,0.0129915,0.0570218,0.0351658,0.0338042,0,0,3.42529,5
1777236477512,-0.0774396,-0.982978,0.0123734,0.0606861,0.0247629,0.0266816,0,0,3.5364,5
1777236477525,-0.0813905,-0.981618,0.0114828,0.064961,0.0154194,0.0182525,0,0,3.46855,5
1777236477539,-0.0837269,-0.980791,0.0112565,0.0713988,0.00949076,0.00798393,0,0,3.37766,5
1777236477552,-0.0830853,-0.979815,0.0123148,0.0798044,0.00570795,-0.00208718,0,0,3.47147,5
1777236477566,-0.084941,-0.979258,0.0146813,0.0903586,0.00686858,-0.00896578,0,0,3.4421,5
1777236477580,-0.0812117,-0.981573,0.0168646,0.100553,0.0093116,-0.0136292,0,0,3.47366,5
1777236477593,-0.0780061,-0.979916,0.0200149,0.110245,0.0099098,-0.0156325,0,0,3.3916,5
1777236477607,-0.0764132,-0.980567,0.022911,0.118614,0.00965766,-0.0165385,0,0,3.42633,5
1777236477620,-0.0717487,-0.982806,0.0267444,0.122331,0.00474016,-0.0179043,0,0,3.45179,5
1777236477634,-0.0755809,-0.982112,0.0302979,0.126701,0.00190179,-0.0187752,0,0,3.40096,5
1777236477647,-0.0781038,-0.983086,0.0356673,0.127976,0.000477951,-0.0203406,0,0,3.47523,5
1777236477661,-0.0785248,-0.984382,0.0386241,0.127601,-0.00143377,-0.0253856,0,0,3.49101,5
1777236477675,-0.0821397,-0.984606,0.0436041,0.12557,0.00071359,-0.0307349,0,0,3.42144,5
1777236477688,-0.0832514,-0.985348,0.0469949,0.122708,0.00675242,-0.0359304,0,0,3.47773,5
1777236477702,-0.0841844,-0.986346,0.0515153,0.119369,0.014253,-0.0414051,0,0,3.47616,5
1777236477716,-0.0842546,-0.985732,0.0552148,0.11338,0.0225899,-0.0460056,0,0,3.46573,5
1777236477729,-0.0871788,-0.985618,0.0586198,0.108415,0.0333797,-0.0506408,0,0,3.55912,5
1777236477743,-0.0871439,-0.986966,0.061351,0.101592,0.0441395,-0.0580531,0,0,3.47946,5
1777236477756,-0.0839286,-0.987332,0.0654595,0.0940113,0.0519229,-0.066749,0,0,3.3906,0
1777236477770,-0.0804936,-0.986878,0.0663885,0.0862308,0.0572258,-0.0757896,0,0,3.48553,0
1777236477784,-0.0757096,-0.986484,0.068289,0.0791873,0.0605508,-0.0841504,0,0,3.40349,0
1777236477797,-0.0689824,-0.987139,0.0706468,0.0710912,0.0599374,-0.0906978,0,0,3.49642,0
1777236477811,-0.0631416,-0.987515,0.072726,0.0615454,0.0549987,-0.0951362,0,0,3.41505,0
1777236477824,-0.0588426,-0.987069,0.0733731,0.0521657,0.0466719,-0.0986186,0,0,3.48651,0
1777236477838,-0.0560752,-0.986875,0.0732272,0.0428099,0.0372266,-0.103111,0,0,3.4539,0
1777236477851,-0.054895,-0.987446,0.0725536,0.0333721,0.0275107,-0.107809,0,0,3.3981,0
1777236477866,-0.0556076,-0.988457,0.0733521,0.024006,0.0198086,-0.111825,0,0,3.49438,0
1777236477880,-0.0544891,-0.98705,0.0732733,0.0150686,0.0145478,-0.115898,0,0,3.38936,0
1777236477894,-0.0521667,-0.987084,0.0732692,0.00699738,0.010024,-0.120767,0,0,3.46801,0
1777236477907,-0.0506329,-0.987242,0.0727509,-0.000568339,0.00725916,-0.125041,0,0,3.39636,0
1777236477922,-0.0469527,-0.989599,0.0727513,-0.0110334,0.0044208,-0.12873,0,0,4.84998,0
1777236477936,-0.0432106,-0.990294,0.0741993,-0.0225278,0.000885017,-0.131029,0,0,3.37973,0
1777236477951,-0.0405407,-0.994597,0.077226,-0.0360124,-0.00469506,-0.134699,0,0,5.52602,0
1777236477965,-0.0393486,-1.00168,0.0827493,-0.0553411,-0.0104774,-0.140341,0,0,3.46577,0
1777236477979,-0.038217,-1.01121,0.0885421,-0.081512,-0.0149271,-0.148312,0,0,4.18005,0
1777236477993,-0.0401944,-1.01832,0.0921881,-0.110611,-0.016307,-0.159306,0,0,3.45699,0
1777236478006,-0.0422651,-1.02681,0.0929087,-0.142278,-0.0100904,-0.173277,0,0,3.38103,0
1777236478020,-0.0465401,-1.03618,0.0944029,-0.175181,0.00640049,-0.185809,0,0,3.45453,5
1777236478033,-0.0480319,-1.05329,0.0968263,-0.214393,0.0317587,-0.193442,0,0,3.39499,5
1777236478048,-0.0460135,-1.072,0.0971608,-0.258101,0.0673816,-0.199051,0,0,3.47038,5
1777236478061,-0.0468027,-1.09285,0.0979339,-0.296459,0.118009,-0.203344,0,0,3.38383,5
1777236478076,-0.0384798,-1.11884,0.106487,-0.334123,0.173239,-0.21537,0,0,4.79837,5
1777236478090,-0.0250767,-1.1394,0.113109,-0.373983,0.219468,-0.231727,0,0,3.3982,5
1777236478104,0.00341805,-1.16482,0.120402,-0.424947,0.234187,-0.256286,0,0,4.11564,5
1777236478118,0.0298952,-1.18737,0.127507,-0.492978,0.216963,-0.280086,0,0,3.4536,5
1777236478131,0.0302346,-1.22779,0.126919,-0.582583,0.191019,-0.280848,0,0,3.37307,5
1777236478145,0.0255427,-1.19967,0.123739,-0.664939,0.156981,-0.254549,0,0,3.4531,5
1777236478158,0.0323108,-1.2278,0.134296,-0.758683,0.13293,-0.24075,0,0,3.39677,5
1777236478173,0.0172113,-1.22467,0.129661,-0.860455,0.10996,-0.261083,0,0,3.46751,5
1777236478186,-0.0202845,-1.20961,0.110066,-0.941969,0.126468,-0.29248,0,0,3.37516,5
1777236478200,-0.0378474,-1.18652,0.0799587,-0.998193,0.159741,-0.314866,0,0,3.39384,5
1777236478214,-0.0351443,-1.18694,0.0265054,-1.04861,0.190179,-0.327146,0,0,4.64478,5
1777236478229,-0.0133336,-1.15967,-0.0472821,-1.07121,0.195785,-0.34738,0,0,4.11592,5
1777236478242,0.0215279,-1.13943,-0.092172,-1.04995,0.154732,-0.363262,0,0,3.43357,5
1777236478256,0.02712,-1.12807,-0.128637,-1.01995,0.113104,-0.339945,0,0,3.37034,5
1777236478269,0.00755707,-1.09276,-0.150131,-0.954942,0.117548,-0.291786,0,0,3.4419,5
1777236478284,0.0100358,-1.07481,-0.155634,-0.888953,0.149255,-0.269427,0,0,4.91239,5
1777236478298,0.0436837,-1.05997,-0.154332,-0.833886,0.151503,-0.287818,0,0,3.41057,5
1777236478312,0.0692624,-1.04045,-0.153266,-0.792118,0.122945,-0.315039,0,0,3.4514,5
1777236478325,0.0787305,-1.01501,-0.151729,-0.755213,0.0899351,-0.320319,0,0,3.4264,5
1777236478339,0.0866936,-0.982279,-0.146952,-0.714128,0.0596405,-0.309541,0,0,3.43288,5
1777236478353,0.0997843,-0.94025,-0.140617,-0.665145,0.0226267,-0.295202,0,0,4.14094,5
1777236478367,0.114785,-0.889442,-0.13383,-0.595369,-0.0268315,-0.278954,0,0,3.49757,5
1777236478380,0.125172,-0.837127,-0.122532,-0.504372,-0.0860746,-0.250858,0,0,3.39901,4
1777236478394,0.132162,-0.788455,-0.102107,-0.397829,-0.151474,-0.207636,0,0,3.46859,4
1777236478407,0.131991,-0.742884,-0.0734989,-0.283267,-0.214995,-0.151402,0,0,3.41101,4
1777236478421,0.127788,-0.702095,-0.0452829,-0.162888,-0.269328,-0.0917661,0,0,3.45631,4
1777236478435,0.122788,-0.665362,-0.0191442,-0.0401295,-0.315546,-0.0414718,0,0,3.48951,4
1777236478450,0.112431,-0.628612,0.000718942,0.0908463,-0.350869,-0.00616287,0,0,5.61044,4
1777236478464,0.0947197,-0.596479,0.0153266,0.234471,-0.367162,0.0224088,0,0,3.43477,5
1777236478478,0.0765759,-0.569675,0.0248887,0.389451,-0.365167,0.0487122,0,0,3.70688,5
1777236478492,0.0561581,-0.555732,0.0400111,0.555611,-0.342512,0.069881,0,0,3.49475,5
1777236478505,0.0383343,-0.558232,0.0621809,0.712882,-0.303403,0.090626,0,0,3.39985,5
1777236478519,0.0251434,-0.56835,0.0832953,0.857033,-0.252391,0.117786,0,0,3.47681,5
1777236478532,0.0137873,-0.583439,0.0975737,0.999436,-0.187807,0.143155,0,0,3.40596,5
1777236478546,0.0128713,-0.604101,0.107461,1.13864,-0.120488,0.163176,0,0,3.48196,5
1777236478559,0.0178025,-0.635327,0.114405,1.27635,-0.0622003,0.184047,0,0,3.40297,4
1777236478573,0.0240142,-0.675885,0.123008,1.4082,-0.0194036,0.218627,0,0,3.52883,4
1777236478587,0.0264154,-0.726767,0.13141,1.53077,0.0039194,0.262074,0,0,3.45171,4
1777236478600,0.0240927,-0.78748,0.137868,1.63872,0.0115232,0.305253,0,0,3.40581,5
1777236478614,0.0229447,-0.854959,0.142896,1.72884,-5.38521e-05,0.341197,0,0,3.47297,5
1777236478627,0.0193421,-0.927026,0.144045,1.7979,-0.0271059,0.372079,0,0,3.38447,5
1777236478641,0.0147665,-1.00388,0.144527,1.8424,-0.0648911,0.408233,0,0,3.48186,5
1777236478654,0.0134963,-1.07962,0.141149,1.8592,-0.107269,0.448388,0,0,3.38994,5
1777236478668,0.0240073,-1.14775,0.13397,1.84998,-0.158628,0.483924,0,0,3.44049,5
1777236478681,0.0371225,-1.21013,0.121818,1.81333,-0.222253,0.508944,0,0,3.47227,5
1777236478695,0.0447133,-1.25756,0.106505,1.75512,-0.294829,0.524604,0,0,3.44918,5
1777236478708,0.0346389,-1.29134,0.0866155,1.68074,-0.350017,0.535885,0,0,3.47075,5
1777236478722,0.028498,-1.31253,0.0637165,1.58997,-0.386821,0.532576,0,0,3.37386,5
1777236478736,0.0152199,-1.31767,0.0420657,1.48324,-0.403712,0.512566,0,0,3.47012,5
1777236478749,-0.015354,-1.31024,0.0254555,1.36176,-0.374938,0.494569,0,0,3.38577,5
1777236478763,-0.0333736,-1.29438,0.00659443,1.22986,-0.306965,0.476326,0,0,3.49336,5
1777236478776,-0.0391741,-1.27496,-0.00611366,1.09237,-0.229506,0.445463,0,0,3.76305,5
1777236478791,-0.0477814,-1.24246,-0.014123,0.954543,-0.141001,0.403178,0,0,4.17822,5
1777236478804,-0.052166,-1.2042,-0.00483036,0.824728,-0.0499562,0.353806,0,0,3.49923,5
1777236478818,-0.0515009,-1.16481,0.0137257,0.701764,0.0378482,0.304877,0,0,3.41016,5
1777236478832,-0.0440388,-1.12533,0.0400992,0.590516,0.110599,0.261698,0,0,3.50701,5
1777236478845,-0.0363697,-1.0863,0.0699143,0.488827,0.165881,0.225448,0,0,3.4191,5
1777236478860,-0.0241133,-1.05582,0.100498,0.396109,0.201643,0.194018,0,0,3.49266,5
1777236478873,-0.0176221,-1.02189,0.126214,0.31476,0.216777,0.169493,0,0,3.42596,5
1777236478888,-0.0162651,-0.996355,0.153625,0.240239,0.224655,0.154069,0,0,4.78496,5
1777236478902,-0.00604674,-0.973607,0.177231,0.171853,0.21262,0.137704,0,0,3.41881,0
1777236478916,-0.00344833,-0.958169,0.19586,0.105972,0.188353,0.120097,0,0,4.12746,0
1777236478930,0.00122054,-0.941772,0.211198,0.0450527,0.158501,0.103936,0,0,3.47484,0
1777236478943,0.0257674,-0.943525,0.21422,-0.0309675,0.114908,0.0739412,0,0,3.38497,0
1777236478957,0.0251708,-0.947493,0.216233,-0.0935798,0.0621818,0.0483606,0,0,3.4614,0
1777236478970,0.0346261,-0.940803,0.224189,-0.170897,0.00858665,0.0415982,0,0,3.41875,0
1777236478985,-0.0196417,-0.985698,0.463182,-0.238304,-0.00919306,0.0549706,0,0,3.52836,0
1777236478998,-0.0439488,-1.10231,0.532859,-0.440305,0.0358506,0.0520429,0,0,3.38508,0
1777236479013,0.0434294,-1.09439,0.401967,-0.625585,0.00881949,-0.00542227,0,0,4.768,0
1777236479027,0.00215703,-1.11371,0.396901,-0.681041,-0.00932981,-0.0131572,0,0,3.76772,0
1777236479042,-0.0416231,-1.11645,0.352482,-0.771949,-0.0100268,0.0228015,0,0,4.18414,0
1777236479055,-0.0505832,-1.07234,0.314205,-0.80941,-0.00177802,0.0186196,0,0,3.47473,0
1777236479069,-0.022974,-1.0483,0.29738,-0.809483,-0.0223214,-0.0230206,0,0,3.42457,0
1777236479084,-0.0072067,-1.04,0.281356,-0.82205,-0.0817945,-0.0377334,0,0,4.8132,0
1777236479097,-0.0292275,-1.00369,0.245053,-0.821403,-0.139193,-0.00585927,0,0,3.41512,0
1777236479111,-0.0617942,-0.983609,0.211346,-0.776958,-0.151834,0.0277254,0,0,3.49186,0
1777236479125,-0.0940909,-0.981104,0.2,-0.72417,-0.135103,0.016387,0,0,3.41383,0
1777236479138,-0.0921478,-0.974072,0.194814,-0.670192,-0.136581,-0.0246648,0,0,3.5651,0
1777236479152,-0.101238,-0.964137,0.180241,-0.618023,-0.131362,-0.0562538,0,0,3.42242,0
1777236479167,-0.100445,-0.9503,0.169713,-0.558556,-0.112115,-0.0582267,0,0,4.31218,0
1777236479182,-0.0768171,-0.962704,0.167713,-0.516074,-0.0949428,-0.0345146,0,0,3.57718,0
1777236479196,-0.0546303,-0.965978,0.162664,-0.48066,-0.0915744,0.00735739,0,0,4.11848,0
1777236479210,-0.0483322,-0.969882,0.159663,-0.444774,-0.0914011,0.0485994,0,0,3.49566,0
1777236479223,-0.0451804,-0.971889,0.156254,-0.409665,-0.0956205,0.0729422,0,0,3.3766,0
1777236479237,-0.0456289,-0.978199,0.153873,-0.384772,-0.109277,0.0802508,0,0,3.4764,0
1777236479250,-0.0587582,-0.977018,0.147526,-0.369422,-0.121802,0.08498,0,0,3.37629,0
1777236479264,-0.0742432,-0.972454,0.142692,-0.356312,-0.12514,0.0935139,0,0,3.40427,0
1777236479277,-0.0838593,-0.973253,0.137626,-0.347372,-0.12936,0.0958799,0,0,3.46392,0
1777236479292,-0.0954897,-0.970021,0.129045,-0.336271,-0.131095,0.0831442,0,0,4.07268,0
1777236479305,-0.0985741,-0.970208,0.123847,-0.32464,-0.126154,0.0654955,0,0,3.45618,5
1777236479319,-0.097681,-0.97127,0.118884,-0.313549,-0.117902,0.0560172,0,0,3.39533,5
1777236479332,-0.0935276,-0.974831,0.116151,-0.304955,-0.106038,0.0559049,0,0,3.46936,5
1777236479346,-0.0775034,-0.980239,0.114004,-0.299243,-0.103416,0.0515874,0,0,3.37562,4
1777236479359,-0.0676121,-0.984998,0.112686,-0.298301,-0.108266,0.0472135,0,0,3.39047,4
1777236479373,-0.0639787,-0.987039,0.107713,-0.297248,-0.112232,0.047398,0,0,3.4466,4
1777236479387,-0.0627543,-0.988426,0.101498,-0.293852,-0.110753,0.050796,0,0,3.4522,4
1777236479400,-0.0660988,-0.988696,0.0952974,-0.288286,-0.100501,0.0601926,0,0,3.47123,4
1777236479415,-0.0710616,-0.986808,0.0881766,-0.282096,-0.0836868,0.0715982,0,0,4.18274,4
1777236479428,-0.0761425,-0.98668,0.0800639,-0.275347,-0.0651334,0.0766753,0,0,3.45875,4
1777236479442,-0.0797496,-0.984961,0.0736958,-0.267573,-0.0481582,0.0771404,0,0,3.37812,4
1777236479455,-0.0804363,-0.983179,0.0659792,-0.260777,-0.0371421,0.0754541,0,0,3.44301,4
1777236479469,-0.0835097,-0.981342,0.0577352,-0.253586,-0.0310917,0.0724077,0,0,3.43018,4
1777236479483,-0.0865964,-0.979554,0.0511567,-0.247123,-0.0272838,0.0680624,0,0,3.45905,4
1777236479497,-0.089405,-0.979063,0.0435791,-0.240516,-0.0235253,0.0638688,0,0,3.42907,4
1777236479512,-0.0892376,-0.979699,0.0385764,-0.234082,-0.0200115,0.0600306,0,0,4.86383,4
1777236479526,-0.09054,-0.980926,0.0327531,-0.226976,-0.0156457,0.0588423,0,0,3.38494,4
1777236479540,-0.0908665,-0.983311,0.0271824,-0.219236,-0.00929765,0.058361,0,0,4.20786,4
1777236479554,-0.0909891,-0.985767,0.0218954,-0.212353,-0.00374041,0.0580998,0,0,3.44701,4
1777236479567,-0.0961143,-0.987546,0.0174015,-0.206032,0.00475831,0.0575768,0,0,3.38599,4
1777236479581,-0.0994381,-0.989799,0.0132425,-0.200548,0.0141688,0.0532224,0,0,3.45331,4
1777236479594,-0.103546,-0.988794,0.00844119,-0.195839,0.024759,0.0493774,0,0,3.44957,4
1777236479608,-0.0998749,-0.991204,0.00401519,-0.193326,0.0343221,0.0461606,0,0,3.49162,4
1777236479622,-0.100708,-0.995612,0.00152363,-0.193128,0.0432328,0.0475511,0,0,3.39847,4
1777236479637,-0.102655,-0.993649,-0.00131521,-0.193167,0.0539281,0.0489516,0,0,4.93509,4
1777236479654,-0.106404,-0.999344,-0.00551722,-0.19629,0.0683116,0.0447498,0,0,3.44398,4
1777236479669,-0.114935,-1.00644,-0.00797517,-0.198906,0.0875624,0.0423805,0,0,4.66876,4
1777236479682,-0.1115,-1.01389,-0.0112996,-0.205869,0.108516,0.0363858,0,0,3.38866,4
1777236479697,-0.106201,-1.01509,-0.0186256,-0.216825,0.12361,0.0328915,0,0,4.20205,4
1777236479710,-0.10337,-1.0205,-0.0229594,-0.224886,0.135579,0.0340126,0,0,3.43729,4
1777236479724,-0.0998823,-1.02169,-0.0291028,-0.234364,0.142092,0.030354,0,0,3.35981,4
1777236479739,-0.100522,-1.02691,-0.0338576,-0.250202,0.142366,0.0226742,0,0,4.85633,4
1777236479752,-0.107126,-1.0519,-0.0380823,-0.281937,0.138244,0.0139969,0,0,3.41651,4
1777236479766,-0.116205,-1.02299,-0.0512409,-0.283471,0.13042,0.0025674,0,0,3.40058,4
1777236479779,-0.118522,-1.03235,-0.0587407,-0.300883,0.129218,-0.0123007,0,0,3.43431,4
1777236479793,-0.125134,-1.03223,-0.0628071,-0.310214,0.128801,-0.030645,0,0,3.42557,4
1777236479807,-0.128366,-1.03696,-0.0667881,-0.326094,0.138937,-0.0460591,0,0,3.43896,4
1777236479821,-0.127987,-1.04593,-0.0688611,-0.341173,0.151264,-0.063637,0,0,4.13885,4
1777236479836,-0.12695,-1.05232,-0.0712722,-0.358115,0.171041,-0.0810334,0,0,3.41871,4
1777236479849,-0.128044,-1.06232,-0.0731725,-0.375694,0.198616,-0.0968281,0,0,3.39442,4
1777236479863,-0.1233,-1.08136,-0.0729565,-0.397442,0.233719,-0.114023,0,0,3.43866,4
1777236479876,-0.107084,-1.11896,-0.0652086,-0.436278,0.257209,-0.132259,0,0,3.3777,4
1777236479890,-0.114239,-1.13095,-0.0625032,-0.475715,0.283819,-0.144707,0,0,3.78033,4
1777236479904,-0.106005,-1.15417,-0.055039,-0.518592,0.320065,-0.179889,0,0,3.37894,4
1777236479918,-0.0953822,-1.17065,-0.0483332,-0.567567,0.359673,-0.22707,0,0,4.33898,4
1777236479932,-0.0905988,-1.18439,-0.043444,-0.621293,0.41203,-0.250905,0,0,3.36721,4
1777236479945,-0.0760221,-1.20883,-0.0368184,-0.689742,0.458766,-0.250754,0,0,3.37042,4
1777236479958,-0.0819292,-1.22983,-0.0301007,-0.776566,0.500549,-0.229216,0,0,3.38649,4
1777236479972,-0.0970955,-1.24397,-0.0238822,-0.876133,0.536819,-0.201039,0,0,3.31716,4
1777236479985,-0.124,-1.24451,-0.0147512,-0.974449,0.574614,-0.18598,0,0,3.38045,4
1777236479999,-0.152025,-1.24366,-0.00663046,-1.07415,0.617967,-0.185365,0,0,3.39671,4
1777236480012,-0.169118,-1.24555,0.0097821,-1.18017,0.65711,-0.195769,0,0,3.48336,4
1777236480026,-0.184891,-1.24125,0.0201391,-1.29084,0.681637,-0.223688,0,0,3.34138,4
1777236480039,-0.194854,-1.2128,0.0291314,-1.38552,0.696097,-0.264892,0,0,3.38029,4
1777236480053,-0.195172,-1.18064,0.00524979,-1.46603,0.700654,-0.322423,0,0,3.42121,4
1777236480066,-0.174343,-1.14362,-0.0630665,-1.52084,0.686461,-0.401116,0,0,3.37451,4
1777236480080,-0.138983,-1.12817,-0.169158,-1.53863,0.649073,-0.504619,0,0,3.4321,4
1777236480093,-0.108219,-1.10729,-0.236979,-1.50734,0.602968,-0.592056,0,0,3.43179,4
1777236480107,-0.099749,-1.07951,-0.267296,-1.44503,0.569318,-0.608253,0,0,3.4322,4
1777236480121,-0.0949692,-1.04989,-0.26936,-1.37561,0.551073,-0.542653,0,0,3.36759,4
1777236480134,-0.0858005,-1.01816,-0.26298,-1.29481,0.541594,-0.442631,0,0,3.38912,4
1777236480148,-0.0770679,-0.982725,-0.258374,-1.19658,0.546354,-0.363872,0,0,3.4381,4
1777236480161,-0.0633091,-0.953184,-0.258011,-1.08111,0.558934,-0.335122,0,0,3.52221,4
1777236480175,-0.0420658,-0.938635,-0.254317,-0.964675,0.564035,-0.3475,0,0,3.44923,4
1777236480188,-0.0139704,-0.924587,-0.252687,-0.856173,0.552217,-0.368222,0,0,3.3971,4
1777236480202,0.0110984,-0.900294,-0.254842,-0.754279,0.525156,-0.366928,0,0,3.42268,4
1777236480215,0.0313838,-0.86984,-0.258418,-0.646937,0.486052,-0.334437,0,0,3.42871,4
1777236480229,0.0494144,-0.838027,-0.263132,-0.537448,0.436265,-0.282158,0,0,3.45316,4
1777236480243,0.0674497,-0.801301,-0.269219,-0.422479,0.380704,-0.222511,0,0,3.47462,4
1777236480256,0.0861647,-0.759635,-0.276917,-0.294877,0.322572,-0.157423,0,0,3.47977,4
1777236480270,0.103636,-0.715127,-0.287172,-0.153568,0.264598,-0.0846849,0,0,3.50605,4
1777236480283,0.122183,-0.673781,-0.296043,0.00402388,0.204748,-0.00380232,0,0,3.41803,4
1777236480297,0.136999,-0.638882,-0.300914,0.173086,0.145089,0.0829128,0,0,3.64234,4
1777236480311,0.143718,-0.610768,-0.297872,0.351605,0.08662,0.172453,0,0,3.39071,4
1777236480324,0.142667,-0.591153,-0.291982,0.529607,0.0361146,0.253113,0,0,3.48751,4
1777236480338,0.132329,-0.579077,-0.28452,0.706059,0.0042431,0.314426,0,0,3.40253,4
1777236480351,0.125089,-0.575799,-0.276786,0.87407,-0.00295263,0.351233,0,0,3.4956,4
1777236480365,0.127426,-0.580545,-0.268237,1.02832,0.00937153,0.372554,0,0,3.41901,4
1777236480379,0.150109,-0.59866,-0.25274,1.15652,0.0175424,0.396238,0,0,3.52033,4
1777236480392,0.166296,-0.613745,-0.243243,1.26813,0.0210818,0.432946,0,0,3.45923,4
1777236480406,0.159503,-0.617191,-0.232455,1.38947,0.0541839,0.474033,0,0,3.4524,4
1777236480419,0.162066,-0.630188,-0.220483,1.50487,0.103499,0.490816,0,0,3.46062,4
1777236480433,0.172045,-0.651992,-0.20671,1.61026,0.149227,0.488479,0,0,3.39983,5
1777236480446,0.184666,-0.67562,-0.198677,1.70299,0.182994,0.49685,0,0,3.49992,5
1777236480460,0.205822,-0.709003,-0.191381,1.78373,0.193335,0.51712,0,0,3.4144,5
1777236480473,0.22625,-0.746738,-0.183696,1.85237,0.178479,0.540565,0,0,3.45842,5
1777236480487,0.236296,-0.787221,-0.17802,1.91278,0.14559,0.564771,0,0,3.49116,5
1777236480501,0.240515,-0.82948,-0.172352,1.96827,0.0951543,0.581864,0,0,3.46281,5
1777236480514,0.239481,-0.87669,-0.165115,2.01761,0.0240281,0.590141,0,0,3.46222,5
1777236480528,0.230379,-0.92614,-0.156869,2.05603,-0.0551165,0.597509,0,0,3.39957,5
1777236480541,0.22045,-0.98561,-0.14453,2.07842,-0.144785,0.611372,0,0,3.50264,5
1777236480555,0.206842,-1.0467,-0.133431,2.0815,-0.243543,0.63309,0,0,3.40542,5
1777236480568,0.191618,-1.10775,-0.123216,2.06892,-0.342227,0.653771,0,0,3.43988,5
1777236480582,0.179494,-1.16639,-0.113542,2.04167,-0.435176,0.658511,0,0,3.49875,5
1777236480596,0.166361,-1.21637,-0.108778,2.00194,-0.516286,0.647589,0,0,3.58838,5
1777236480609,0.142637,-1.26137,-0.109983,1.9525,-0.580442,0.630395,0,0,3.4946,5
1777236480623,0.106404,-1.29941,-0.117946,1.88953,-0.620101,0.615151,0,0,3.40101,5
1777236480637,0.0600185,-1.3158,-0.126693,1.81566,-0.632654,0.605794,0,0,3.51862,5
1777236480650,0.00269416,-1.33429,-0.140625,1.72536,-0.605761,0.597042,0,0,3.41968,5
1777236480664,-0.0465615,-1.34039,-0.1524,1.61995,-0.538732,0.575881,0,0,3.5092,5
1777236480677,-0.0840183,-1.34096,-0.164972,1.49665,-0.431119,0.535601,0,0,3.41649,5
1777236480691,-0.0954025,-1.33165,-0.18142,1.36181,-0.297243,0.48295,0,0,3.47534,5
1777236480706,-0.0797746,-1.31709,-0.195283,1.22157,-0.162855,0.430295,0,0,3.47971,5
1777236480719,-0.0640506,-1.29754,-0.197957,1.082,-0.0409672,0.381989,0,0,3.54733,5
1777236480733,-0.0573154,-1.26418,-0.190274,0.942632,0.0734688,0.334482,0,0,3.45934,5
1777236480747,-0.0439719,-1.24102,-0.186659,0.800298,0.166568,0.27619,0,0,3.36503,5
1777236480760,-0.0284295,-1.21199,-0.17107,0.676928,0.227547,0.209968,0,0,3.46188,5
1777236480774,-0.0200184,-1.18933,-0.138361,0.548687,0.284431,0.147429,0,0,3.3736,5
1777236480787,-0.000715628,-1.16638,-0.107292,0.415572,0.327624,0.095758,0,0,3.41818,5
1777236480801,0.0255663,-1.14661,-0.0769394,0.286717,0.343046,0.0511724,0,0,3.70285,5
1777236480814,0.0470337,-1.09647,-0.0308973,0.178066,0.319383,0.0190304,0,0,3.47196,5
1777236480828,0.0338225,-1.07793,0.0269327,0.0818361,0.283951,0.0190393,0,0,3.35108,5
1777236480841,0.00694199,-1.04653,0.112981,-0.0117396,0.23655,0.0206753,0,0,3.35405,5
1777236480855,-0.151259,-1.0624,0.430103,-0.125585,0.246679,0.0621531,0,0,3.47368,5
1777236480868,-0.156485,-1.09491,0.430241,-0.332376,0.322856,0.037265,0,0,3.38105,5
1777236480882,-0.0700094,-1.18062,0.321043,-0.528583,0.309072,-0.0498873,0,0,3.47259,1
1777236480895,-0.0670574,-1.18372,0.340153,-0.646059,0.255703,-0.07413,0,0,3.3882,1
1777236480909,-0.112526,-1.17054,0.285195,-0.75281,0.221534,-0.033658,0,0,3.54594,1
1777236480923,-0.129066,-1.11734,0.260901,-0.789186,0.238008,-0.0215089,0,0,3.47525,1
1777236480936,-0.0556614,-1.11584,0.251872,-0.800505,0.178556,-0.0596289,0,0,3.46749,1
1777236480950,-0.06171,-1.08037,0.223346,-0.813767,0.0970922,-0.0241818,0,0,3.48266,1
1777236480963,-0.0927952,-1.04163,0.198001,-0.790964,0.0489763,0.0762607,0,0,3.39577,1
1777236480977,-0.109522,-1.02521,0.190086,-0.770727,-0.0107258,0.141808,0,0,3.46788,1
1777236480990,-0.120601,-1.01095,0.17263,-0.737565,-0.0712028,0.136061,0,0,3.36981,1
1777236481004,-0.13984,-0.995415,0.177356,-0.699217,-0.121371,0.10556,0,0,3.48542,1
1777236481018,-0.167611,-0.98418,0.166178,-0.664755,-0.145952,0.0901929,0,0,3.47721,1
1777236481031,-0.17628,-0.977192,0.172752,-0.629001,-0.153382,0.0827816,0,0,3.56827,1
1777236481045,-0.137384,-1.00111,0.173537,-0.642119,-0.213099,0.0663638,0,0,3.47244,1
1777236481058,-0.19173,-0.953381,0.149672,-0.59632,-0.188485,0.0855576,0,0,3.37499,1
1777236481072,-0.198444,-0.95457,0.14404,-0.540687,-0.102924,0.119886,0,0,3.47108,1
1777236481085,-0.177602,-0.96075,0.145907,-0.478181,-0.0428689,0.138035,0,0,3.37355,1
1777236481099,-0.154971,-0.975348,0.150262,-0.435634,-0.0284722,0.0933749,0,0,3.50134,1
1777236481113,-0.161541,-0.972227,0.148574,-0.415128,-0.0217166,0.0487157,0,0,3.45792,1
1777236481126,-0.162388,-0.975018,0.14521,-0.398421,-0.0073211,0.0473776,0,0,3.48173,1
1777236481140,-0.143242,-0.981977,0.142675,-0.393544,-0.0221187,0.0439088,0,0,3.44092,1
1777236481153,-0.145181,-0.981521,0.134555,-0.392241,-0.0435213,0.0258019,0,0,3.38299,1
1777236481167,-0.152012,-0.974884,0.125189,-0.382363,-0.0467003,0.0235372,0,0,3.45416,1
1777236481180,-0.146716,-0.976263,0.116092,-0.372364,-0.0534844,0.02894,0,0,3.36775,1
1777236481194,-0.155597,-0.972506,0.107582,-0.354285,-0.0530945,0.0248546,0,0,3.44692,1
1777236481207,-0.164369,-0.965159,0.0989067,-0.326917,-0.0259502,0.0255722,0,0,3.52281,1
1777236481221,-0.15931,-0.965825,0.0951065,-0.302253,-0.00479315,0.0293127,0,0,3.4192,1
1777236481234,-0.158939,-0.964699,0.0912281,-0.281598,0.00380469,0.0230278,0,0,3.33816,1
1777236481248,-0.16296,-0.964364,0.0858982,-0.266357,0.0108805,0.00922799,0,0,3.4809,1
1777236481262,-0.166966,-0.964105,0.0832975,-0.254445,0.0199704,0.00154495,0,0,3.39105,4
1777236481275,-0.166519,-0.964653,0.0787231,-0.246757,0.0232578,-0.00623163,0,0,3.46718,4
1777236481289,-0.167353,-0.96545,0.0734325,-0.23969,0.0246232,-0.018361,0,0,3.43125,4
1777236481302,-0.164989,-0.966818,0.0670053,-0.235085,0.022644,-0.0315095,0,0,3.46071,4
1777236481316,-0.162647,-0.966526,0.0598808,-0.230344,0.0203204,-0.0399856,0,0,3.4614,4
1777236481329,-0.159649,-0.967237,0.0548212,-0.225656,0.0207377,-0.0424944,0,0,3.46362,4
1777236481343,-0.159651,-0.969785,0.0507178,-0.220604,0.0241262,-0.0417987,0,0,3.43512,4
1777236481357,-0.16152,-0.970742,0.0459326,-0.214574,0.0333876,-0.0388018,0,0,3.45808,4
1777236481370,-0.157801,-0.973247,0.0407163,-0.208405,0.0404312,-0.0422076,0,0,3.38434,4
1777236481384,-0.163709,-0.975903,0.0359622,-0.205694,0.0563262,-0.0321068,0,0,3.45025,4
1777236481397,-0.156485,-0.979047,0.0324136,-0.202582,0.0672184,-0.028804,0,0,3.37379,4
1777236481411,-0.151693,-0.982258,0.0303622,-0.199951,0.0703792,-0.0391687,0,0,3.49705,4
1777236481424,-0.152229,-0.989486,0.0284202,-0.202211,0.0750616,-0.0383531,0,0,3.37799,4
1777236481438,-0.156941,-0.99515,0.0238708,-0.204247,0.0873986,-0.0294291,0,0,3.41627,4
1777236481451,-0.159231,-0.99743,0.0206609,-0.209315,0.103786,-0.0229339,0,0,3.4129,4
1777236481465,-0.159996,-1.00034,0.0172628,-0.214455,0.120216,-0.0221905,0,0,3.36359,4
1777236481478,-0.16362,-0.997595,0.0127681,-0.217847,0.138463,-0.0215455,0,0,3.43131,4
1777236481492,-0.161941,-1.001,0.0061312,-0.224326,0.154686,-0.0192905,0,0,3.35223,4
1777236481506,-0.162092,-0.997458,0.000368856,-0.229381,0.16846,-0.0178566,0,0,3.42807,4
1777236481519,-0.158781,-0.999531,-0.00572799,-0.237219,0.177609,-0.0209237,0,0,3.4147,4
1777236481533,-0.15256,-1.00345,-0.0111501,-0.24622,0.177855,-0.0215077,0,0,3.4251,4
1777236481546,-0.192263,-0.979288,-0.0148283,-0.243733,0.175325,0.0117461,0,0,3.4261,4
1777236481560,-0.187807,-0.986328,-0.019952,-0.253899,0.192542,-0.00322681,0,0,3.4072,4
1777236481573,-0.179724,-0.997974,-0.0239823,-0.26657,0.193797,-0.0409587,0,0,3.43103,4
1777236481587,-0.171129,-1.00718,-0.0305379,-0.278109,0.201841,-0.0567277,0,0,3.35751,4
1777236481600,-0.163892,-1.01753,-0.0340419,-0.288106,0.206852,-0.0658227,0,0,3.43886,4
1777236481614,-0.159733,-1.02835,-0.0361512,-0.305177,0.212746,-0.0823841,0,0,3.43555,4
1777236481627,-0.155477,-1.03928,-0.0368244,-0.327724,0.217581,-0.102852,0,0,3.44455,4
1777236481641,-0.150818,-1.05511,-0.0381166,-0.356526,0.220783,-0.123318,0,0,3.37379,4
1777236481655,-0.146965,-1.0715,-0.0390777,-0.388402,0.224966,-0.143083,0,0,3.47468,4
1777236481668,-0.133293,-1.0864,-0.0383358,-0.421671,0.231466,-0.165483,0,0,3.41764,4
1777236481682,-0.127761,-1.11786,-0.0347318,-0.469141,0.22813,-0.184951,0,0,3.3422,4
1777236481695,-0.12981,-1.12971,-0.0351738,-0.514195,0.232017,-0.197675,0,0,3.42581,4
1777236481709,-0.119653,-1.14981,-0.032823,-0.568178,0.23892,-0.216689,0,0,3.35657,4
1777236481722,-0.106138,-1.16272,-0.0309749,-0.627973,0.235894,-0.235116,0,0,3.44212,4
1777236481736,-0.0998408,-1.17528,-0.0275688,-0.697547,0.231158,-0.23953,0,0,3.35538,4
1777236481749,-0.100518,-1.17699,-0.0276035,-0.768388,0.22725,-0.236377,0,0,3.40251,4
1777236481763,-0.113749,-1.17876,-0.0251886,-0.841711,0.236106,-0.237121,0,0,3.40825,4
1777236481776,-0.124497,-1.16901,-0.0220624,-0.908843,0.260202,-0.250425,0,0,3.39218,4
1777236481790,-0.13325,-1.16144,-0.022308,-0.969341,0.291454,-0.273726,0,0,3.42162,4
1777236481803,-0.143712,-1.15442,-0.0267356,-1.02544,0.324392,-0.301489,0,0,3.36312,4
1777236481817,-0.154694,-1.14198,-0.0363063,-1.07798,0.359703,-0.327895,0,0,3.47944,4
1777236481830,-0.170824,-1.12318,-0.0446802,-1.12674,0.401076,-0.345905,0,0,3.37053,4
1777236481844,-0.185826,-1.1046,-0.0496021,-1.17377,0.448047,-0.350709,0,0,3.41231,4
1777236481858,-0.198722,-1.08827,-0.0468943,-1.22994,0.493054,-0.338963,0,0,3.41323,4
1777236481871,-0.218283,-1.06725,-0.0411974,-1.28802,0.54126,-0.31766,0,0,3.40623,4
1777236481885,-0.216736,-1.06057,-0.0379563,-1.35517,0.589511,-0.301638,0,0,3.42977,4
1777236481898,-0.216197,-1.05935,-0.0242683,-1.4192,0.639261,-0.301861,0,0,3.3552,4
1777236481912,-0.210453,-1.08193,-0.0479336,-1.4814,0.688532,-0.334948,0,0,3.45038,4
1777236481925,-0.16448,-1.11485,-0.126614,-1.61077,0.695291,-0.40612,0,0,3.41566,4
1777236481939,-0.136982,-1.1121,-0.222562,-1.66649,0.684256,-0.501716,0,0,3.47684,4
1777236481952,-0.123275,-1.10653,-0.308119,-1.71313,0.680901,-0.580552,0,0,3.38294,4
1777236481966,-0.102655,-1.33101,-0.434454,-1.69587,0.670153,-0.462674,0,0,3.47801,4
1777236481979,-0.0633262,-1.34054,-0.471531,-1.67357,0.640534,-0.357597,0,0,3.41999,4
1777236481993,-0.0397643,-1.27556,-0.509095,-1.58771,0.596641,-0.335784,0,0,3.34753,4
1777236482007,-0.0216879,-1.21551,-0.531639,-1.4637,0.557112,-0.380901,0,0,3.4282,4
1777236482020,0.00513775,-1.16649,-0.548446,-1.30602,0.522466,-0.440662,0,0,3.41781,4
1777236482034,0.0413936,-1.13309,-0.549558,-1.13191,0.475414,-0.494572,0,0,3.44662,4
1777236482047,0.0804643,-1.11215,-0.534405,-0.967269,0.405936,-0.535044,0,0,3.3594,4
1777236482061,0.1177,-1.07327,-0.517453,-0.812915,0.307263,-0.54288,0,0,3.4234,4
1777236482074,0.148163,-1.02639,-0.49643,-0.666831,0.183139,-0.502044,0,0,3.43894,4
1777236482088,0.159106,-0.975881,-0.47557,-0.53381,0.0557835,-0.427658,0,0,3.38579,4
1777236482101,0.151298,-0.918512,-0.453728,-0.411215,-0.0440227,-0.352323,0,0,3.46127,4
1777236482115,0.135511,-0.851138,-0.433831,-0.288608,-0.109281,-0.302063,0,0,3.3744,4
1777236482128,0.12589,-0.772181,-0.41588,-0.154782,-0.154414,-0.276032,0,0,3.47608,4
1777236482142,0.124743,-0.685515,-0.402418,0.00269468,-0.188614,-0.257737,0,0,3.39892,4
1777236482156,0.125646,-0.60464,-0.391663,0.18638,-0.211835,-0.228445,0,0,3.46116,4
1777236482169,0.130997,-0.547709,-0.377467,0.380622,-0.229239,-0.186261,0,0,3.46783,4
1777236482183,0.135805,-0.502173,-0.358032,0.579145,-0.245282,-0.138882,0,0,3.52849,4
1777236482196,0.13274,-0.460965,-0.345598,0.779911,-0.251196,-0.0907475,0,0,3.48786,4
1777236482210,0.124836,-0.426345,-0.329494,0.986592,-0.243604,-0.0378239,0,0,3.38323,4
1777236482224,0.119999,-0.411343,-0.312617,1.18813,-0.230701,0.0184801,0,0,3.48779,4
1777236482237,0.122042,-0.412409,-0.293781,1.37503,-0.225024,0.0750056,0,0,3.38412,4
1777236482251,0.118217,-0.421667,-0.285695,1.54534,-0.224098,0.12837,0,0,3.49744,4
1777236482264,0.094918,-0.428225,-0.285978,1.70466,-0.200285,0.180295,0,0,3.42351,4
1777236482278,0.0691877,-0.446531,-0.288315,1.83744,-0.145645,0.23176,0,0,3.45336,4
1777236482291,0.0659901,-0.499292,-0.282462,1.94808,-0.0956072,0.285742,0,0,3.45722,4
1777236482305,0.0601897,-0.557551,-0.28642,2.04028,-0.0535531,0.343309,0,0,3.40046,4
1777236482319,0.0391645,-0.614858,-0.297642,2.11712,0.00904926,0.40174,0,0,3.49075,4
1777236482332,0.037832,-0.677159,-0.302914,2.18115,0.078139,0.447544,0,0,3.47314,4
1777236482346,0.0551415,-0.732538,-0.313474,2.23451,0.130408,0.48434,0,0,3.48392,4
1777236482359,0.0837465,-0.791042,-0.323094,2.27897,0.149628,0.525347,0,0,3.39494,5
1777236482373,0.116239,-0.853902,-0.327714,2.31511,0.133723,0.576631,0,0,3.51742,5
1777236482387,0.145962,-0.91517,-0.331597,2.32702,0.0839804,0.632982,0,0,3.40692,5
1777236482400,0.173312,-0.978852,-0.328726,2.32059,0.00116685,0.688859,0,0,3.47514,5
1777236482414,0.189208,-1.03884,-0.32099,2.29953,-0.104562,0.740868,0,0,3.47633,5
1777236482427,0.189562,-1.10045,-0.305973,2.26921,-0.219705,0.787912,0,0,3.45999,5
1777236482441,0.181505,-1.1576,-0.284603,2.23097,-0.330823,0.82013,0,0,3.4812,5
1777236482455,0.176247,-1.21552,-0.271196,2.18202,-0.430826,0.830694,0,0,3.39644,5
1777236482468,0.167853,-1.27643,-0.256049,2.1217,-0.516057,0.823288,0,0,3.4969,5
1777236482482,0.169187,-1.32162,-0.249461,2.04707,-0.602732,0.796773,0,0,3.40633,5
1777236482495,0.143354,-1.36913,-0.244449,1.94906,-0.672989,0.770492,0,0,3.43849,5
1777236482509,0.0939971,-1.39358,-0.243604,1.84767,-0.704488,0.729634,0,0,3.4766,5
1777236482522,0.0314553,-1.40429,-0.247696,1.73,-0.686972,0.671654,0,0,3.46375,5
1777236482536,-0.0251614,-1.40313,-0.254273,1.60311,-0.619436,0.603477,0,0,3.48046,5
1777236482550,-0.0637009,-1.39563,-0.263136,1.45595,-0.510382,0.532325,0,0,3.3759,5
1777236482563,-0.0680788,-1.3876,-0.270413,1.29297,-0.392469,0.464253,0,0,3.41512,5
1777236482577,-0.0562124,-1.36455,-0.275477,1.12175,-0.288037,0.411254,0,0,3.33645,5
1777236482590,-0.04636,-1.34067,-0.273664,0.952095,-0.202346,0.366885,0,0,3.3966,5
1777236482603,-0.0459131,-1.30562,-0.259221,0.779863,-0.137184,0.321005,0,0,3.35049,5
1777236482617,-0.0597771,-1.27774,-0.23584,0.609084,-0.082221,0.279221,0,0,3.37388,5
1777236482630,-0.0740661,-1.21173,-0.162264,0.476578,-0.037347,0.237761,0,0,3.46558,5
1777236482644,-0.1014,-1.17856,-0.0290211,0.366563,0.00104037,0.20031,0,0,3.35572,5
1777236482657,-0.159008,-1.16072,0.305462,0.232187,0.0822156,0.185589,0,0,3.39532,5
1777236482671,-0.0991275,-1.16123,0.306614,0.0363389,0.120574,0.149568,0,0,3.35877,5
1777236482684,-0.0484887,-1.19117,0.218951,-0.106448,0.111738,0.128075,0,0,3.39042,5
1777236482698,-0.0623672,-1.193,0.242313,-0.218388,0.106003,0.15435,0,0,3.38855,5
1777236482712,-0.106781,-1.14813,0.252237,-0.325311,0.130995,0.193104,0,0,3.45788,5
1777236482725,-0.108925,-1.11465,0.244672,-0.388739,0.171223,0.167027,0,0,3.5424,5
1777236482739,-0.0863997,-1.09748,0.247915,-0.425387,0.170307,0.118845,0,0,3.40912,5
1777236482752,-0.0860492,-1.07772,0.255718,-0.466474,0.132597,0.123872,0,0,3.41407,1
1777236482766,-0.103986,-1.04869,0.258085,-0.501374,0.0996068,0.166459,0,0,3.39399,1
1777236482779,-0.128793,-1.01783,0.266639,-0.512367,0.0828275,0.19514,0,0,3.41451,1
1777236482793,-0.142995,-1.00077,0.26879,-0.52944,0.0697481,0.175314,0,0,3.3967,1
1777236482807,-0.153589,-0.983299,0.271622,-0.544546,0.056355,0.140497,0,0,3.4282,1
1777236482820,-0.16105,-0.971055,0.278682,-0.562962,0.0466063,0.127577,0,0,3.39134,1
1777236482834,-0.166208,-0.96332,0.273294,-0.585102,0.0394238,0.130258,0,0,3.46764,1
1777236482847,-0.174451,-0.954287,0.26527,-0.595307,0.0289728,0.126322,0,0,3.4474,1
1777236482861,-0.17942,-0.950338,0.24656,-0.596013,0.0051745,0.110154,0,0,3.3837,1
1777236482874,-0.182157,-0.946716,0.235722,-0.58636,-0.0278889,0.0916677,0,0,3.43884,1
1777236482888,-0.184052,-0.945244,0.227405,-0.576203,-0.0610143,0.0785908,0,0,3.39623,1
1777236482901,-0.184538,-0.944996,0.217739,-0.566454,-0.0877664,0.0688384,0,0,3.43353,1
1777236482915,-0.187727,-0.941177,0.204907,-0.550213,-0.0966247,0.0562203,0,0,3.3971,1
1777236482928,-0.179236,-0.944843,0.196114,-0.531246,-0.0980524,0.0424609,0,0,3.59281,1
1777236482942,-0.156551,-0.956261,0.188835,-0.530975,-0.11596,0.0436665,0,0,3.45708,1
1777236482956,-0.174881,-0.942046,0.17682,-0.50496,-0.109305,0.063259,0,0,3.4051,1
1777236482969,-0.186935,-0.937812,0.169702,-0.470991,-0.0737591,0.0812146,0,0,3.44544,1
1777236482983,-0.177519,-0.941213,0.167607,-0.439324,-0.0575728,0.0637984,0,0,3.39168,1
1777236482996,-0.179188,-0.942397,0.16077,-0.418381,-0.0535117,0.0311552,0,0,3.42099,1
1777236483010,-0.184369,-0.943939,0.154609,-0.39701,-0.0395422,0.0172349,0,0,3.39373,1
1777236483023,-0.174616,-0.948785,0.148841,-0.383233,-0.0301147,0.0201767,0,0,3.41614,1
1777236483037,-0.164828,-0.954794,0.142804,-0.373445,-0.0365968,0.019562,0,0,3.46821,1
1777236483050,-0.163601,-0.95718,0.136983,-0.365848,-0.0483091,0.00971132,0,0,3.38181,1
1777236483064,-0.164016,-0.956838,0.128423,-0.356489,-0.0565044,0.00122254,0,0,3.41429,1
1777236483077,-0.168011,-0.956542,0.12112,-0.346667,-0.060573,-0.00155119,0,0,3.39866,1
1777236483091,-0.173604,-0.954709,0.112784,-0.333775,-0.0575513,-0.00649622,0,0,3.40573,1
1777236483104,-0.174405,-0.955851,0.105804,-0.320283,-0.0512037,-0.0166476,0,0,3.38105,1
1777236483118,-0.17079,-0.958001,0.102382,-0.307895,-0.0440183,-0.0233005,0,0,3.42808,4
1777236483132,-0.16807,-0.959772,0.0953889,-0.296948,-0.037827,-0.025015,0,0,3.52242,4
1777236483145,-0.165676,-0.959314,0.08861,-0.284938,-0.0310899,-0.0268001,0,0,3.4264,4
1777236483159,-0.162761,-0.959785,0.08192,-0.273059,-0.0254375,-0.0292545,0,0,3.40366,4
1777236483172,-0.159265,-0.959841,0.0742135,-0.261887,-0.0209944,-0.0283482,0,0,3.38086,4
1777236483186,-0.15861,-0.959406,0.0663965,-0.250937,-0.0171645,-0.0254047,0,0,3.41034,4
1777236483199,-0.156852,-0.95935,0.0609608,-0.238414,-0.0120264,-0.0255344,0,0,3.37433,4
1777236483213,-0.157062,-0.960525,0.0554693,-0.225192,-0.00712125,-0.0249937,0,0,3.41831,4
1777236483226,-0.156344,-0.962123,0.0512483,-0.213449,-0.00239748,-0.0210698,0,0,3.37358,4
1777236483240,-0.155237,-0.964927,0.0471975,-0.204197,0.000355792,-0.0183597,0,0,3.48764,4
1777236483253,-0.155564,-0.96675,0.0439379,-0.196882,0.00156876,-0.0178952,0,0,3.36484,4
1777236483267,-0.154432,-0.96904,0.0400139,-0.190264,0.00217244,-0.020218,0,0,3.35288,4
1777236483280,-0.154929,-0.969066,0.0355454,-0.183045,0.00369332,-0.0228661,0,0,3.39651,4
1777236483294,-0.154395,-0.968832,0.0301215,-0.174102,0.00845944,-0.0249966,0,0,3.41279,4
1777236483307,-0.153707,-0.970333,0.025927,-0.164195,0.0172913,-0.0258432,0,0,3.49247,4
1777236483321,-0.153784,-0.9708,0.0217062,-0.153992,0.0293203,-0.0226938,0,0,3.40527,4
1777236483335,-0.151568,-0.972364,0.0190068,-0.143288,0.0428942,-0.0197003,0,0,3.61492,4
1777236483348,-0.144753,-0.976617,0.0170812,-0.134051,0.0534678,-0.0163533,0,0,3.43158,4
1777236483362,-0.142311,-0.97973,0.0162781,-0.127981,0.0588949,-0.010498,0,0,3.48983,4
1777236483376,-0.142024,-0.982079,0.0153877,-0.125111,0.0591936,-0.00622922,0,0,3.44762,4
1777236483389,-0.141229,-0.983958,0.014293,-0.125583,0.0536283,-0.00356252,0,0,3.48283,4
1777236483403,-0.141857,-0.987809,0.012313,-0.128584,0.0455935,-0.00448276,0,0,3.37083,4
1777236483416,-0.142692,-0.988,0.00937146,-0.132306,0.0387961,-0.00967711,0,0,3.39933,4
1777236483430,-0.144286,-0.989356,0.00775048,-0.136374,0.0349128,-0.0125808,0,0,3.39962,4
1777236483443,-0.148597,-0.990148,0.00354419,-0.139676,0.0353535,-0.0121888,0,0,3.40994,4
1777236483457,-0.153208,-0.997559,0.000792977,-0.142669,0.0406699,-0.015679,0,0,3.34158,4
1777236483470,-0.156183,-1.00412,-0.00143484,-0.148929,0.0480774,-0.0248979,0,0,3.41088,4
1777236483484,-0.160567,-1.01004,-0.00269348,-0.155532,0.0578253,-0.0349722,0,0,3.3466,4
1777236483497,-0.163473,-1.01754,-0.00468707,-0.167307,0.0741801,-0.0466117,0,0,3.41064,4
1777236483511,-0.163357,-1.03157,-0.00503458,-0.184118,0.0940305,-0.0581687,0,0,3.33495,4
