timestamp,ax,ay,az,gx,gy,gz,roll_k,pitch_k,delay_ms,classe_prevista
1774533390566,0.0175606,0.969002,-0.377796,-1.47324,-0.671736,1.374,0,0,3.307,-1
1774533390579,0.0214805,0.982408,-0.380369,-0.595446,-0.793889,0.923678,0,0,3.32326,-1
1774533390593,0.0292891,0.960227,-0.38403,-0.877854,-1.00763,0.496196,0,0,3.28485,-1
1774533390606,0.0168581,0.959717,-0.384033,-0.824429,-1.00763,0.0305483,0,0,3.27459,-1
1774533390620,0.0241626,0.974107,-0.378424,-0.946561,-0.969467,-0.221366,0,0,3.38672,-1
1774533390633,0.0129507,0.965585,-0.38232,-0.770998,-0.992366,-0.396941,0,0,3.26457,-1
1774533390647,0.0165979,0.966308,-0.378666,-0.793892,-1.3435,-0.213746,0,0,3.26098,-1
1774533390660,0.0158699,0.979235,-0.377199,-0.694659,-0.984744,0.137394,0,0,3.26176,-1
1774533390673,0.00830834,0.964614,-0.3811,-0.580156,-0.885499,0.69464,0,0,3.22826,-1
1774533390687,0.0146421,0.982892,-0.375494,-0.480919,-0.93893,0.961824,0,0,3.33807,0
1774533390700,0.0107461,0.95974,-0.388171,0.106853,-0.778631,1.19083,0,0,3.29613,0
1774533390714,0.0217176,0.970936,-0.384281,-0.259531,-0.641225,1.17557,0,0,3.24765,0
1774533390727,0.0190456,0.967045,-0.377448,0.40456,-0.816789,0.740471,0,0,3.28172,0
1774533390740,0.0227014,0.95948,-0.382807,-0.343489,-0.76336,0.641224,0,0,3.41311,5
1774533390754,0.00831515,0.967765,-0.382569,0.11449,-0.786259,0.580155,0,0,3.40735,5
1774533390768,0.0143982,0.989236,-0.375251,0.190837,-0.78626,1.24425,0,0,3.26165,5
1774533390781,0.00855076,0.967307,-0.387439,0.732808,-0.290091,2.18318,0,0,3.28483,5
1774533390794,0.0151301,0.984114,-0.382573,0.488557,-0.290076,2.87021,0,0,3.2655,5
1774533390809,0.0163562,0.979497,-0.384276,1.30532,-0.259543,2.84733,0,0,4.62843,5
1774533390823,0.0231865,0.97559,-0.378424,1.32061,-0.175575,2.8855,0,0,3.84615,5
1774533390837,0.0280713,0.972415,-0.380369,2.24425,-0.519074,1.97713,0,0,3.29296,5
1774533390851,0.0302712,0.955827,-0.383542,1.41987,-0.694651,1.3817,0,0,3.70522,5
1774533390864,0.0251516,0.962396,-0.392325,2.00762,-0.824424,0.56491,0,0,3.27757,5
1774533390878,0.0307561,0.954842,-0.377212,1.3359,-0.862594,-0.145017,0,0,3.27129,5
1774533390891,0.0171035,0.958249,-0.387197,1.52671,-1.26716,-0.78624,0,0,3.31148,5
1774533390905,0.0139192,0.955569,-0.385256,0.183246,-1.29008,-0.732826,0,0,3.27707,5
1774533390918,0.0122087,0.96142,-0.383791,-0.175562,-1.22138,-0.47329,0,0,3.28328,5
1774533390931,0.0148899,0.954597,-0.380131,-0.732808,-1.09924,-0.229015,0,0,3.27629,5
1774533390945,0.0183071,0.960199,-0.387932,-1.58776,-1.0687,0.0915934,0,0,3.61826,5
1774533390959,0.0122131,0.970205,-0.377696,-1.64122,-1.12977,0.0229028,0,0,3.27492,5
1774533390972,0.024158,0.965825,-0.384027,-1.70992,-1.03817,-0.0839663,0,0,3.25672,5
1774533390985,0.0251455,0.971674,-0.384033,-1.45039,-1.19847,-0.885472,0,0,3.28478,5
1774533390999,0.0366096,0.96046,-0.372326,-1.49618,-1.34351,-2.66407,0,0,3.26052,5
1774533391012,0.00686565,0.936547,-0.394265,-2.92362,-1.18321,-2.74046,0,0,3.30448,5
1774533391026,-0.000480942,0.959694,-0.384531,-4.22897,-0.854972,-2.33589,0,0,3.26174,5
1774533391039,-0.00585401,0.944839,-0.386473,-5.56485,-0.732828,-0.580205,0,0,3.29587,5
1774533391052,0.000481952,0.975311,-0.381353,-6.58776,-0.709924,1.01522,0,0,3.26972,5
1774533391066,0.00268335,1.01949,-0.368177,-5.35118,-0.229022,2.53431,0,0,3.60211,5
1774533391081,0.0117097,0.99441,-0.371823,-2.71,-0.580142,2.20612,0,0,4.87868,5
1774533391095,0.00879198,0.999507,-0.365973,-2.48092,-0.351152,3.25951,0,0,3.28422,5
1774533391108,0.0100086,0.987805,-0.384015,-0.129842,-0.145044,2.83971,0,0,3.30415,5
1774533391122,0.0114731,0.967793,-0.37818,-1.22134,-0.0763379,3.40456,0,0,3.26641,5
1774533391135,0.00610887,0.966798,-0.382076,-0.458038,0.251899,3.50381,0,0,3.27096,5
1774533391148,0.0195179,0.95826,-0.374519,-1.57249,0.389309,4.60302,0,0,3.27157,5
1774533391162,0.0163606,0.992154,-0.368902,-0.122181,0.0458118,4.50382,0,0,3.55304,5
1774533391176,0.00562596,0.973651,-0.369384,-0.564872,0.190835,5.47325,0,0,3.61278,5
1774533391189,0.025127,0.993145,-0.362556,0.519051,0.198473,5.23665,0,0,3.25585,5
1774533391202,0.0414876,0.980238,-0.377914,1.40455,-0.129761,4.05347,0,0,3.30302,5
1774533391216,0.0276018,0.961932,-0.374515,1.68701,-0.0381707,3.4733,0,0,3.264,5
1774533391229,0.024905,0.96728,-0.37939,1.24429,-0.0916015,2.76338,0,0,3.26489,5
1774533391243,0.0217317,0.969724,-0.368907,1.15267,-0.17557,2.89313,0,0,3.27889,5
1774533391256,0.0219724,0.96119,-0.371823,1.00764,-0.312973,3.0916,0,0,3.38013,5
1774533391270,0.0166069,0.978498,-0.381582,0.809166,-0.0381762,3.73281,0,0,3.28361,5
1774533391284,0.0214795,0.978028,-0.382811,1.81676,-0.0534347,3.24429,0,0,3.70422,5
1774533391297,0.0248989,0.970467,-0.374764,1.10689,0.122132,3.26717,0,0,3.29952,5
1774533391310,0.0212439,0.969971,-0.382317,1.72517,3.66374e-06,3.12214,0,0,3.26602,5
1774533391324,0.0292888,0.987287,-0.370861,1.80916,-0.0534335,2.771,0,0,3.31437,5
1774533391337,0.0475891,0.985597,-0.375728,3.34347,-0.47327,1.06875,0,0,3.25918,5
1774533391351,0.0334614,0.966328,-0.371586,3.27481,-0.488549,0.946569,0,0,3.28763,5
1774533391364,0.0283254,0.986308,-0.377436,4.43508,-0.389316,0.076362,0,0,3.26802,5
1774533391378,0.014906,0.956085,-0.383051,3.87788,-0.167946,0.648838,0,0,3.6337,5
1774533391391,0.0183071,0.988493,-0.376471,3.87023,0.190829,2.20606,0,0,3.27918,5
1774533391405,0.0197739,0.981208,-0.37866,4.5725,0.129773,2.98471,0,0,3.25224,5
1774533391419,0.0200193,0.959494,-0.38354,3.82445,0.328238,4.33584,0,0,3.28155,5
1774533391432,0.0256292,0.970936,-0.383789,3.89313,0.480911,4.70991,0,0,3.25872,5
1774533391446,0.0356345,0.964362,-0.38257,4.229,0.236649,4.35116,0,0,3.29865,5
1774533391459,0.0412542,0.956551,-0.389641,4.02291,0.229008,3.28247,0,0,3.25722,5
1774533391472,0.0427231,0.957031,-0.388429,3.7481,-0.160294,1.24434,0,0,3.27496,5
1774533391486,0.0522366,0.961665,-0.386477,4.60303,-0.404573,-0.686965,0,0,3.27826,5
1774533391500,0.0466365,0.957036,-0.394767,4.44275,-0.778615,-2.832,0,0,3.70039,5
1774533391513,0.0300459,0.948983,-0.386727,4.32825,-0.92366,-4.4656,0,0,3.27372,5
1774533391527,0.0463704,0.960682,-0.379646,4.09161,-0.969464,-5.58012,0,0,3.2552,5
1774533391540,0.0232165,0.950937,-0.385248,4.2061,-0.702298,-6.18319,0,0,3.31874,5
1774533391553,0.0124619,0.952879,-0.393546,3.1298,-0.290089,-5.14507,0,0,3.26407,5
1774533391567,0.00757324,0.967759,-0.392823,3,-0.50381,-4.38934,0,0,3.27253,5
1774533391580,0.0158609,0.950945,-0.401846,2.48856,-0.259549,-2.83211,0,0,3.27128,5
1774533391594,0.00074752,0.985561,-0.393319,1.47331,-0.0458079,0.496083,0,0,3.62178,5
1774533391608,0.0190247,0.995352,-0.389652,3.00759,0.152666,1.94652,0,0,3.87381,5
1774533391621,0.0158723,0.975118,-0.397941,2.62597,-0.381663,3.36637,0,0,3.28987,5
1774533391635,0.00684496,1.00022,-0.398437,3.72516,0.625924,5.43505,0,0,3.33442,5
1774533391649,0.0341524,0.990976,-0.39673,4.70989,0.732821,7.22132,0,0,3.40448,5
1774533391663,0.031009,0.987796,-0.396972,5.49616,0.526724,7.92364,0,0,3.33413,5
1774533391677,0.030762,0.996817,-0.402338,6.56485,0.786252,8.90837,0,0,3.27937,5
1774533391690,0.0344202,0.991704,-0.400393,6.98472,-0.0457766,10.1526,0,0,3.35989,5
1774533391704,0.0168632,0.995602,-0.392586,7.21373,0.580134,13.7404,0,0,3.31535,5
1774533391718,0.0190408,1.02365,-0.410139,9.53428,1.30532,15.5343,0,0,3.95424,5
1774533391733,0.0485545,1.05392,-0.413327,14.4884,1.23664,16.5572,0,0,3.32991,5
1774533391747,0.101753,1.08542,-0.393574,21.496,0.152704,13.1299,0,0,3.87946,5
1774533391761,0.0954653,1.17935,-0.434286,29.3356,-2.0152,15.3205,0,0,3.33342,5
1774533391774,0.0208265,1.40237,-0.450667,41.1523,-2.90837,25.8546,0,0,3.30448,5
1774533391789,-0.169975,1.99282,-0.428977,75.1059,3.03799,44.3582,0,0,4.88426,5
1774533391803,0.245922,1.07733,-0.472369,84.244,-5.70203,44.687,0,0,3.32209,5
1774533391817,0.11756,2.23932,-0.433632,91.2059,-4.97712,19.4817,0,0,3.33048,5
1774533391831,0.266941,1.88488,-0.383839,160.296,-8.22128,15.794,0,0,3.27687,5
1774533391846,0.186848,1.35185,-0.385009,167.084,-14.412,3.13015,0,0,4.94013,5
1774533391859,0.311399,1.62643,-0.368669,186.053,-20.267,-3.89292,0,0,3.32124,5
1774533391873,0.360547,2.00499,-0.402798,217.77,-28.4654,-11.1372,0,0,3.75807,5
1774533391886,0.344986,2.0322,-0.32137,250.129,-38.0989,-20.7936,0,0,3.27146,5
1774533391900,0.287655,1.98467,-0.288119,250.13,-45.1372,-23.6411,0,0,3.27985,5
1774533391913,0.167844,2.0134,-0.34589,250.13,-47.9159,-28.6945,0,0,3.27315,5
1774533391926,0.240162,2.20806,-0.280583,250.13,-50.5877,-21.504,0,0,3.28389,5
1774533391940,0.191455,2.07069,-0.285639,250.13,-53.3358,-26.4273,0,0,3.48522,5
1774533391953,0.0826282,1.5474,-0.517103,250.13,-55.4809,-57.0525,0,0,3.24867,5
1774533391967,0.241297,1.63931,-0.46392,250.13,-46.84,-58.7175,0,0,3.27805,5
1774533391980,0.321697,1.19429,-0.417039,250.13,-52.1907,-42.2066,0,0,3.26352,3
1774533391994,0.237633,1.08775,-0.114316,250.13,-51.0535,-67.9611,0,0,3.27405,3
1774533392007,0.335839,1.91543,0.0325681,250.13,-61.4959,-79.679,0,0,3.27909,3
1774533392020,0.0542364,2.51234,0.760259,250.13,-45.5883,-83.9083,0,0,3.24287,3
1774533392034,0.230049,-1.43453,0.160511,250.13,-19.4664,-87.8854,0,0,3.27441,3
1774533392047,0.268516,-3.79452,1.40549,179.369,-33.8087,24.2027,0,0,3.25459,3
1774533392060,-0.402406,-2.98079,0.283591,-166.539,24.3112,29.7098,0,0,3.33233,3
1774533392074,0.202765,0.957735,0.328812,-250.135,19.9009,58.732,0,0,3.26144,3
1774533392088,0.153857,1.53043,0.0927651,-203.238,36.3278,23.543,0,0,3.86133,3
1774533392101,0.132346,0.250546,0.137163,-206.389,31.191,16.6643,0,0,3.27783,3
1774533392114,0.0474481,-0.182185,0.330617,-250.136,31.5267,25.9234,0,0,3.28237,3
1774533392128,0.0495584,0.0820115,0.398614,-250.137,33.2137,26.9847,0,0,3.29291,3
1774533392141,0.121266,0.730309,0.364292,-250.137,29.9543,21.0612,0,0,3.27429,3
1774533392156,0.164508,0.87827,0.254992,-250.137,23.6719,18.7711,0,0,3.30715,3
1774533392169,0.127722,0.916222,0.193665,-250.137,19.3971,21.1679,0,0,3.25191,3
1774533392184,0.0820768,1.09187,0.0682405,-250.137,18.771,31.4653,0,0,4.7542,3
1774533392198,0.0386176,1.23179,-0.0479796,-250.137,21.3282,35.3434,0,0,3.27692,3
1774533392212,0.07711,1.2912,-0.135898,-250.137,21.0763,29.817,0,0,3.9535,3
1774533392225,0.0371493,1.60369,-0.32086,-250.137,22.8396,28.5497,0,0,3.27844,5
1774533392239,-0.0682541,1.64547,-0.448115,-250.137,29.7479,26.5878,0,0,3.251,5
1774533392252,-0.218356,1.58478,-0.511655,-250.137,45.8316,20.6414,0,0,3.28915,5
1774533392265,-0.298504,1.7113,-0.600009,-250.137,70.4344,11.1072,0,0,3.24572,5
1774533392280,-0.18005,1.88264,-0.82619,-250.137,97.8999,2.27507,0,0,3.29244,5
1774533392294,0.0954279,2.00598,-1.07348,-250.137,114.206,4.33582,0,0,3.38111,5
1774533392309,0.36277,2.09293,-1.34519,-250.137,115.466,11.2517,0,0,4.83416,5
1774533392322,0.506692,2.11082,-1.64545,-250.137,102.222,11.5801,0,0,3.37448,5
1774533392336,0.468544,2.01474,-1.89819,-250.137,89.3134,10.0916,0,0,3.82428,5
1774533392349,0.319729,1.74124,-2.11282,-213.68,84.1834,8.65653,0,0,3.27667,5
1774533392363,0.422505,1.52414,-2.19035,-166.727,79.1223,2.93147,0,0,3.23816,5
1774533392376,0.668212,1.29393,-2.22409,-117.605,61.6341,23.862,0,0,3.28168,5
1774533392389,0.535289,0.97005,-2.24095,-83.1384,36.5122,62.495,0,0,3.23585,5
1774533392404,0.0776057,1.14045,-2.20487,-33.5893,17.6342,64.1526,0,0,3.29639,5
1774533392418,-0.00528828,1.11697,-2.26825,-4.33676,21.1678,-22.2951,0,0,3.23881,5
1774533392432,0.144626,3.19397,-1.91564,192.887,-1.51077,-114.432,0,0,4.75611,5
1774533392446,-1.61738,0.983166,0.403933,250.128,-5.87773,-41.8877,0,0,3.27446,5
1774533392460,0.0413117,0.752672,0.230886,201.215,-2.32072,-20.1533,0,0,3.89865,5
1774533392473,0.144672,1.30755,-0.0973284,226.236,4.23644,-49.7625,0,0,3.41843,5
1774533392487,-0.173022,0.847871,-0.265701,210.825,2.4657,-13.0469,0,0,3.24833,5
1774533392500,0.216652,0.772048,-0.332697,180.757,-0.938829,-15.9388,0,0,3.28759,5
1774533392513,-0.162707,0.903921,-0.430322,149.26,-9.59516,4.3429,0,0,3.27067,5
1774533392528,-0.103575,0.827957,-0.465297,130.085,-6.87794,23.0223,0,0,3.31155,5
1774533392542,-0.0518095,0.553985,-0.543867,93.4515,-0.351341,22.4122,0,0,3.25513,5
1774533392555,0.0284842,0.549321,-0.504434,45.8259,2.78617,16.359,0,0,3.39563,5
1774533392569,0.0251498,0.695167,-0.440737,20.932,11.5799,6.62625,0,0,3.26674,5
1774533392582,0.0317317,0.729458,-0.428235,-2.38098,11.229,4.97715,0,0,3.79644,5
1774533392596,0.172711,1.07509,-0.385785,-14.3661,9.6489,9.91588,0,0,3.3003,5
1774533392609,0.130657,1.33104,-0.389888,23.3271,3.3666,5.66425,0,0,3.26735,5
1774533392623,0.18159,0.65107,-0.402575,20.4657,1.62601,-5.61035,0,0,3.33361,5
1774533392636,0.0226197,0.927946,-0.405759,-2.00696,2.44272,-14.1829,0,0,3.27685,5
1774533392650,0.0536799,1.0509,-0.387469,6.786,-1.63347,-12.252,0,0,3.42226,5
1774533392663,0.0602961,0.928345,-0.395988,4.16802,0.0686512,-10.2901,0,0,3.28109,5
1774533392677,-0.00920791,0.993343,-0.39185,1.35886,0.198469,-5.76349,0,0,3.99952,5
1774533392691,0.00779551,1.03024,-0.370871,4.38159,1.09158,0.633396,0,0,3.33641,5
1774533392704,0.00342234,1.00369,-0.386703,5.58775,2.64117,6.30517,0,0,3.28454,5
1774533392717,0.0295149,1.0161,-0.377207,5.67939,3.25952,9.30525,0,0,3.28292,5
1774533392731,0.0734424,1.01782,-0.395246,8.45793,2.17561,8.67941,0,0,3.253,5
1774533392744,0.076413,0.958068,-0.387947,7.12981,1.8168,8.19849,0,0,3.28952,5
1774533392758,0.0773916,0.99069,-0.385013,7.40457,0.435156,6.32067,0,0,3.25002,5
1774533392771,0.0956849,0.97682,-0.375742,8.56485,-0.900723,4.24434,0,0,3.26233,5
1774533392785,0.0678989,0.948759,-0.399634,6.93135,-2.36637,3.42751,0,0,3.28537,5
1774533392798,0.0595786,0.96312,-0.385024,5.46569,-2.36641,4.11448,0,0,3.31737,5
1774533392812,0.0717652,0.991427,-0.376961,7.36636,-2.10688,4.21374,0,0,3.56905,5
1774533392825,0.0627531,0.962187,-0.37988,6.88551,-2.03817,3.76337,0,0,3.267,5
1774533392839,0.0695733,0.978743,-0.386712,7.55723,-2.31297,2.66416,0,0,3.25341,5
1774533392852,0.0503122,0.971199,-0.393792,9.06866,-2.33588,1.66415,0,0,3.27596,5
1774533392865,0.0707803,0.971435,-0.39575,10.0305,-2.24428,1.05345,0,0,3.26507,5
1774533392879,0.0847029,0.95607,-0.384045,10.6946,-2.25191,-0.45797,0,0,3.28605,5
1774533392892,0.0786194,0.951177,-0.392814,9.69469,-2.50381,-2.29002,0,0,3.27733,5
1774533392906,0.091052,0.951904,-0.399164,9.58016,-3.54959,-4.09918,0,0,3.286,5
1774533392919,0.0808208,0.968977,-0.40478,10.2443,-3.98472,-5.46561,0,0,3.26428,5
1774533392932,0.0761765,0.970458,-0.400395,10.9694,-4.6641,-6.36639,0,0,3.26524,5
1774533392946,0.0666599,0.974605,-0.389659,11.7633,-5.16029,-7.74805,0,0,3.26972,5
1774533392959,0.0673821,0.967536,-0.41477,12,-5.89311,-9.02286,0,0,3.27152,5
1774533392972,0.0632366,0.981919,-0.417722,13.5038,-6.25953,-8.61833,0,0,3.28179,5
1774533392986,0.00786781,0.956081,-0.411627,13.626,-5.0611,-4.59554,0,0,3.28937,5
1774533392999,-0.0251135,1.01654,-0.423328,13.9618,-2.50389,-0.000137858,0,0,3.27926,5
1774533393013,0.0236329,0.995139,-0.433584,17.8548,-2.64885,2.68694,0,0,3.26602,5
1774533393026,0.0268523,0.959752,-0.44213,17.5191,-2.13742,5.06863,0,0,3.27848,5
1774533393039,0.126853,1.03898,-0.425554,16.4733,-4.32818,3.9237,0,0,3.25331,5
1774533393053,0.0279309,1.23589,-0.431878,26.0531,-5.22135,0.0993514,0,0,3.27937,5
1774533393066,-0.0377762,1.15584,-0.487737,36.3814,-0.587925,20.32,0,0,3.25205,5
1774533393079,-0.0151593,1.15308,-0.453403,47.8775,1.58009,15.4658,0,0,3.26191,3
1774533393093,0.119982,1.03942,-0.501417,47.0687,0.335915,34.2055,0,0,3.27365,3
1774533393106,0.0369482,1.32272,-0.527562,46.5649,0.877846,27.0613,0,0,3.28448,3
1774533393120,0.133936,1.66543,-0.467833,76.8464,-1.03811,26.8702,0,0,3.28529,3
1774533393133,0.162325,1.59699,-0.454847,101.763,-3.80144,20.7712,0,0,3.25683,3
1774533393149,0.213328,1.64936,-0.461663,127.755,-9.91585,11.9774,0,0,3.35255,3
1774533393163,0.298499,1.53137,-0.404842,157.892,-15.7632,-3.97662,0,0,3.36098,3
1774533393176,0.316632,1.69125,-0.423809,173.167,-25.9921,-6.78618,0,0,3.29372,3
1774533393189,0.268603,2.15774,-0.43773,208.358,-32.3739,-14.3509,0,0,3.27485,5
1774533393203,0.413673,2.32893,-0.354819,250.129,-42.5264,-22.7478,0,0,3.30185,5
1774533393216,0.385526,2.14569,-0.321566,250.13,-51.2593,-33.9462,0,0,3.27379,5
1774533393230,0.22477,2.17087,-0.353484,250.13,-56.8243,-33.7023,0,0,3.26131,5
1774533393243,0.333631,2.44797,-0.388881,250.13,-61.7556,-23.2064,0,0,3.2655,5
1774533393256,0.15472,2.51824,-0.283552,250.13,-63.8396,-25.8549,0,0,3.24772,5
1774533393270,0.243076,1.73345,-0.559539,250.13,-70.5342,-42.5949,0,0,3.26909,5
1774533393283,0.408526,2.61557,-0.343478,250.13,-47.4587,-60.946,0,0,3.26396,5
1774533393297,0.897217,2.0411,-0.118389,250.13,-68.1521,-17.0853,0,0,3.26109,5
1774533393310,0.477226,2.12516,0.123538,250.13,-69.3206,21.0752,0,0,3.27417,5
1774533393323,0.493636,2.29719,1.55838,250.13,-93.3504,2.06164,0,0,3.4062,3
1774533393337,0.304632,-2.14546,0.903242,250.13,-73.7563,-65.3415,0,0,3.29102,3
1774533393350,-0.48188,-3.94986,0.284554,142.629,-66.8628,80.988,0,0,3.24959,3
1774533393364,-0.939484,-2.0639,0.584417,-155.861,5.77645,41.3829,0,0,3.26915,3
1774533393377,-0.359222,1.07279,0.339356,-192.716,28.0451,54.7859,0,0,3.2585,3
1774533393390,-0.278157,1.37787,0.0339965,-148.62,56.5946,34.2067,0,0,3.28507,3
1774533393404,-0.234419,0.494535,0.153445,-128.619,65.9463,7.92445,0,0,3.25196,3
1774533393417,-0.304373,-0.45096,0.325512,-196.097,70.8624,-3.77827,0,0,3.27563,3
1774533393430,-0.124935,0.0222324,0.406169,-250.136,65.9314,-21.5415,0,0,3.2695,2
1774533393444,0.194261,0.212944,0.421615,-250.137,45.1762,-23.2213,0,0,3.25061,2
1774533393457,0.39677,0.566541,0.323584,-250.137,16.7489,1.15194,0,0,3.25926,2
1774533393470,0.486727,1.09542,0.140564,-250.137,-12.8846,39.8004,0,0,3.25116,2
1774533393484,0.276577,1.01375,0.0162375,-250.137,-35.4192,78.8156,0,0,3.30439,2
1774533393497,0.0468603,0.854163,-0.0287636,-250.137,-50.3583,84.5647,0,0,3.25596,2
1774533393511,-0.192876,1.10278,-0.142221,-250.137,-57.6486,65.7716,0,0,3.35392,5
1774533393524,-0.357258,1.25424,-0.302818,-250.137,-54.2291,50.5119,0,0,3.25818,5
1774533393537,-0.484004,1.33756,-0.425659,-250.137,-37.5043,47.8245,0,0,3.24731,5
1774533393551,-0.561202,1.4935,-0.499194,-250.137,-10.6191,52.5037,0,0,3.2622,5
1774533393564,-0.622741,1.5039,-0.56951,-250.137,24.747,52.8626,0,0,3.25604,5
1774533393577,-0.543536,1.48708,-0.574946,-250.137,59.9379,43.4201,0,0,3.25611,5
1774533393591,-0.326633,1.71925,-0.636169,-250.137,87.0984,32.9927,0,0,3.25937,5
1774533393604,0.00528365,1.84314,-0.742082,-250.137,99.992,30.0535,0,0,3.26946,5
1774533393617,0.311462,1.8735,-0.913403,-250.137,94.6185,34.1525,0,0,3.27391,5
1774533393631,0.504934,1.93646,-1.15552,-250.137,72.5197,33.6183,0,0,3.27361,5
1774533393644,0.627563,2.00799,-1.46795,-250.137,40.6651,27.359,0,0,3.26702,5
1774533393658,0.578906,2.12001,-1.76021,-250.137,11.2528,26.687,0,0,3.91102,5
1774533393672,0.375447,1.9811,-1.95781,-236.519,-8.50322,39.0912,0,0,3.30539,5
1774533393685,0.113055,1.68365,-2.10996,-189.658,-13.4808,57.5949,0,0,3.28604,5
1774533393699,0.0330389,1.5714,-2.26791,-136.101,-18.4273,64.0227,0,0,3.28972,5
1774533393712,-0.220938,1.263,-2.50635,-81.6047,-26.2593,69.3663,0,0,3.28154,5
1774533393726,-0.704839,1.00855,-2.56586,-36.9937,-20.9773,46.9167,0,0,3.60681,5
1774533393740,-0.880928,0.994155,-2.5347,10.8001,-8.61869,-1.5558,0,0,3.27494,5
1774533393753,1.64884,1.96168,-3.1849,-28.6629,-7.87025,-161.4,0,0,3.24816,5
1774533393766,1.68575,2.67751,1.83019,228.504,-91.7456,-77.3002,0,0,3.27937,5
1774533393780,-0.974881,1.28679,0.041094,250.129,-71.4815,-76.9771,0,0,3.26046,5
1774533393793,-0.185847,1.00712,0.148574,248.046,-30.5737,-62.5882,0,0,3.3017,5
1774533393807,0.179323,1.02318,-0.0498506,249.122,2.56389,-60.7939,0,0,3.26735,5
1774533393820,-0.302497,0.929049,-0.376139,232.237,13.0531,-49.9698,0,0,3.29633,3
1774533393833,0.201157,0.69896,-0.383538,182.887,-6.404,-19.9475,0,0,3.27715,3
1774533393847,-0.199795,0.855313,-0.496225,151.543,-14.7631,-12.9239,0,0,3.61755,3
1774533393861,0.0546774,0.600352,-0.687065,113.337,-9.18337,0.320213,0,0,3.28137,3
1774533393874,-0.111162,0.323275,-0.553112,54.3147,4.61791,-18.4651,0,0,3.26146,3
1774533393887,-0.0779141,0.676893,-0.454688,12.1921,10.1754,-23.0915,0,0,3.28885,3
1774533393901,-0.00934584,1.05016,-0.376055,0.679735,15.8624,-7.09208,0,0,3.26028,3
1774533393914,-0.0151309,1.33053,-0.412317,32.0143,8.20634,9.44989,0,0,3.28022,3
1774533393928,0.0543739,0.746677,-0.511132,30.9848,6.90844,9.53435,0,0,3.28,3
1774533393941,0.0583456,0.777801,-0.415623,2.87871,3.71765,-0.587483,0,0,3.72591,2
1774533393955,0.120299,1.11734,-0.375041,12.015,1.96952,-0.77862,0,0,3.28704,2
1774533393968,0.0135344,0.858901,-0.396707,11.6183,1.8855,-1.77096,0,0,3.25848,5
1774533393982,0.0356225,0.969128,-0.379412,5.12997,-0.648779,-5.3205,0,0,3.27989,5
1774533393995,-0.00776915,1.04777,-0.375736,9.77085,-1.03052,-2.39703,0,0,3.27452,5
1774533394009,0.0177967,0.987853,-0.385488,10.8397,-1.70227,-1.76338,0,0,3.30741,5
1774533394022,-0.00803084,0.983647,-0.385986,10.2214,-0.908421,0.954117,0,0,3.27885,5
1774533394036,-0.00878831,1.00486,-0.393303,10.5496,0.160273,5.02278,0,0,3.62361,5
1774533394049,0.0126739,0.986347,-0.401847,11.6259,0.725174,6.0305,0,0,3.27968,5
1774533394063,0.022939,0.965109,-0.402831,10.0458,0.786258,6.99997,0,0,3.25442,5
1774533394076,0.0292905,0.994599,-0.38454,11.1755,1.14503,7.0916,0,0,3.28683,5
1774533394089,0.0363699,0.979019,-0.391107,12.7938,0.732837,5.7405,0,0,3.26022,5
1774533394103,0.0429622,0.979248,-0.402089,13.8626,-1.34345,3.48862,0,0,3.29994,5
1774533394116,0.0515051,0.937542,-0.395514,14.7023,-2.70988,1.51151,0,0,3.26442,5
1774533394130,0.0424895,0.934573,-0.415995,12.5726,-3.06869,-0.381623,0,0,3.27937,5
1774533394143,0.0283345,0.95018,-0.40187,11.7252,-3.25954,-0.839681,0,0,3.27239,5
1774533394157,0.024418,0.957024,-0.405514,11.916,-3.68701,-1.28243,0,0,3.70344,5
1774533394170,0.0122192,0.923617,-0.407957,10.1375,-3.31299,-1.06871,0,0,3.27437,5
1774533394184,0.0436698,0.955778,-0.406496,9.09163,-3.94655,-1.70227,0,0,3.279,5
1774533394197,0.0373598,0.976054,-0.416494,10.29,-3.93893,-2.69463,0,0,3.31165,5
1774533394211,0.0197929,0.959733,-0.415528,10.4733,-4.28243,-2.59542,0,0,3.2798,5
1774533394225,0.0405067,0.961668,-0.420893,9.88551,-4.93891,-2.96182,0,0,4.68792,5
1774533394239,0.0549172,0.982157,-0.420411,10.0382,-6.40454,-3.93127,0,0,3.28457,5
1774533394253,0.00542054,0.970715,-0.423337,14.122,-5.15271,-0.580253,0,0,3.76659,5
1774533394266,0.0268341,0.963386,-0.434315,11.5039,-6.38928,0.396917,0,0,3.33887,5
1774533394280,0.00783148,0.99411,-0.454082,14.8014,-6.75571,2.32055,0,0,3.25452,5
1774533394293,-0.0543812,0.973897,-0.441663,15.9389,-4.19092,5.32052,0,0,3.31544,5
1774533394307,-0.0254196,0.971438,-0.433602,13.9848,-1.55733,8.32052,0,0,3.25844,3
1774533394321,-0.00222044,1.08436,-0.464569,19.1983,-0.717582,11.3282,0,0,3.25442,3
1774533394334,-0.000733907,1.10886,-0.472648,25.0838,0.053412,18.8166,0,0,3.26365,3
1774533394347,0.0382911,1.30303,-0.475095,38.2133,3.67165,32.9996,0,0,3.26885,3
1774533394361,0.0358911,1.06908,-0.48778,41.0533,4.51906,33.9007,0,0,3.50548,3
1774533394374,0.023206,1.3025,-0.482671,42.7633,3.95422,30.4276,0,0,3.29972,3
1774533394388,0.135386,1.59297,-0.490959,63.007,1.03826,34.9541,0,0,3.2667,5
1774533394401,0.119401,1.67765,-0.499015,93.2281,-1.28237,20.6798,0,0,3.2462,5
1774533394414,0.143287,1.45408,-0.472926,107.526,-5.93116,19.3054,0,0,3.2775,5
1774533394428,0.174285,1.63166,-0.460706,134.198,-11.1525,8.85528,0,0,3.26794,5
1774533394441,0.290167,1.51745,-0.433621,161.908,-18.1525,-3.23628,0,0,3.24422,5
1774533394454,0.204919,1.46295,-0.481885,174.954,-24.1067,-5.87778,0,0,3.2505,5
1774533394468,0.127763,1.918,-0.494372,196.19,-28.3739,-3.16802,0,0,3.24004,5
1774533394481,0.207684,2.30747,-0.400241,245.319,-32.6182,-13.5493,0,0,3.25026,5
1774533394494,0.256787,2.10274,-0.366245,250.13,-39.0456,-17.5037,0,0,3.24267,5
1774533394508,0.20952,2.17595,-0.365235,250.13,-43.8625,-16.0153,0,0,3.263,5
1774533394521,0.262398,2.46748,-0.44133,250.13,-44.2443,-8.28267,0,0,3.26983,5
1774533394535,0.106357,2.35753,-0.30458,250.13,-44.9694,-3.16809,0,0,3.28939,5
1774533394548,0.0696168,1.40915,-0.574681,250.13,-51.2823,-4.81674,0,0,3.24091,5
1774533394561,0.223235,2.86256,-0.604219,250.13,-30.1228,-12.0227,0,0,3.25255,5
1774533394575,0.603868,2.35915,-0.30084,250.13,-38.9845,22.6554,0,0,3.25372,5
1774533394588,0.387179,2.22328,0.368228,250.13,-50.1752,55.4036,0,0,3.24363,3
1774533394601,0.556228,1.93413,1.97008,250.13,-80.8235,25.1459,0,0,3.25283,3
1774533394615,0.436643,-1.93071,0.617562,250.13,-86.8624,-45.5704,0,0,3.23879,3
1774533394628,-0.41175,-3.12356,-0.0130419,122.408,-70.031,29.4481,0,0,3.36535,3
1774533394641,-0.159676,-0.549203,0.400954,-76.0627,-33.0469,15.1607,0,0,3.24018,3
1774533394655,-0.306738,0.643096,0.251614,-84.2364,-4.43597,15.5878,0,0,3.2677,3
1774533394668,-0.12762,0.548434,0.0734202,-113.167,11.5262,22.183,0,0,3.26778,3
1774533394682,-0.0789061,0.569071,0.190069,-114.901,23.3661,11.8629,0,0,3.26465,3
1774533394697,-0.187148,-0.248451,0.307256,-167.151,36.9004,24.6256,0,0,4.91442,3
1774533394711,-0.164573,-0.23317,0.435663,-230.739,45.183,31.5341,0,0,4.32291,2
1774533394724,-0.029188,-0.0665727,0.494814,-250.137,43.5115,28.2596,0,0,3.296,2
1774533394738,0.0546038,0.437241,0.468776,-250.137,37.2903,32.3434,0,0,3.27481,2
1774533394751,0.0615165,0.749444,0.308754,-250.137,30.817,51.9383,0,0,3.31357,2
1774533394765,0.0703037,0.925361,0.168353,-250.137,22.8934,72.8772,0,0,3.25991,2
1774533394778,0.0386059,1.05334,0.00431427,-250.137,11.3362,78.3128,0,0,3.27952,2
1774533394791,-0.0616674,1.12298,-0.0956033,-250.137,-0.869863,62.9241,0,0,3.27463,5
1774533394805,-0.104449,1.14427,-0.191555,-250.137,-13.763,41.8938,0,0,3.68474,5
1774533394819,-0.111077,1.2216,-0.281648,-250.137,-24.1829,28.031,0,0,3.2772,5
1774533394832,-0.190107,1.40875,-0.365395,-250.137,-26.1144,26.3436,0,0,3.27255,5
1774533394845,-0.32067,1.55942,-0.449379,-250.137,-14.321,32.4655,0,0,3.28079,5
1774533394859,-0.439335,1.61298,-0.521656,-250.137,9.47257,34.5267,0,0,3.26115,5
1774533394872,-0.492135,1.67035,-0.592459,-250.137,40.8159,30.4047,0,0,3.31194,5
1774533394886,-0.375361,1.92358,-0.741306,-250.137,68.8007,22.3896,0,0,3.27974,5
1774533394899,-0.137201,2.05309,-0.93828,-250.137,85.0377,19.3283,0,0,3.63755,5
1774533394913,0.140348,2.21054,-1.16823,-250.137,83.4199,27.8929,0,0,3.27274,5
1774533394926,0.354035,2.18777,-1.4543,-250.137,69.4203,30.748,0,0,3.25502,5
1774533394939,0.361565,2.14677,-1.71751,-250.137,53.9089,20.3973,0,0,3.28392,5
1774533394953,0.649858,2.51331,-1.58558,-169.598,29.6954,-19.7622,0,0,3.25822,5
1774533394966,0.312593,0.561764,-2.21568,-198.587,17.8477,10.4342,0,0,3.29879,5
1774533394979,0.322988,2.16076,-2.22997,-158.497,17.5725,32.8925,0,0,3.26029,5
1774533394993,0.233732,1.61358,-2.45485,-68.1019,8.74836,43.1066,0,0,3.53017,5
1774533395006,-0.145129,1.72474,-2.66288,-16.4977,-10.5032,20.2984,0,0,3.27309,5
1774533395020,-0.291846,2.2024,-3.01235,110.05,-17.1219,-57.7992,0,0,3.2493,5
1774533395033,0.951883,2.09727,-3.03562,225.424,-51.0219,-81.1978,0,0,3.35476,5
1774533395047,-1.28073,1.085,0.797196,250.129,-23.2069,-15.3226,0,0,3.26326,5
1774533395060,0.169694,0.40961,0.385177,231.733,-31.7784,-17.5343,0,0,3.29817,5
1774533395073,-0.0120255,1.29745,-0.226928,220.741,2.51806,-59.0827,0,0,3.26102,5
1774533395087,-0.104156,1.2359,-0.304854,232.221,4.98466,-30.9398,0,0,3.30172,5
1774533395100,-0.0132744,0.551465,-0.410051,189.49,11.7479,-17.5729,0,0,3.27205,3
1774533395114,-0.00659847,0.725412,-0.471618,139.406,-2.49576,-15.0993,0,0,3.57605,3
1774533395127,-0.0578102,0.796804,-0.661431,109.902,-2.81678,-4.42017,0,0,3.28579,3
1774533395141,-0.0724951,0.353714,-0.417724,61.5511,5.56463,-4.36641,0,0,3.27502,3
1774533395154,-0.0729975,0.682777,-0.452602,21.0241,9.86247,-7.26709,0,0,3.2862,3
1774533395168,0.106998,1.12797,-0.473124,22.8702,7.81686,0.160083,0,0,3.25563,3
1774533395182,0.0413254,0.68111,-0.532655,33.7707,5.32832,3.52662,0,0,4.64154,3
1774533395196,-0.0682499,0.810174,-0.425156,-8.81552,9.48842,0.23674,0,0,3.25541,3
1774533395209,0.106027,1.25566,-0.412366,5.98429,1.58802,-2.07627,0,0,3.29098,3
1774533395223,0.0983963,0.925623,-0.392598,13.2288,2.81676,0.0533712,0,0,3.34294,5
1774533395236,0.0844866,0.971634,-0.389895,5.96968,-1.85482,-9.4501,0,0,3.35631,5
1774533395250,0.0773997,1.05534,-0.384527,13.6944,-5.94644,-14.6945,0,0,3.28163,5
1774533395263,0.00812585,0.882009,-0.400619,9.32838,-5.13743,-13.2825,0,0,3.23939,5
1774533395276,-0.0431617,1.02622,-0.407952,7.15274,-2.939,-7.19102,0,0,3.31815,5
1774533395290,-0.0468713,1.03564,-0.402349,10.7098,-2.20613,-0.809352,0,0,3.24974,5
1774533395303,-0.0363874,0.983694,-0.408685,9.84735,-0.114567,5.14486,0,0,3.26405,5
1774533395316,0.0380116,1.0551,-0.397228,12.4656,0.511432,5.45801,0,0,3.26891,5
1774533395330,0.0327201,0.981275,-0.409412,15.3358,0.961819,5.88548,0,0,3.24896,5
1774533395343,0.0422268,0.961933,-0.396497,14.6565,1.9847,3.07642,0,0,3.28041,5
1774533395356,0.0441875,0.983133,-0.402582,17.1068,0.213794,-0.59531,0,0,3.23933,5
1774533395370,0.0376042,0.950472,-0.401368,17.6107,-1.93887,-2.58773,0,0,3.31226,5
1774533395383,0.0129641,0.934342,-0.423562,15.9466,-3.374,-2.58779,0,0,3.24557,5
1774533395397,0.0390365,0.927741,-0.415535,13.855,-4.58775,-2.70992,0,0,3.66609,5
1774533395410,0.00320962,0.943344,-0.438698,13.2519,-4.67939,-2.10689,0,0,3.28783,5
1774533395424,0.0180516,0.940433,-0.42555,12.0153,-4.23665,-0.9237,0,0,3.24543,5
1774533395437,0.00953,0.953112,-0.429439,12.1603,-4.93128,-1.74043,0,0,3.28579,5
1774533395450,0.0090337,0.946296,-0.441394,11.3893,-4.51146,-0.503854,0,0,3.235,5
1774533395464,0.0736659,0.991166,-0.419943,13.7099,-4.51145,-2.16026,0,0,3.26144,5
1774533395477,0.0322679,0.948773,-0.455043,14.4122,-5.09922,-3.42744,0,0,3.23179,5
1774533395490,0.0285681,0.96995,-0.426298,15.4809,-7.35108,-4.80912,0,0,3.24322,5
1774533395504,0.0451495,0.931435,-0.440416,14.9313,-9.74039,-5.916,0,0,3.2472,5
1774533395517,0.0398003,0.967005,-0.436527,13.6718,-10.8778,-4.32066,0,0,3.24163,5
1774533395530,0.0441851,0.967285,-0.454328,15.9999,-13.1144,-0.633698,0,0,3.26565,5
1774533395544,-0.00727281,0.995089,-0.464833,15.626,-10.9161,13.5797,0,0,3.26542,5
1774533395557,-0.332683,1.19023,-0.485331,18.9388,-4.86278,17.2823,0,0,3.29333,5
1774533395571,-0.0220388,0.93385,-0.482669,28.8928,-0.503948,21.8854,0,0,3.27124,5
1774533395584,-0.109044,0.969691,-0.480227,20.9697,4.32047,22.9847,0,0,3.31598,5
1774533395597,-0.0218157,1.18167,-0.462176,31.9997,8.88536,24.6488,0,0,3.274,5
1774533395611,-0.0229481,1.06384,-0.512401,35.1602,10.0763,22.6718,0,0,3.28065,5
1774533395624,0.0436347,1.45639,-0.478306,51.0148,8.1451,23.4656,0,0,3.26983,5
1774533395638,0.123212,1.30289,-0.497052,65.7934,3.81692,22.6794,0,0,3.34879,5
1774533395651,0.129632,1.46346,-0.499265,80.2057,-0.969322,21.855,0,0,3.2712,5
1774533395664,0.162809,1.52191,-0.494146,102.931,-5.48841,15.5269,0,0,3.25068,5
1774533395678,0.178695,1.56465,-0.491214,123.473,-10.4426,11.0383,0,0,3.32113,5
1774533395691,0.291147,1.4169,-0.438041,148.389,-17.3051,-1.04544,0,0,3.27561,5
1774533395705,0.247846,1.50114,-0.477987,162.381,-26.9921,-6.22885,0,0,3.28892,5
1774533395718,0.173414,1.88389,-0.480954,186.999,-32.0838,-9.22128,0,0,3.29409,5
1774533395732,0.174559,2.24622,-0.45608,230.075,-35.893,-11.4121,0,0,3.44872,5
1774533395747,0.182121,2.05927,-0.392154,250.129,-39.5037,-18.1677,0,0,3.39078,5
1774533395761,0.0909114,2.31152,-0.497453,250.13,-42.0992,-8.42777,0,0,3.38422,5
1774533395774,0.182038,2.35079,-0.419511,250.13,-42.0916,5.2744,0,0,3.31505,5
1774533395788,-0.140303,2.17742,-0.333094,250.13,-34.3361,21.8239,0,0,3.29444,5
1774533395801,0.140345,2.03505,-0.75934,250.13,-42.2593,-7.93041,0,0,3.31235,5
1774533395815,0.283061,2.67904,-0.586598,250.13,-29.7408,2.7325,0,0,3.34439,5
1774533395829,0.511978,2.6431,-0.129851,250.13,-42.45,47.7238,0,0,3.32876,5
1774533395843,0.337089,1.90796,0.629856,250.13,-54.1752,33.2905,0,0,4.32004,5
1774533395857,1.01031,-0.749299,1.01158,250.13,-67.595,-93.3321,0,0,3.27676,3
1774533395873,-0.59849,-3.40506,-0.185572,136.889,-47.7029,58.3924,0,0,3.29891,3
1774533395887,-0.424246,-0.87094,0.324442,-136.206,8.0136,27.6574,0,0,3.26672,3
1774533395900,-0.118226,1.3991,0.127638,-113.504,17.1295,26.9466,0,0,3.30663,3
1774533395913,0.132074,1.34088,-0.144504,-65.574,21.0915,22.6261,0,0,3.30204,3
1774533395928,-0.0071851,0.497181,0.0435133,-50.8859,24.4732,9.48131,0,0,4.6295,3
1774533395942,-0.0639082,-0.1795,0.171259,-99.5482,27.6793,14.1831,0,0,3.37279,3
1774533395955,-0.0249413,0.0693315,0.211142,-136.556,29.4961,12.771,0,0,3.33178,3
1774533395968,0.0368036,-0.182366,0.261668,-184.373,27.855,7.55741,0,0,3.28378,3
1774533395982,0.0788155,-0.0326203,0.302206,-237.525,23.5955,3.2673,0,0,3.23985,2
1774533395995,0.0781257,0.269717,0.243711,-250.137,20.9085,4.27478,0,0,3.26276,2
1774533396008,0.0891004,0.478551,0.167069,-250.137,21.3664,14.5875,0,0,3.26313,2
1774533396022,0.117159,0.675341,0.0640677,-250.137,22.6335,28.8698,0,0,3.28581,5
1774533396035,0.120602,0.826509,-0.0250574,-250.137,23.5038,38.6562,0,0,3.24985,5
1774533396049,0.0762162,0.902268,-0.123193,-250.137,23.7405,42.3052,0,0,3.27228,5
1774533396062,0.0586113,0.953562,-0.185241,-250.137,20.6871,35.8323,0,0,3.26474,5
1774533396076,0.053228,1.20263,-0.307983,-250.137,17.168,31.7482,0,0,3.46139,5
1774533396089,0.0185893,1.43288,-0.473467,-250.137,13.9848,31.2519,0,0,3.27539,5
1774533396102,-0.110467,1.62456,-0.567289,-250.137,16.9388,30.5725,0,0,3.25681,5
1774533396116,-0.312054,1.6711,-0.632259,-250.137,27.9997,20.3286,0,0,3.27898,5
1774533396129,-0.404693,1.65626,-0.695981,-250.137,48.2971,0.802112,0,0,3.26083,5
1774533396142,-0.341372,1.75283,-0.812384,-250.137,70.8009,-16.5796,0,0,3.26737,5
1774533396156,-0.119606,1.84512,-0.960058,-250.137,88.3201,-20.9617,0,0,3.27576,5
1774533396169,0.217925,1.94594,-1.1902,-250.137,92.7785,-13.8017,0,0,3.2862,5
1774533396183,0.498255,2.01214,-1.49262,-250.137,80.7637,-12.3665,0,0,3.26891,5
1774533396196,0.553899,2.00538,-1.74682,-250.137,63.0387,-5.51166,0,0,3.25476,5
1774533396213,0.267864,1.77733,-2.06194,-230.436,52.3286,21.4038,0,0,3.31096,5
1774533396226,-0.111194,1.59686,-2.2542,-191.268,57.6563,34.824,0,0,3.25546,5
1774533396241,-0.263032,1.60009,-2.46488,-129.155,65.1677,14.764,0,0,3.27868,5
1774533396255,-0.149771,1.26767,-2.58021,-63.6356,60.1528,-4.91544,0,0,3.51509,5
1774533396269,-0.212584,0.872221,-2.63617,-21.7264,47.7103,-7.63351,0,0,3.94313,5
1774533396282,-0.198013,1.1006,-2.53379,29.2885,34.0996,-30.2512,0,0,3.49526,5
1774533396297,-0.0719033,1.27448,-2.19346,85.9754,15.1761,-61.2128,0,0,4.79274,5
1774533396311,3.62058,1.52392,1.19656,-146.092,-27.0598,54.2103,0,0,3.27813,5
1774533396325,-0.0980917,2.81512,0.354113,220.798,-65.4569,-57.7295,0,0,3.73118,5
1774533396340,0.691594,0.780109,-0.226227,250.129,-58.6033,-2.71157,0,0,3.33652,5
1774533396354,-0.666368,0.657349,-0.400217,240.168,12.6773,-36.7165,0,0,3.36359,5
1774533396368,0.0766503,0.978195,-0.381123,220.26,3.37432,-26.7179,0,0,3.31565,5
1774533396381,0.0673921,0.70657,-0.424517,174.872,0.160402,-7.67996,0,0,3.25815,5
1774533396397,-0.109199,0.836784,-0.595532,136.658,-10.5569,0.862339,0,0,3.28087,3
1774533396410,-0.0162062,0.483995,-0.552045,91.5968,-6.43524,3.19077,0,0,3.25398,3
1774533396424,-0.0502589,0.419986,-0.506881,27.834,4.83936,-14.0148,0,0,3.26479,3
1774533396437,0.0179982,1.21429,-0.458057,22.2292,3.45806,-1.84006,0,0,3.27,3
1774533396451,-0.0365666,1.10143,-0.361669,39.7476,9.22883,9.70194,0,0,3.45513,3
1774533396464,0.00581703,0.870836,-0.421327,33.3361,8.64124,14.8777,0,0,3.27492,3
1774533396478,0.141466,0.813046,-0.478459,26.6185,5.90085,6.67964,0,0,3.27479,3
1774533396491,0.0364818,0.881036,-0.403395,7.89369,4.96949,3.39705,0,0,3.27165,3
1774533396504,0.161984,1.03232,-0.394052,15.1601,1.77872,-0.679267,0,0,3.24983,3
1774533396518,0.0967449,0.881498,-0.413067,11.4581,2.06106,-3.25946,0,0,3.27318,3
1774533396531,0.0635098,1.02086,-0.402598,9.08404,-1.19074,-6.66402,0,0,3.25222,5
1774533396545,0.0734764,0.985875,-0.395271,11.8701,-3.48085,-7.16792,0,0,3.31804,5
1774533396558,0.0137316,0.954621,-0.397703,9.64129,-3.70992,-6.50384,0,0,3.27576,5
1774533396571,0.0165987,1.00825,-0.413314,10.9618,-2.99239,-3.94664,0,0,3.31461,5
1774533396585,-0.0121783,0.994399,-0.417476,10.9008,-1.06113,1.17542,0,0,3.27496,5
1774533396598,-0.00391451,0.999994,-0.408944,11.9084,0.0992018,4.90065,0,0,3.27522,5
1774533396612,0.0275565,0.981464,-0.400643,11.5191,1.31294,8.30524,0,0,3.29011,5
1774533396625,0.0305146,0.979006,-0.411122,11.771,1.83205,9.32058,0,0,3.25872,5
1774533396638,0.0410051,0.950712,-0.414791,12.2977,1.35116,8.83971,0,0,3.29892,5
1774533396652,0.0405278,0.928489,-0.417234,11.1832,0.832077,9.51143,0,0,3.29622,5
1774533396665,0.0788192,0.951393,-0.40309,9.9924,-0.60301,6.79397,0,0,3.27128,5
1774533396679,0.0898327,0.941904,-0.413076,9.7023,-1.83966,5.02295,0,0,3.2702,5
1774533396692,0.0671613,0.932139,-0.418452,8.78629,-2.86256,2.90846,0,0,3.24913,5
1774533396705,0.0659192,0.926519,-0.415774,7.70232,-3.8702,1.58783,0,0,3.26852,5
1774533396719,0.0746983,0.956025,-0.422601,7.83206,-4.458,-0.137353,0,0,3.26441,5
1774533396732,0.0593415,0.931177,-0.419925,7.09163,-3.99238,0.435097,0,0,3.27548,5
1774533396746,0.0305463,0.992127,-0.43358,7.5267,-4.42747,1.10685,0,0,3.25337,5
1774533396759,0.0827116,1.00682,-0.428228,10.6259,-5.40455,0.145067,0,0,3.30239,5
1774533396772,0.0583739,0.976349,-0.428223,12.7404,-4.41988,1.12974,0,0,3.26826,5
1774533396786,0.0417646,0.978757,-0.433832,14.6564,-4.84732,1.42747,0,0,3.29955,5
1774533396799,0.0719913,0.958272,-0.427253,13.0764,-5.44273,3.50375,0,0,3.35368,5
1774533396813,0.0166568,1.02288,-0.448465,14.9389,-5.95418,4.29769,0,0,3.27774,5
1774533396826,0.0551373,1.03612,-0.449462,16.3816,-6.99997,3.21377,0,0,3.29207,5
1774533396840,0.0415175,1.01345,-0.452146,25.1295,-5.39699,12.4959,0,0,3.25915,5
1774533396853,-0.0460551,1.04562,-0.479953,25.1069,-2.80924,19.2822,0,0,3.31983,5
1774533396867,0.236778,1.04565,-0.492907,33.2822,-2.53436,22.3129,0,0,3.27404,3
1774533396880,-0.00439774,0.979314,-0.476091,33.4046,0.94646,19.0841,0,0,3.25842,3
1774533396893,0.0604821,1.01852,-0.471928,35.0076,2.3053,22.6793,0,0,3.27294,3
1774533396907,0.0617663,1.06172,-0.495338,36.0992,2.36641,23.7786,0,0,3.25348,3
1774533396920,0.0573774,1.37176,-0.500971,46.7249,2.87021,29.3586,0,0,3.29092,3
1774533396933,0.0673728,1.16037,-0.491708,58.9996,2.90076,25.8016,0,0,3.2573,3
1774533396947,0.040798,1.41796,-0.519991,72.595,1.50386,23.1222,0,0,3.4673,3
1774533396961,0.0578443,1.36407,-0.492703,91.1674,1.52672,26.0381,0,0,3.37642,5
1774533396974,0.0922508,1.28328,-0.485603,105.48,0.549648,22.1299,0,0,3.33113,5
1774533396988,0.11887,1.24003,-0.527302,116.984,-1.39689,18.7864,0,0,3.27163,5
1774533397001,0.128896,1.66949,-0.505637,135.984,-4.35106,23.1983,0,0,3.24798,5
1774533397014,0.198905,1.85504,-0.490738,172.075,-8.80903,21.71,0,0,3.27239,5
1774533397028,0.207267,1.94254,-0.479016,201.686,-13.267,28.2135,0,0,3.249,5
1774533397041,0.139228,2.04506,-0.446078,239.266,-16.1679,25.3741,0,0,3.29289,5
1774533397054,0.0776982,2.2876,-0.441411,250.129,-20.3816,34.5188,0,0,3.25229,5
1774533397068,0.00568717,2.42247,-0.43165,250.13,-18.8397,28.2445,0,0,3.28722,5
1774533397081,-0.0973092,2.38749,-0.427007,250.13,-11.6949,22.9467,0,0,3.26809,5
1774533397095,0.159899,2.35038,-0.383832,250.13,-12.3053,6.50431,0,0,3.24315,5
1774533397108,0.307958,2.03132,-0.388911,250.13,-7.35129,32.5946,0,0,3.27635,5
1774533397121,0.269082,2.50368,-0.39794,250.13,-17.2134,14.2983,0,0,3.27142,5
1774533397135,0.506843,2.45537,0.0578942,250.13,-14.5192,70.0212,0,0,3.28254,5
1774533397148,0.423179,2.05094,0.080056,250.13,-23.1906,134.624,0,0,3.26066,5
1774533397162,0.383584,2.05054,0.975424,250.13,-35.4042,175.938,0,0,3.31109,5
1774533397175,1.92546,-1.79889,1.95654,250.13,-90.8686,75.6061,0,0,3.26794,5
1774533397188,-0.328071,-3.84293,0.252435,159.43,-123.19,146.708,0,0,3.24446,5
1774533397202,-0.661532,-2.11989,0.246344,-184.417,-82.0699,70.2313,0,0,3.27559,5
1774533397215,-0.485283,1.28395,0.155364,-217.213,-65.1532,23.8793,0,0,3.25798,3
1774533397229,-0.0799947,1.44369,-0.135939,-175.543,-50.2218,-11.3654,0,0,3.28098,3
1774533397242,-0.170808,1.1102,-0.0220864,-133.696,-42.6185,-42.3884,0,0,3.2517,3
1774533397255,-0.283823,-0.208156,0.11461,-168.816,-28.3592,-42.7939,0,0,3.26007,3
1774533397269,-0.399786,-0.329469,0.283035,-246.898,-11.1761,-43.1527,0,0,3.27541,3
1774533397282,-0.231857,-0.12179,0.457101,-250.137,0.457666,-54.305,0,0,3.25204,3
1774533397296,-0.0168164,0.250605,0.470446,-250.137,2.83962,-49.9238,0,0,3.521,2
1774533397310,0.085835,0.747063,0.328511,-250.137,4.64117,-24.6725,0,0,3.72094,2
1774533397324,0.0391092,0.834629,0.172275,-250.137,11.6486,4.05257,0,0,3.276,2
1774533397337,-0.00922905,0.981055,0.07578,-250.137,20.5036,10.6181,0,0,3.28605,2
1774533397351,-0.0753734,1.14217,-0.093093,-250.137,28.2517,-1.36605,0,0,3.30068,2
1774533397364,-0.0808051,1.23355,-0.219112,-250.137,37.0226,-22.0452,0,0,3.267,2
1774533397378,3.39228,0.951941,0.0256344,-250.137,88.8992,-50.6785,0,0,3.82576,2
1774533397392,-0.324412,1.53555,-0.514597,-250.137,52.627,-53.7633,0,0,3.25722,2
1774533397405,0.0850402,1.77271,-0.445138,-250.137,75.2283,-46.1682,0,0,3.25896,2
1774533397418,0.0966681,1.55978,-0.499945,-250.137,87.5187,-38.1453,0,0,3.26759,3
1774533397432,0.2757,1.64152,-0.539755,-250.137,100.977,-36.8626,0,0,3.24135,3
1774533397445,0.439046,2.02623,-0.696621,-250.137,110.427,-30.4582,0,0,3.26554,3
1774533397458,0.755543,2.07222,-0.929699,-250.137,108.328,-12.6341,0,0,3.23852,3
1774533397474,0.961464,2.10544,-1.12261,-250.137,92.0845,24.2203,0,0,4.88144,3
1774533397487,0.858257,2.17474,-1.38499,-250.137,64.6802,51.0526,0,0,3.28961,3
1774533397501,0.477431,2.16334,-1.63598,-250.137,46.367,60.1524,0,0,3.98179,3
1774533397515,0.164863,2.17187,-1.89232,-221.894,37.6491,44.8631,0,0,3.29818,3
1774533397528,0.0438221,2.00261,-2.08428,-172.788,37.397,25.9624,0,0,3.24581,5
1774533397542,0.319549,1.38538,-2.10862,-136.36,27.9392,14.5423,0,0,3.2792,5
1774533397555,0.502015,1.33306,-2.33132,-103.97,3.45112,41.8236,0,0,3.26355,5
1774533397569,0.171961,1.44252,-2.41374,-46.0552,-16.9383,51.5417,0,0,3.28498,5
1774533397582,-0.385917,1.18336,-2.31382,7.90678,-17.916,36.7867,0,0,3.25796,5
1774533397597,-0.691101,1.04604,-2.08373,48.1133,-2.66458,-8.94519,0,0,4.75805,5
1774533397611,0.37418,3.99693,-0.233782,245.597,-7.32047,13.7474,0,0,3.27148,5
1774533397625,-1.06765,1.14104,-0.600952,250.13,-24.0758,-37.0977,0,0,3.89689,5
1774533397641,-0.0413085,0.493811,0.141104,247.45,-15.5957,-42.5876,0,0,3.30079,5
1774533397655,0.185564,1.20681,-0.04059,234.115,3.80094,-29.1149,0,0,3.76859,5
1774533397668,-0.146397,1.15508,-0.250767,248.977,4.47326,-24.5269,0,0,3.32155,5
1774533397682,0.317408,0.611871,-0.283902,203.94,-18.0757,-12.8706,0,0,3.25663,5
1774533397697,0.0500718,0.986198,-0.371495,160.948,-13.9238,5.5796,0,0,3.27626,5
1774533397710,-0.111655,0.803405,-0.51792,138.359,-7.28264,18.0607,0,0,3.24585,5
1774533397724,-0.072061,0.448841,-0.576358,89.8488,1.64859,8.81707,0,0,3.26842,5
1774533397737,0.0457807,0.463364,-0.499101,37.9176,3.98466,-3.65611,0,0,3.24279,2
1774533397750,0.0383375,1.02166,-0.43122,21.0768,8.61055,3.7326,0,0,3.24555,2
1774533397764,0.00174554,1.13587,-0.363105,35.0377,6.21381,8.19071,0,0,3.31548,2
1774533397777,0.0797561,0.892333,-0.357671,33.252,4.77104,9.57248,0,0,3.2637,2
1774533397791,0.0483712,1.01111,-0.335959,30.1375,6.88543,6.99244,0,0,3.25352,2
1774533397804,0.157606,1.02538,-0.403741,36.8777,3.90085,2.39708,0,0,3.23624,2
1774533397821,0.0643022,0.775884,-0.43454,21.5806,2.26722,-6.26692,0,0,3.3442,2
1774533397835,0.0710382,0.923437,-0.381157,13.5117,0.0306014,-10.5877,0,0,3.35552,5
1774533397848,0.0610451,0.993826,-0.401835,15.7251,-0.358767,-5.61847,0,0,3.58859,5
1774533397865,0.0412795,0.970726,-0.391368,11.7329,-0.389312,-5.79389,0,0,3.48224,5
1774533397881,0.0607715,1.05168,-0.389894,15.9999,-0.969448,-5.22139,0,0,5.53041,5
1774533397909,0.0454255,0.995418,-0.405502,16.0229,0.221338,-2.39703,0,0,7.30942,5
1774533397923,0.0622391,0.978289,-0.410883,16.7862,0.190841,-1.27484,0,0,3.51937,5
1774533397947,0.0315248,0.966077,-0.416011,14.0688,0.893109,3.83191,0,0,9.38264,5
1774533397964,0.0561278,0.978747,-0.400894,13.9237,0.396961,5.832,0,0,6.26433,5
1774533397977,0.0251774,0.92998,-0.43161,12.8016,0.419847,7.06867,0,0,3.38853,5
1774533397994,0.0656334,0.926029,-0.409934,10.2062,-0.465622,4.60313,0,0,3.77728,5
1774533398008,0.0732346,0.952366,-0.413327,11.2824,-1.10685,2.11458,0,0,3.63624,5
1774533398021,0.0915345,0.953612,-0.422842,12.6183,-1.05344,-0.366338,0,0,3.27924,5
1774533398034,0.0561877,0.911663,-0.414315,11.4428,-1.77097,-2.08392,0,0,3.27759,5
1774533398048,0.0651766,0.902841,-0.432111,9.16037,-2.69463,-4.43504,0,0,3.25531,5
1774533398061,0.0678684,0.913076,-0.428227,7.73287,-2.95419,-5.55722,0,0,3.25635,5
1774533398075,0.0649443,0.938451,-0.415784,6.41989,-4.1908,-6.32822,0,0,3.55561,5
1774533398088,0.0678682,0.940916,-0.437722,6.79388,-4.71754,-7.20608,0,0,3.26329,5
1774533398101,0.0593347,0.967015,-0.434086,7.25953,-5.65646,-8.06104,0,0,3.25559,5
1774533398115,0.0878621,0.966065,-0.43335,8.32058,-6.93126,-9.81674,0,0,3.25967,5
1774533398128,0.0237457,0.973381,-0.437496,10.4198,-7.58777,-10.1069,0,0,3.23337,5
1774533398141,0.0529493,0.957291,-0.43311,10.2977,-7.78625,-9.05347,0,0,3.25446,5
1774533398155,0.0283449,0.965812,-0.45091,10.1679,-7.90839,-7.88553,0,0,3.23429,5
1774533398168,-0.0260687,0.94387,-0.455318,10.4046,-6.52676,-3.34365,0,0,3.25352,5
1774533398181,-0.0361228,0.945555,-0.449957,10.1298,-4.14511,-0.0306337,0,0,3.28015,5
1774533398195,0.00581748,0.953605,-0.444829,8.6718,-2.45043,2.22894,0,0,3.24948,5
1774533398208,0.0619556,1.00898,-0.443849,10.9083,-3.31295,0.98477,0,0,3.24581,5
1774533398221,0.0973767,1.02464,-0.437994,13.7098,-3.92365,-1.00757,0,0,3.24598,5
1774533398235,0.0469254,1.04344,-0.472866,17.0075,-5.2595,0.312937,0,0,3.25242,3
1774533398248,0.0637039,1.06809,-0.473876,21.5189,-5.54961,3.37395,0,0,3.22902,3
1774533398261,-0.112861,1.23421,-0.486803,26.9769,-3.83975,16.3889,0,0,3.24765,3
1774533398275,0.139153,1.04096,-0.505109,37.2516,-6.29764,24.0456,0,0,3.23952,3
1774533398288,-0.0637621,1.09053,-0.508298,36,-1.58029,23.9237,0,0,3.27791,3
1774533398302,-0.0542088,1.20326,-0.516837,41.9922,2.58003,26.3587,0,0,3.25906,3
1774533398315,-0.0483457,1.4919,-0.497578,57.1141,4.54193,26.603,0,0,3.26755,3
1774533398328,0.0214147,1.35585,-0.518534,74.3354,5.76332,29.5801,0,0,3.27644,3
1774533398342,0.0519714,1.41937,-0.465141,92.1903,5.41222,28.542,0,0,3.25868,3
1774533398355,0.106635,1.35358,-0.491673,106.564,3.54204,25.855,0,0,3.418,3
1774533398369,0.0610807,1.294,-0.487309,124.267,2.49621,22.168,0,0,3.26346,5
1774533398382,0.159813,1.05712,-0.481207,136.053,-0.251826,14.3514,0,0,3.48285,5
1774533398395,0.136986,1.14127,-0.530468,134.092,-4.45789,13.9542,0,0,3.25368,5
1774533398409,0.186474,1.73817,-0.551737,162.9,-7.03809,11.0077,0,0,3.25237,5
1774533398422,0.330666,1.53707,-0.46615,190.556,-15.641,3.39717,0,0,3.27154,5
1774533398435,0.366907,1.43687,-0.535087,205.412,-24.5112,-0.740334,0,0,3.24691,5
1774533398449,0.331578,1.58725,-0.507108,226.251,-31.6028,-8.91579,0,0,3.25094,5
1774533398462,0.274471,1.9091,-0.578298,249.801,-37.1601,-7.03822,0,0,3.24172,5
1774533398475,0.0612482,1.89723,-0.541053,250.13,-35.8703,-9.99991,0,0,3.25322,5
1774533398489,-0.0287187,1.69673,-0.626867,250.13,-32.3665,-3.47348,0,0,3.26781,5
1774533398502,0.0777745,1.70653,-0.69939,250.13,-22.3514,9.72479,0,0,3.26167,5
1774533398516,0.117636,1.45435,-0.761169,250.13,-32.1905,-2.24392,0,0,3.31537,5
1774533398529,0.0676769,1.78141,-0.87196,250.13,-24.13,-13.45,0,0,3.35579,5
1774533398542,0.303963,1.18858,-0.736951,250.13,-15.756,20.2662,0,0,3.26009,5
1774533398556,0.354686,1.57042,-0.473408,250.13,-21.2441,63.6628,0,0,3.26218,5
1774533398569,0.490343,1.30203,-0.0502274,250.13,-37.0377,64.2137,0,0,3.27233,5
1774533398583,0.45243,1.29103,0.358478,250.13,-61.671,43.7334,0,0,3.27239,3
1774533398596,-0.0954,0.0925059,-0.462803,250.13,-52.2522,-3.8917,0,0,3.25261,3
1774533398609,-0.260821,-1.66548,-0.0531436,246.733,-39.6492,-22.2132,0,0,3.25118,3
1774533398623,-0.165622,-0.578478,-0.26395,146.102,-20.367,-51.4495,0,0,3.24592,3
1774533398636,-0.306012,-0.428373,-0.218795,93.9176,5.45724,-57.5647,0,0,3.24728,3
1774533398649,-0.242739,-0.683583,-0.0416808,14.1551,26.4116,-60.0076,0,0,3.22857,3
1774533398662,-0.125118,-0.666033,0.0470305,-57.2727,37.1981,-64.8472,0,0,3.26561,3
1774533398676,-0.049636,-0.416997,0.0573627,-121.281,38.4809,-59.8475,0,0,3.26794,3
1774533398689,-0.0254148,-0.366993,0.186395,-174.892,40.3282,-49.8782,0,0,3.34372,3
1774533398703,0.0760705,-0.61084,0.36847,-243.593,32.2293,-36.8096,0,0,3.2702,2
1774533398716,0.0973908,-0.590596,0.507186,-250.137,19.3057,-22.6111,0,0,3.25168,2
1774533398729,0.113997,-0.31668,0.600981,-250.137,6.16833,-11.3744,0,0,3.24992,2
1774533398743,0.200597,0.256751,0.58766,-250.137,-8.61788,-0.00797457,0,0,3.23787,2
1774533398756,0.26556,0.708289,0.470576,-250.137,-26.3201,15.9385,0,0,3.259,2
1774533398769,0.220504,1.26141,0.232416,-250.137,-37.45,43.816,0,0,3.24759,2
1774533398783,-0.0466082,1.16099,0.0351092,-250.137,-36.4809,65.1597,0,0,3.59285,5
1774533398796,-0.295894,1.09577,-0.0289887,-250.137,-25.8858,50.0386,0,0,3.24396,5
1774533398810,-0.488577,1.03912,-0.258072,-250.137,-8.92417,11.505,0,0,3.26242,5
1774533398823,-0.404137,1.18369,-0.410736,-250.137,7.59492,-17.9457,0,0,3.25828,5
1774533398836,-0.409175,1.83138,-0.697224,-250.137,26.5185,-18.8244,0,0,3.23428,5
1774533398850,-0.541616,2.00861,-0.983113,-250.137,57.6403,-13.8933,0,0,3.29148,5
1774533398863,-0.620527,1.6588,-1.03218,-250.137,96.6782,-19.6105,0,0,3.33892,5
1774533398877,-0.472804,1.5465,-1.01686,-250.137,128.175,-35.2514,0,0,3.29698,5
1774533398890,-0.235832,1.72565,-1.1705,-250.137,149.984,-54.3658,0,0,3.26991,5
1774533398904,0.179761,1.74241,-1.39309,-250.137,153.282,-60.0227,0,0,3.29198,5
1774533398917,0.627239,1.94584,-1.67282,-230.52,137.573,-54.2215,0,0,3.24785,5
1774533398930,0.940849,2.13848,-1.8809,-174.36,105.108,-42.3515,0,0,3.24765,5
1774533398944,1.08701,2.07111,-2.0011,-108.33,64.8409,-35.0689,0,0,3.26609,5
1774533398957,0.934966,1.24692,-1.91488,-70.9553,35.291,-30.6872,0,0,3.25239,5
1774533398970,0.851402,0.856591,-1.85967,-72.5038,13.1228,-13.2066,0,0,3.24304,5
1774533398984,0.736931,1.38107,-1.82889,-42.3978,-2.35068,25.7698,0,0,3.62267,5
1774533398997,-0.521692,2.62376,-3.53077,-74.0601,12.4041,99.5245,0,0,3.26311,3
1774533399011,-0.769528,1.46698,-2.18933,152.329,16.9693,27.7044,0,0,3.24009,3
1774533399024,0.0663037,-0.019755,-0.056574,106.253,-1.2819,60.7776,0,0,3.31874,3
1774533399038,0.660295,1.33141,0.050918,61.009,1.21367,16.757,0,0,3.27605,3
1774533399051,0.295287,1.50325,-0.0650697,127.342,-6.04558,-13.167,0,0,3.28128,3
1774533399064,-0.0365337,0.792946,-0.301278,120,-4.3741,-11.2214,0,0,3.28863,3
1774533399078,-0.00345102,0.964428,-0.294684,103.695,5.03025,0.373698,0,0,3.27707,5
1774533399091,0.208285,0.908991,-0.47004,87.5501,-2.99976,-0.557224,0,0,3.28741,5
1774533399104,-0.0358889,0.502603,-0.522409,53.9628,0.0304434,6.15247,0,0,3.27646,5
1774533399119,-0.00345037,0.897555,-0.466852,29.0389,-0.0228992,12.6792,0,0,3.97148,5
1774533399132,0.0324349,0.985752,-0.432895,28.9237,-0.854937,6.96964,0,0,3.27446,5
1774533399145,0.0875914,0.880964,-0.393594,19.3209,-0.404594,2.80929,0,0,3.25118,5
1774533399159,0.062525,0.832812,-0.4577,13.4735,1.16026,2.66413,0,0,3.28067,5
1774533399172,0.00176968,0.921054,-0.381912,-4.67884,-0.0839321,8.14487,0,0,3.24413,5
1774533399187,0.153169,1.11309,-0.358422,8.74769,0.267165,3.32076,0,0,3.66109,5
1774533399201,0.0577125,0.900603,-0.36352,5.88558,0.702277,3.93891,0,0,3.26115,5
1774533399215,0.0710316,1.01892,-0.348892,7.52667,0.732824,2.83973,0,0,4.62063,5
1774533399229,0.0847031,0.922947,-0.377901,7.66412,0.816791,1.33592,0,0,3.24718,5
1774533399242,0.0608149,0.976509,-0.370613,5.99242,1.05343,1.83968,0,0,3.25596,5
1774533399255,0.06323,0.96705,-0.36963,7.4198,1.32824,2.63356,0,0,3.24952,5
1774533399269,0.0607934,0.943871,-0.384507,5.97714,1.50381,3.25952,0,0,3.23754,5
1774533399282,0.0688396,0.944579,-0.37379,4.48096,1.29008,2.80917,0,0,3.24778,5
1774533399295,0.0693354,1.00824,-0.359145,5.49615,2.17555,2.87023,0,0,3.26931,5
1774533399309,0.0805552,0.955375,-0.375716,7.84726,0.961868,0.954256,0,0,3.26074,5
1774533399322,0.101054,0.947762,-0.391342,5.49625,0.465664,-1.05337,0,0,3.23815,5
1774533399335,0.0813185,0.976534,-0.389406,5.64122,0.0381808,-0.771001,0,0,3.25013,5
1774533399349,0.0712991,0.973148,-0.384039,5.80916,-0.122133,-1.26716,0,0,3.24676,5
1774533399366,0.0593381,0.943145,-0.395009,4.06875,-0.0381705,-0.282472,0,0,7.14326,5
1774533399379,0.0712771,0.981163,-0.381361,2.9924,0.770968,1.79383,0,0,3.32054,5
1774533399393,0.0742158,0.980713,-0.387201,3.8473,0.541992,1.82443,0,0,3.28002,5
1774533399406,0.0754382,0.968762,-0.383792,4.32823,0.580152,1.93129,0,0,3.27816,5
1774533399420,0.102756,0.968018,-0.38135,4.17558,0.450386,-0.0533756,0,0,3.26265,5
1774533399433,0.0930273,0.945579,-0.387933,3.8397,0.282448,-1.64881,0,0,3.30057,5
1774533399446,0.0961882,0.980434,-0.379159,3.50383,-0.54196,-3.58009,0,0,3.2452,5
1774533399460,0.0676555,0.985347,-0.392809,4.68699,-1.19845,-3.54962,0,0,3.24087,5
1774533399473,0.0622612,0.976327,-0.382579,4.06872,-1.71754,-2.82445,0,0,3.24872,5
1774533399487,0.0568901,0.985343,-0.389641,4.7328,-1.61069,-1.17562,0,0,3.281,5
1774533399500,0.061031,0.960474,-0.393307,3.96949,-1.24429,0.725134,0,0,3.27478,5
1774533399513,0.0681082,0.967766,-0.383555,3.87023,-1.43511,0.977092,0,0,3.23604,5
1774533399527,0.0651885,0.954603,-0.390374,3.66413,-1.25955,1.19083,0,0,3.2505,5
1774533399541,0.0742097,0.943614,-0.398186,2.35118,-1.38931,0.435137,0,0,4.66102,5
1774533399555,0.0715359,0.948969,-0.400876,2.37405,-1.48855,-0.587756,0,0,3.32892,5
1774533399568,0.0622651,0.926292,-0.40405,0.61074,-1.12215,-0.0229177,0,0,3.2803,5
1774533399582,0.0551829,0.94505,-0.396736,-1.11445,-1.08397,-0.183201,0,0,3.40707,5
1774533399595,0.0666389,0.961897,-0.390387,-1.08397,-1.1145,-0.175573,0,0,3.29585,5
1774533399609,0.0625041,0.942402,-0.400381,-0.824435,-1.44274,-0.51144,0,0,3.27239,5
1774533399622,0.072012,0.964821,-0.381854,-1.63356,-1.67175,-0.946552,0,0,3.28431,5
1774533399636,0.0654363,0.96338,-0.390128,-0.816818,-1.79389,-1.19083,0,0,3.35194,5
1774533399649,0.0795757,0.969232,-0.393307,-0.351159,-1.89313,-1.80914,0,0,3.29674,5
1774533399662,0.0571513,0.953141,-0.405749,-0.694646,-2.00763,-1.73283,0,0,3.27429,5
1774533399676,0.0646897,0.9641,-0.398445,-1.13739,-1.75573,-1.93129,0,0,3.32013,3
1774533399689,0.0827456,0.947039,-0.394779,-1.36641,-2.06106,-2.77097,0,0,3.27202,3
1774533399703,0.053496,0.964582,-0.38819,-1.89311,-1.69467,-2.25956,0,0,3.64809,3
1774533399717,0.0595643,0.958746,-0.387208,-1.46566,-1.83969,-2.09161,0,0,3.3012,3
1774533399730,0.0510339,0.971423,-0.393792,-1.97708,-1.53436,-0.992399,0,0,3.25978,3
1774533399744,0.056635,0.97607,-0.393311,-1.44276,-1.49618,-0.427498,0,0,3.28518,3
1774533399757,0.0624941,0.964855,-0.395993,-1.45801,-1.36642,-0.0610797,0,0,3.2678,3
1774533399771,0.0703047,0.966551,-0.39185,-1.34351,-1.77098,-0.47327,0,0,3.3405,3
1774533399784,0.06202,0.974845,-0.383553,-1.25954,-1.69466,-0.931284,0,0,3.26887,3
1774533399798,0.0705481,0.964854,-0.394032,-1.05344,-2.06869,-1.15267,0,0,3.83907,3
1774533399811,0.0561667,0.982648,-0.398433,-0.557267,-2.12214,-1.64121,0,0,3.29779,3
1774533399825,0.073469,0.953642,-0.392096,-1.03052,-2.43511,-1.90076,0,0,3.25731,3
1774533399838,0.0422675,0.975808,-0.384529,-1.1832,-2.18321,-1.33589,0,0,3.28722,3
1774533399852,0.0563824,0.946075,-0.386473,-1.82441,-2.09161,-0.679409,0,0,3.26463,3
1774533399865,0.0390798,0.978483,-0.381597,-2.81676,-2.2977,-0.129787,0,0,3.28792,3
1774533399879,0.0500379,0.998027,-0.397689,-0.397019,-1.48094,1.65643,0,0,3.26889,3
1774533399892,0.0500488,0.962438,-0.387217,-1.68698,-1.43512,2.57249,0,0,3.32083,3
1774533399906,0.059073,0.989231,-0.395256,-0.70232,-1.26718,2.55725,0,0,3.27955,3
1774533399919,0.0656672,0.969746,-0.381605,-0.870224,-1.74808,2.11452,0,0,3.67253,3
1774533399933,0.0598203,0.965093,-0.388909,-0.572528,-1.81679,2.2519,0,0,3.42609,3
1774533399946,0.0556682,0.965088,-0.390135,-0.786253,-1.66413,1.78627,0,0,3.26822,3
1774533399960,0.0571274,0.97021,-0.388429,-0.305358,-1.54962,1.58779,0,0,3.30311,3
1774533399973,0.0642019,0.973873,-0.382086,0.648826,-1.99235,0.656516,0,0,3.26341,3
1774533399987,0.059331,0.958024,-0.386714,0.664122,-2.16793,0.984723,0,0,3.2937,3
1774533400000,0.0659114,0.966544,-0.391353,0.877856,-2.01527,0.221397,0,0,3.31315,3
1774533400014,0.0581133,0.961187,-0.388918,1.37403,-1.96947,-0.381661,0,0,3.65585,3
1774533400027,0.0517642,0.954109,-0.380136,0.732844,-1.48093,0.0915889,0,0,3.27259,3
1774533400041,0.0578552,0.96654,-0.393054,1.21373,-1.68702,-0.381665,0,0,3.27246,3
1774533400054,0.0573735,0.960211,-0.385749,0.778639,-1.41986,-0.114512,0,0,3.27268,3
1774533400068,0.0583486,0.963132,-0.391596,1.06106,-1.47328,-0.625939,0,0,3.56042,3
1774533400082,0.057374,0.956306,-0.393309,0.893135,-1.45802,-0.290086,0,0,3.39272,3
1774533400095,0.0417636,0.966786,-0.383799,0.671762,-0.732846,0.396926,0,0,3.26718,3
1774533400109,0.0612598,0.974845,-0.390862,0.648856,-0.877858,0.458013,0,0,3.3225,3
1774533400122,0.0522551,0.96022,-0.394771,0.412221,-0.694662,0.893117,0,0,3.27526,3
1774533400135,0.0585874,0.959961,-0.390873,-0.274789,-0.77099,0.908396,0,0,3.28104,3
1774533400149,0.0646912,0.95679,-0.396723,-0.282443,-0.511458,0.480929,0,0,3.27272,3
1774533400162,0.0437221,0.947519,-0.396729,-0.992345,-0.480917,1.16028,0,0,3.25824,5
1774533400176,0.0629691,0.962144,-0.390143,-2.03814,-0.335882,0.984738,0,0,3.29652,5
1774533400189,0.0544519,0.966792,-0.392088,-0.763397,-0.305344,0.526731,0,0,3.30063,5
1774533400203,0.0681016,0.952895,-0.393553,-1.88546,-0.877845,0.39695,0,0,3.31837,5
1774533400216,0.0627495,0.978246,-0.381116,-1.46566,-0.870229,-0.0686883,0,0,3.32104,5
1774533400229,0.0605491,0.963638,-0.38964,-1.87785,-0.908396,0.190832,0,0,3.30926,5
1774533400243,0.0605469,0.984598,-0.394526,-1.80916,-0.900764,0.381674,0,0,3.28655,5
1774533400256,0.0559128,0.968766,-0.387946,-1.81679,-1.0458,0.435113,0,0,3.27066,5
1774533400270,0.0502986,0.978506,-0.391354,-1.65649,-1.0458,0.999983,0,0,3.27328,5
1774533400283,0.0563904,0.978516,-0.395504,-1.77862,-1.08397,1.90837,0,0,3.28505,5
1774533400297,0.0620061,0.98632,-0.388923,-1.73283,-1.1603,1.85496,0,0,3.326,5
1774533400310,0.0603044,0.983401,-0.390623,-1.19086,-1.42747,1.94656,0,0,3.35128,5
1774533400323,0.0617661,0.979984,-0.394771,-1.50381,-1.47328,2.8473,0,0,3.36241,5
1774533400337,0.0685967,0.967298,-0.381117,-2.61829,-1.97708,3.62593,0,0,3.27296,5
1774533400350,0.0625061,0.924115,-0.385981,-5.9083,-2.51907,4.06106,0,0,3.25652,5
1774533400364,0.0617683,0.974559,-0.390864,-6.4351,-2.35115,4.83204,0,0,3.27005,5
1774533400377,0.0588408,0.99095,-0.416722,-4.38937,-2.48091,6.3053,0,0,3.29255,3
1774533400390,0.116641,0.919017,-0.390651,-6.43505,-5.04572,6.10688,0,0,3.31004,3
1774533400404,0.179381,0.949189,-0.428917,-6.93892,-8.61821,3.80923,0,0,3.39531,3
1774533400419,1.12796,1.01751,-0.680413,-5.59546,-53.2811,25.8161,0,0,4.82574,3
1774533400433,0.69233,1.24879,-0.907244,6.83169,-107.021,39.595,0,0,3.39566,3
1774533400446,0.738479,0.762693,-0.832838,12.122,-145.846,64.0756,0,0,3.27383,3
1774533400459,0.634137,0.930009,-0.933981,7.54212,-184.319,63.7252,0,0,3.29963,3
1774533400473,0.607692,1.15798,-0.908229,15.4196,-214.549,50.0309,0,0,3.28281,3
1774533400486,0.466206,0.931867,-0.672599,32.5796,-234.999,43.2139,0,0,3.27381,3
1774533400500,0.545575,0.506772,-0.567244,11.5579,-250.137,56.4653,0,0,3.26859,3
1774533400513,0.610775,1.12536,-0.494214,14.435,-250.137,71.4576,0,0,3.34855,3
1774533400527,0.594743,0.852324,-0.395606,18.9083,-250.137,90.3277,0,0,3.27266,3
1774533400540,0.514728,0.964975,-0.315754,14.336,-250.137,103.893,0,0,3.33337,3
1774533400553,0.405383,0.982404,-0.253236,14.0763,-250.137,104.282,0,0,3.27855,3
1774533400567,0.314544,1.00071,-0.180736,16.0152,-250.137,94.4354,0,0,3.27768,3
1774533400585,0.228601,0.964148,-0.106763,15.0687,-250.137,81.9698,0,0,7.83787,3
1774533400598,0.14803,0.99972,-0.0891289,16.4122,-250.137,74.1987,0,0,3.51287,3
1774533400612,0.0659999,1.00341,-0.068624,19.893,-250.137,70.1223,0,0,3.28074,3
1774533400625,-0.00164141,0.983906,-0.0420188,21.0534,-250.137,68.3359,0,0,3.27426,3
1774533400639,0.00755917,0.946083,-0.0397971,18.8321,-250.137,67.0535,0,0,3.30374,3
1774533400652,0.0541527,0.996044,-0.0234538,17.7481,-250.137,65.6107,0,0,3.29356,4
1774533400666,0.158831,0.955119,-0.0190474,14.4199,-250.137,67.8015,0,0,3.30231,4
1774533400679,0.226495,1.05459,-0.019043,12.4199,-250.137,75.1906,0,0,3.30846,4
1774533400692,0.200709,1.03957,0.016566,13.3359,-250.137,83.3051,0,0,3.27348,4
1774533400706,0.145563,0.983211,0.0405034,7.78643,-250.137,83.5496,0,0,3.26444,4
1774533400719,0.0820947,1.07852,0.0644292,7.93893,-250.137,75.5804,0,0,3.28776,5
1774533400733,0.0256911,0.974225,0.11372,6.00006,-250.137,72.5955,0,0,3.314,5
1774533400746,0.0185618,0.980463,0.148647,-1.28222,-250.137,76.8701,0,0,3.275,5
1774533400760,0.0170913,0.906568,0.165267,-9.13717,-250.137,82.8471,0,0,3.29492,5
1774533400773,0.014407,1.00649,0.139674,-15.4578,-250.137,82.4275,0,0,3.33024,5
1774533400786,-0.0134,1.09366,0.0984299,-11.4887,-250.137,82.4046,0,0,3.28285,5
1774533400800,-0.0575731,1.02058,0.0425363,-10.5573,-236.016,87.3968,0,0,3.29215,1
1774533400813,-0.102494,1.09904,-0.0109329,-7.81688,-215.825,91.7709,0,0,3.2692,1
1774533400827,-0.170098,1.14571,-0.0643997,-0.267402,-192.047,93.7786,0,0,3.28087,1
1774533400840,-0.315529,1.06258,-0.116403,6.29751,-163.673,93.6031,0,0,3.3375,1
1774533400854,-0.389574,0.868114,-0.146454,-0.961614,-134.009,88.8475,0,0,3.3582,1
1774533400867,-0.503548,0.944992,-0.346968,-16.656,-94.2073,101.091,0,0,3.29783,1
1774533400880,-0.30513,1.84627,-1.00667,-5.24462,-62.0926,186.616,0,0,3.33761,1
1774533400894,-1.50149,0.699388,-0.38124,22.9305,14.929,68.9501,0,0,3.28137,1
1774533400907,1.26774,0.312154,-0.403298,-31.9602,25.931,67.1222,0,0,3.28244,1
1774533400921,-0.176048,2.09344,-0.193325,14.8841,-2.95333,8.82618,0,0,3.28802,1
1774533400934,0.315915,0.406227,-0.387501,13.5649,3.77842,5.73292,0,0,3.701,1
1774533400948,0.0676308,1.22209,-0.386476,-2.25907,4.58013,6.61829,0,0,3.33005,1
1774533400961,0.0883582,0.983637,-0.361353,19.2436,3.03821,1.6261,0,0,3.28483,1
1774533400975,0.0854521,0.9334,-0.382303,5.67216,0.809227,-0.312919,0,0,3.87979,2
1774533400989,0.0781323,0.948715,-0.409885,13.7173,1.32823,-2.80145,0,0,3.31292,2
1774533401002,0.0581255,0.852391,-0.391864,1.80952,0.267207,-0.771053,0,0,3.30613,2
1774533401016,0.0339597,0.96717,-0.384529,4.4274,0.48091,-0.236657,0,0,3.30455,2
1774533401029,0.0322283,0.869726,-0.409155,-1.88531,0.541983,3.3434,0,0,3.29781,2
1774533401043,0.0739329,1.00499,-0.395034,-1.36643,1.03815,3.77861,0,0,3.33083,2
1774533401057,0.0559262,0.961713,-0.3838,0.0381258,1.19847,4.48853,0,0,3.38991,2
1774533401070,0.0846881,0.962402,-0.395252,-0.931269,1.13741,3.63361,0,0,3.32441,2
1774533401084,0.0698391,0.972402,-0.388922,-0.648863,0.992371,2.52675,0,0,3.30709,5
1774533401098,0.065678,0.987046,-0.408672,0.732783,1.35113,1.22141,0,0,3.81541,5
1774533401111,0.0849417,0.943159,-0.392594,-0.877814,-0.702228,-1.70984,0,0,3.34817,5
1774533401125,0.0873999,1.00799,-0.392578,-0.0229264,-0.229022,-2.14503,0,0,3.29692,5
1774533401138,0.0798415,0.963911,-0.397212,-0.0458008,-1.24424,-2.32824,0,0,3.29813,5
1774533401152,0.0571516,1.0107,-0.395022,0.122132,-1.48091,-1.60308,0,0,3.32917,5
1774533401165,0.0702994,0.974401,-0.38941,1.30531,-1.90838,-1.17559,0,0,3.34939,5
1774533401179,0.0556787,0.989487,-0.391599,1.45801,-2.39693,-1.04581,0,0,3.29168,5
1774533401193,0.0556641,0.960722,-0.39526,2.61829,-1.74048,-0.396966,0,0,3.78548,5
1774533401206,0.0727369,0.941426,-0.395508,1.25958,-1.83206,-1.18318,0,0,3.30033,5
1774533401220,0.0503154,0.957747,-0.389654,0.763374,-1.79389,-1.23664,0,0,3.29591,5
1774533401233,0.0727315,0.950935,-0.396234,0.358791,-1.70229,-1.00001,0,0,3.30235,5
1774533401246,0.0727539,0.938733,-0.399411,-1.05339,-1.82442,-1.79387,0,0,3.28452,5
1774533401260,0.0676321,0.933599,-0.397219,-2.46561,-1.95419,-2.17556,0,0,3.31654,5
1774533401273,0.0761634,0.938228,-0.397461,-3.33585,-2.16793,-3.15264,0,0,3.29831,5
1774533401287,0.07105,0.924086,-0.39429,-5.22132,-2.35877,-3.98471,0,0,3.35041,5
1774533401300,0.0595818,0.959925,-0.389165,-5.93128,-2.28245,-4.4122,0,0,3.302,3
1774533401314,0.0646922,0.934352,-0.396721,-6.6412,-2.51908,-4.92365,0,0,3.60259,3
1774533401328,0.0722581,0.971399,-0.382095,-7.70989,-2.90075,-5.67937,0,0,3.29131,3
1774533401341,0.0495832,0.981191,-0.385739,-6.33592,-3.1145,-6.29006,0,0,3.29146,3
1774533401354,0.0429754,0.965836,-0.392084,-7.22898,-2.82444,-5.04584,0,0,3.32622,3
1774533401368,0.0337007,1.01387,-0.37331,-5.72524,-2.40459,-3.45043,0,0,3.29744,3
1774533401381,0.037106,1.00148,-0.374754,-4.32065,-1.90078,-1.50388,0,0,3.32541,3
1774533401395,0.0202805,0.985124,-0.380609,-3.35881,-1.29773,0.893058,0,0,3.29548,3
1774533401408,0.0375804,0.976571,-0.383542,-3.48855,-1.25954,2.73277,0,0,3.4607,3
1774533401422,0.0502803,0.981928,-0.375252,-2.77101,-1.18321,2.95419,0,0,3.2942,3
1774533401435,0.059561,0.985836,-0.387195,-2.58016,-1.22137,3.39693,0,0,3.3758,3
1774533401449,0.0605459,0.988035,-0.372817,-1.44278,-1.56488,3.33588,0,0,3.34859,3
1774533401462,0.0478642,0.962184,-0.382071,-1.58015,-1.38932,3.48091,0,0,3.32163,3
1774533401476,0.0507783,0.97728,-0.376958,-1.82442,-1.46565,3.96945,0,0,3.35024,3
1774533401489,0.0393181,0.964124,-0.373051,-1.49619,-1.07635,4.63357,0,0,3.30465,3
1774533401506,0.0819886,0.980452,-0.37573,-1.06872,-1.72517,3.66415,0,0,3.33557,3
1774533401519,0.0481295,0.94803,-0.372806,-1.45037,-1.55726,4.09159,0,0,3.29883,3
1774533401533,0.0702904,0.973119,-0.383534,-1.22901,-1.93129,2.40463,0,0,4.02192,3
1774533401547,0.0756782,0.948755,-0.375009,-1.92364,-1.771,2.09161,0,0,3.31609,3
1774533401560,0.0669033,0.952877,-0.374512,-2.6412,-2.22899,0.687065,0,0,3.26811,3
1774533401574,0.0600654,0.953856,-0.377926,-3.20609,-2.45038,-0.0686796,0,0,3.32533,3
1774533401587,0.0605464,0.956052,-0.369637,-3.41984,-2.84732,-0.770971,0,0,3.27918,3
1774533401601,0.0600591,0.953128,-0.373287,-4.64118,-3.2519,-0.793892,0,0,3.33202,3
1774533401614,0.0546929,0.970929,-0.373047,-4.61069,-3.00001,-0.85496,0,0,3.28009,3
1774533401629,0.0468828,0.948021,-0.383778,-5.80912,-2.82443,0.335842,0,0,4.91372,3
1774533401643,0.0334607,0.945559,-0.374033,-7.09156,-2.29773,1.88545,0,0,3.26681,3
1774533401657,0.0456421,0.953361,-0.371828,-8.20607,-2.29008,2.5954,0,0,3.93157,3
1774533401670,0.0729707,0.963613,-0.362802,-9.74041,-2.85494,3.39692,0,0,3.28367,3
1774533401684,0.0481205,1.0146,-0.363525,-8.03822,-2.68703,3.86258,0,0,3.32924,3
1774533401697,0.0412666,1.00489,-0.359623,-6.61073,-2.38169,4.23663,0,0,3.32918,3
1774533401711,0.0585765,1.0422,-0.359131,-4.48098,-2.51908,3.21377,0,0,3.34274,3
1774533401724,0.0634717,1.02053,-0.364984,-1.36651,-2.29008,0.809232,0,0,3.35357,3
1774533401738,0.0746958,1.02222,-0.354259,-0.0153077,-2.17558,-0.862545,0,0,3.33385,3
1774533401752,0.0825117,1.00514,-0.352785,2.48084,-2.00764,-3.0381,0,0,3.85746,3
1774533401765,0.0473984,0.987566,-0.361563,2.66412,-1.4962,-3.229,0,0,3.34128,3
1774533401779,0.0356563,0.995841,-0.367182,3.74806,-1.60305,-2.58781,0,0,3.36709,3
1774533401793,0.0507662,0.991459,-0.365968,4.54196,-1.38932,-1.34355,0,0,3.28802,3
1774533401806,0.0390742,1.00389,-0.357918,5.92362,-0.625977,0.801462,0,0,3.27842,3
1774533401820,0.0432088,1.00025,-0.366934,6.916,-0.916022,2.603,0,0,3.27611,3
1774533401833,0.0966263,0.989025,-0.365968,8.09157,-2.09157,3.57249,0,0,3.27539,3
1774533401847,0.0581439,1.00121,-0.364747,9.66407,-1.96184,4.02289,0,0,3.33326,3
1774533401860,0.101275,0.965368,-0.363283,9.57252,-2.67173,2.29013,0,0,3.25783,3
1774533401873,0.0581486,0.984112,-0.381817,10.5954,-3.75569,-0.908301,0,0,3.29218,3
1774533401887,0.15103,0.924376,-0.352812,9.74048,-6.1984,-2.4427,0,0,3.26431,3
1774533401900,0.2899,0.931877,-0.231079,6.98482,-11.6869,-2.35115,0,0,3.24913,3
1774533401913,0.441987,1.07456,-0.368515,10.3281,-22.2974,-2.39695,0,0,3.26474,3
1774533401927,1.57992,1.18105,-0.340116,11.4427,-70.4871,16.801,0,0,3.28367,3
1774533401940,1.48813,1.26066,-0.165945,24.5645,-133.326,78.0287,0,0,3.29641,3
1774533401954,1.16097,0.821728,-0.0826028,22.3207,-182.144,89.221,0,0,3.25679,3
1774533401967,0.823335,0.884703,-0.15325,3.16088,-218.113,98.9539,0,0,3.33583,3
1774533401981,0.71983,1.11183,-0.228197,1.74813,-244.137,110.984,0,0,3.29678,3
1774533401994,0.757287,1.07499,-0.242417,-0.717483,-250.137,119.229,0,0,3.28878,3
1774533402007,0.27075,0.650327,-0.112191,-17.4346,-250.137,97.6571,0,0,3.28487,3
1774533402021,0.117829,0.428444,-0.103036,-57.5484,-250.137,76.8174,0,0,3.26442,3
1774533402034,0.261087,1.36747,-0.204001,-53.6719,-250.137,80.3358,0,0,3.29944,3
1774533402048,0.330985,0.888418,-0.204101,-39.9164,-250.137,100.763,0,0,3.25781,3
1774533402061,0.288373,0.894769,-0.180687,-52.9843,-250.137,111.389,0,0,3.27202,3
1774533402074,0.202478,1.0538,-0.219688,-49.0459,-250.137,100.344,0,0,3.27018,3
1774533402088,0.154101,1.07932,-0.218019,-41.5422,-250.137,83.2753,0,0,3.24463,3
1774533402101,0.0989321,1.07861,-0.199725,-32.6415,-250.137,71.8477,0,0,3.27268,3
1774533402114,0.0222934,1.07739,-0.171659,-24.214,-250.137,64.8094,0,0,3.24748,3
1774533402128,-0.154852,1.15081,-0.164802,-13.9469,-250.137,59.6795,0,0,3.28878,3
1774533402142,-0.51868,1.13405,-0.1726,-2.90109,-249.588,54.4124,0,0,4.2062,3
1774533402156,-0.782207,1.05867,-0.224557,1.81665,-213.291,38.2906,0,0,3.27446,3
1774533402169,-0.770763,0.981522,-0.269486,1.18323,-172.803,19.741,0,0,3.27254,3
1774533402182,-0.58978,1.07632,-0.32514,5.10675,-137.207,10.1911,0,0,3.30122,1
1774533402196,-0.389604,1.0469,-0.330561,13.9921,-109.65,10.6336,0,0,3.26079,1
1774533402209,-0.247944,0.970047,-0.308128,16.1144,-89.8327,15.1296,0,0,3.23622,1
1774533402222,-0.162683,0.985336,-0.271277,17.2595,-76.7027,15.8549,0,0,3.26239,1
1774533402236,-0.137476,0.943645,-0.228314,17.687,-67.672,14.6107,0,0,3.28574,1
1774533402249,-0.133793,0.941408,-0.208272,14.9619,-59.4277,14.458,0,0,3.28959,1
1774533402262,-0.145496,0.926041,-0.190447,12.4199,-51.0384,13.9237,0,0,3.24979,1
1774533402276,-0.142581,0.937489,-0.169942,8.71767,-44.0842,9.30548,0,0,3.26498,1
1774533402289,-0.125993,0.938476,-0.138947,6.07642,-38.3284,2.54219,0,0,3.26574,1
1774533402303,-0.0550026,0.858234,-0.0969658,-0.679187,-33.4734,-5.18297,0,0,3.274,1
1774533402316,0.0492123,0.960591,-0.0688757,-6.20594,-30.855,-5.84731,0,0,3.26209,1
1774533402329,0.122729,0.946303,-0.046897,-8.48085,-29.6871,-0.39711,0,0,3.25207,1
1774533402343,0.166704,0.919704,-0.0388264,-15.8929,-29.0382,2.75563,0,0,3.28633,1
1774533402356,0.192601,0.989432,-0.0639398,-17.2366,-27.6565,8.48838,0,0,3.25015,1
1774533402369,0.169945,0.954625,-0.0939641,-20.3969,-24.023,18.4959,0,0,3.27185,1
1774533402383,0.0943138,1.03191,-0.132042,-19.1298,-16.4811,21.2213,0,0,3.26054,1
1774533402396,-0.633794,1.90343,-0.561339,-16.0383,-15.2901,-70.2644,0,0,3.24476,3
1774533402409,0.394481,0.0806784,-0.441038,1.27429,-18.9159,-24.467,0,0,3.26465,3
1774533402423,-0.730809,1.19201,-0.248971,-77.7915,-11.3361,20.2735,0,0,3.249,3
1774533402436,0.0200019,1.5353,-0.183415,9.39433,11.2436,0.825011,0,0,3.28537,3
1774533402450,-0.201683,0.561764,-0.265543,-7.15218,1.04611,-0.30531,0,0,3.2805,3
1774533402463,0.160527,1.262,-0.391476,-0.0612814,-3.36628,-1.41218,0,0,3.26818,3
1774533402476,0.0704025,0.79612,-0.385504,-0.229003,0.610568,3.0991,0,0,3.28624,3
1774533402490,0.0649469,1.14004,-0.36623,-2.04575,0.893121,-0.770876,0,0,3.41841,3
1774533402504,0.0371372,0.937946,-0.377674,5.86999,-0.603009,-3.78617,0,0,3.32409,2
1774533402517,0.0490604,0.978719,-0.38232,0.626112,-0.938921,-2.29012,0,0,3.25265,2
1774533402531,0.0605354,0.974613,-0.36891,3.91593,-0.648864,-2.59541,0,0,3.26939,2
1774533402544,0.0556689,1.00607,-0.374018,3.09926,-1.58012,-2.87785,0,0,3.32624,2
1774533402557,0.00932364,0.95391,-0.375487,4.91598,-1.70992,-1.77103,0,0,3.29515,2
1774533402571,0.0187894,0.939955,-0.387927,1.29782,-0.488586,1.70219,0,0,3.35211,2
1774533402584,0.00757956,0.964575,-0.376964,1.91601,-0.786251,3.31293,0,0,3.26904,5
1774533402598,0.00659278,0.937527,-0.380368,0.290125,0.633545,6.87776,0,0,3.26683,5
1774533402611,0.0570785,0.947988,-0.373054,-1.54193,0.832055,6.9313,0,0,3.268,5
1774533402624,0.0390805,0.952876,-0.384998,-2.29005,1.03816,6.51146,0,0,3.26531,5
1774533402638,0.0739398,0.957515,-0.370376,-3.21371,0.190865,3.74054,0,0,3.34115,5
1774533402651,0.0727551,0.955324,-0.382556,-3.68701,-0.015261,1.74052,0,0,3.33761,5
1774533402665,0.0634858,0.960444,-0.375251,-4.30532,-0.312968,0.847355,0,0,3.29183,5
1774533402678,0.0256725,0.9824,-0.384756,-4.03818,-0.358777,0.992362,0,0,3.30259,5
1774533402691,0.0329517,0.979739,-0.368912,-4.23664,-0.145045,1.5725,0,0,3.27028,5
1774533402705,0.0553975,0.994858,-0.372067,-3.35117,-0.679373,0.679416,0,0,3.26402,5
1774533402718,0.0229816,0.975361,-0.372314,-3.84731,-0.183221,2.82436,0,0,3.26709,5
1774533402731,0.0373392,0.995829,-0.360364,-3.59543,0.0839615,3.5267,0,0,3.26646,5
1774533402745,0.0624749,1.00195,-0.373522,-2.33592,-0.648833,2.62598,0,0,3.28063,5
1774533402758,0.0583537,0.962442,-0.379145,-2.69465,-0.343521,3.18319,0,0,3.26826,5
1774533402772,0.047862,1.00362,-0.365004,-2.07635,-0.671746,2.50384,0,0,3.27539,5
1774533402785,0.0427297,0.985126,-0.368649,-1.30537,-0.83969,2.86258,0,0,3.30066,5
1774533402798,0.0551634,0.998278,-0.369872,-0.381707,-1.05343,2.78626,0,0,3.26702,5
1774533402812,0.0456638,0.966097,-0.373288,-0.114512,-0.893135,3.00763,0,0,3.36428,5
1774533402825,0.0544346,0.978259,-0.359145,-0.618305,-0.427495,3.51907,0,0,3.28863,5
1774533402839,0.0644431,0.975589,-0.369131,0.335849,-0.465648,2.99238,0,0,3.36467,5
1774533402852,0.0507949,0.964123,-0.367433,-0.290058,-0.465649,3.03817,0,0,3.2857,5
1774533402866,0.0651712,0.982648,-0.369871,0.396926,-0.648849,1.6947,0,0,3.31478,5
1774533402879,0.0500639,0.963398,-0.378897,0.183213,-0.664122,1.61069,0,0,3.26622,5
1774533402892,0.0546829,0.979232,-0.365248,0.312973,-0.839689,1.13742,0,0,3.29431,5
1774533402906,0.0505412,0.957297,-0.374259,-0.152658,-0.763361,1.67937,0,0,3.29002,5
1774533402919,0.043708,0.968251,-0.372316,-1.19844,-0.572525,2.59539,0,0,3.26728,5
1774533402933,0.0493108,0.983383,-0.370119,-0.671772,-0.702286,3.29006,0,0,3.26533,5
1774533402946,0.0551699,0.984862,-0.369385,-0.290088,-0.61069,3.25954,0,0,3.31383,5
1774533402959,0.0556636,0.983888,-0.3628,0.511426,-0.717554,2.81681,0,0,3.29302,5
1774533402973,0.0542007,0.975838,-0.368159,0.35115,-0.412223,2.77099,0,0,3.26869,5
1774533402986,0.0705403,0.975098,-0.364018,0.488545,-0.709915,1.93132,0,0,3.26865,5
1774533403000,0.0520205,0.964122,-0.365233,0.0458148,-0.778624,1.6565,0,0,3.31783,5
1774533403013,0.0632212,0.976062,-0.369137,-0.396933,-0.603059,1.96182,0,0,3.27431,5
1774533403026,0.064208,0.959733,-0.368653,-0.603047,-0.778621,1.77863,0,0,3.27711,5
1774533403040,0.0639651,0.970692,-0.370604,-1.01525,-1.04579,1.35879,0,0,3.3118,5
1774533403053,0.0600625,0.984605,-0.364996,-0.488565,-1.2519,0.86261,0,0,3.28735,5
1774533403067,0.0663999,0.983887,-0.364259,0.603021,-1.64121,-0.541943,0,0,3.26205,5
1774533403080,0.0639673,0.978033,-0.364502,1.52669,-1.83206,-0.832052,0,0,3.31572,5
1774533403094,0.0590869,0.979979,-0.364258,2.19845,-1.62596,-1.51143,0,0,3.33224,5
1774533403107,0.049814,0.961932,-0.370355,1.81681,-1.29772,-1.09925,0,0,3.27296,5
1774533403120,0.0541948,0.988987,-0.363044,2.74806,-0.816808,-0.847336,0,0,3.26916,5
1774533403134,0.0427361,0.984136,-0.371817,3.54196,-0.549626,-0.564894,0,0,3.31918,5
1774533403147,0.0688216,1.03413,-0.358656,6.17549,-0.282451,-0.496185,0,0,3.30007,5
1774533403161,0.0603112,0.992229,-0.366447,8.09155,-0.274809,-0.297716,0,0,3.41367,5
1774533403174,0.0617661,1.04731,-0.371089,10.9083,-0.465643,-0.900745,0,0,3.2895,5
1774533403188,0.0720112,1.02858,-0.382557,14.3968,-0.595416,-0.93893,0,0,3.30541,5
1774533403201,0.0773872,1.06856,-0.343301,17.0534,0.282416,-0.694664,0,0,3.28061,5
1774533403214,0.00885752,1.10299,-0.38887,23.809,0.137409,0.954149,0,0,3.27702,5
1774533403228,0.044642,1.24546,-0.403794,29.4731,0.442739,8.62572,0,0,3.26654,5
1774533403241,0.440766,1.73364,-0.480148,28.1603,-14.5721,15.6486,0,0,3.27365,5
1774533403254,0.204826,2.10022,-0.336813,122.241,9.71683,55.0446,0,0,3.30255,5
1774533403268,-0.439786,1.66986,-0.364718,70.0397,-14.671,10.7342,0,0,3.33752,5
1774533403281,0.16224,2.4382,-0.340844,177.722,-9.06124,15.0762,0,0,3.31407,5
1774533403295,0.0838186,1.81825,-0.314236,181.84,-18.6867,18.0762,0,0,3.32,5
1774533403308,-0.00942833,1.61934,-0.335428,216.533,-15.7863,1.91652,0,0,3.27131,5
1774533403322,0.123646,1.71377,-0.313498,232.122,-15.2443,-4.93109,0,0,3.27265,5
1774533403335,0.152315,1.83606,-0.346403,250.129,-18.5572,-8.53424,0,0,3.28144,5
1774533403349,0.136978,1.43107,-0.362533,250.13,-18.458,-16.8471,0,0,3.28172,5
1774533403362,0.335495,1.23579,-0.728394,250.13,-20.5648,-11.9238,0,0,3.30229,5
1774533403375,-0.0855169,1.22316,-0.604372,241.046,-17.6566,-16.7479,0,0,3.26259,5
1774533403389,-0.212764,0.0856091,0.536702,242.183,-6.96979,-18.8244,0,0,3.27517,5
1774533403402,0.236124,-1.76646,1.47465,169.849,-9.65641,-45.1824,0,0,3.29044,5
1774533403416,-0.264393,-1.7905,0.215857,-66.9242,26.6707,-33.5576,0,0,3.26733,5
1774533403429,0.358509,1.45379,0.297526,-89.5642,18.6491,1.49513,0,0,3.26455,5
1774533403442,0.472786,1.1785,0.107612,-29.9636,4.74851,-0.961758,0,0,3.26683,3
1774533403456,0.208272,-0.296378,0.379611,-74.846,-5.15237,-9.74019,0,0,3.29837,3
1774533403469,0.140449,-0.0844402,0.410614,-150.815,-10.1144,-8.67942,0,0,3.26602,3
1774533403482,0.155015,0.641121,0.344548,-167.793,-13.3434,-11.4961,0,0,3.27661,3
1774533403496,0.135518,0.471361,0.318142,-187.656,-17.0075,-8.69474,0,0,3.30231,3
1774533403509,0.0647679,0.698747,0.296408,-203.61,-17.1603,-1.92387,0,0,3.28817,3
1774533403523,6.46387e-05,0.572148,0.309313,-220.916,-11.8246,7.16003,0,0,3.33215,3
1774533403536,-0.00609736,0.809089,0.287375,-241.984,-5.22157,11.3358,0,0,3.36998,3
1774533403550,-0.0522,0.929567,0.209794,-247.504,4.91573,7.336,0,0,3.33511,3
1774533403563,-0.0634653,0.959199,0.162889,-250.137,16.8699,4.10697,0,0,3.27563,3
1774533403577,-0.0261603,1.18117,0.0740633,-250.137,30.0988,4.88547,0,0,3.26681,3
1774533403593,0.0314366,1.12042,0.0490972,-250.137,47.9079,12.7402,0,0,3.29746,3
1774533403607,0.0927122,1.2828,0.00078069,-250.137,62.4423,22.7402,0,0,3.81178,3
1774533403621,0.111066,1.65344,-0.0990214,-250.137,74.2668,31.0303,0,0,3.29824,3
1774533403634,0.0240127,1.726,-0.162046,-250.137,87.45,37.351,0,0,3.27628,3
1774533403648,0.0144139,1.72168,-0.233327,-250.137,95.3356,29.5346,0,0,3.32496,3
1774533403663,0.14684,2.02119,-0.378517,-250.137,93.626,8.99298,0,0,3.26739,3
1774533403677,0.359895,2.04051,-0.544024,-247.252,81.3668,-8.83916,0,0,3.29615,3
1774533403690,0.641808,1.9159,-0.697357,-221.55,64.0234,-13.9769,0,0,3.28215,5
1774533403703,0.874036,1.78895,-0.832872,-193.871,41.1076,8.06804,0,0,3.31118,5
1774533403717,0.851097,1.68492,-0.937883,-163.619,15.413,49.6094,0,0,3.26961,5
1774533403730,0.556934,1.66652,-1.05847,-123.581,-9.67864,71.5261,0,0,3.29513,5
1774533403744,0.0612862,1.56212,-1.11762,-78.7571,-25.9384,54.9394,0,0,3.26291,5
1774533403757,-0.249445,1.17251,-1.04548,-47.7719,-30.0762,26.1306,0,0,3.26435,5
1774533403770,-0.164392,1.16578,-0.910535,-26.8938,-32.7709,2.67246,0,0,3.27826,5
1774533403784,0.0459325,1.10699,-0.65065,-2.37478,-40.2975,-10.366,0,0,3.25542,5
1774533403797,0.141018,0.988156,-0.367714,10.2134,-48.3127,-14.4808,0,0,3.28891,5
1774533403810,0.0855047,0.937551,-0.161583,16.4197,-48.5343,-11.4886,0,0,3.25848,5
1774533403824,-0.0379626,0.962621,-0.0706475,19.1984,-39.9621,-8.0459,0,0,3.28985,5
1774533403837,-0.101987,1.01045,-0.065191,27.7173,-26.26,-11.061,0,0,3.29855,5
1774533403851,-0.0900998,1.0166,-0.111282,37.4806,-15.7026,-14.7174,0,0,3.93991,5
1774533403865,0.349902,3.59069,-1.36593,55.0529,-57.5942,-74.5326,0,0,3.27079,5
1774533403878,0.370341,0.785029,-0.0762396,225.583,-57.3664,-119.579,0,0,3.25133,5
1774533403891,-0.035971,0.456383,0.302844,132.438,-77.9001,-76.8486,0,0,3.28754,3
1774533403905,-0.0883266,1.99407,0.203956,202.265,-55.0083,-65.4431,0,0,3.25891,3
1774533403918,-0.107403,0.586123,0.150444,198.221,-42.405,-41.8022,0,0,3.27711,3
1774533403931,-0.0696178,1.00251,0.00283301,178.97,-27.3516,-38.4199,0,0,3.26735,3
1774533403945,0.0238324,1.13439,-0.0607275,189.801,-19.0919,-28.2522,0,0,3.79692,3
1774533403959,-0.0782671,0.718189,-0.12079,168.359,-6.23703,-21.2063,0,0,3.27807,3
1774533403972,-0.0242239,0.913379,-0.182799,149.726,-2.4963,-16.7177,0,0,3.25581,3
1774533403986,-0.0351453,0.964792,-0.201154,143.153,-1.94658,-6.73312,0,0,3.28155,3
1774533403999,0.0180133,0.900211,-0.235561,130.863,-3.47324,1.3509,0,0,3.25355,3
1774533404012,-0.0321764,0.946975,-0.259741,113.168,-2.12218,19.717,0,0,3.27872,3
1774533404026,0.011431,0.99702,-0.271229,105.932,-6.64872,26.7708,0,0,3.28789,3
1774533404039,0.0180598,0.899024,-0.339775,93.0615,-6.09925,27.9618,0,0,3.33333,3
1774533404053,0.0514803,0.820635,-0.429354,70.5274,-2.91613,20.13,0,0,3.54404,3
1774533404067,0.0888299,0.680804,-0.472369,42.81,1.19072,6.13019,0,0,3.61235,3
1774533404080,0.114476,0.880416,-0.41534,26.0234,2.89308,-1.57992,0,0,3.28544,3
1774533404094,0.0569422,1.00915,-0.374552,26.9771,0.679456,-7.23647,0,0,3.25493,3
1774533404107,0.0985912,0.943181,-0.338415,25.2978,-0.412181,-12.7556,0,0,3.28257,3
1774533404121,0.0315611,0.937993,-0.348379,22.3131,2.41976,-14.9236,0,0,3.25441,3
1774533404134,0.0634447,0.930427,-0.37473,22.0992,2.38168,-17.0381,0,0,3.3387,3
1774533404148,0.0625009,0.830422,-0.41134,16.0841,1.81681,-13.5803,0,0,3.26339,3
1774533404162,-0.127252,0.931052,-0.373817,2.82483,3.5114,-4.52699,0,0,3.80668,5
1774533404175,0.0318235,1.05408,-0.361584,6.77087,1.62601,0.610533,0,0,3.27507,5
1774533404188,-0.01948,0.964933,-0.364011,7.01526,3.27476,8.96921,0,0,3.26229,5
1774533404202,0.0116876,0.967283,-0.364745,3.48102,3.42748,11.7327,0,0,3.29642,5
1774533404215,0.0751319,1.05241,-0.344503,6.69456,2.92368,12.4504,0,0,3.27689,5
1774533404229,0.0603175,0.995418,-0.361555,8.3969,2.87786,10.7176,0,0,3.29813,5
1774533404242,0.0564004,0.9978,-0.369865,7.65651,1.43516,7.60315,0,0,3.26428,5
1774533404256,0.0944444,0.974633,-0.356459,7.77862,0.0458432,4.19858,0,0,3.47779,5
1774533404269,0.0249717,0.998999,-0.36425,7.08399,0.0534349,5.58011,0,0,3.2718,5
1774533404283,0.0097808,1.04536,-0.354502,8.83201,-0.854935,6.80912,0,0,3.57363,5
1774533404296,0.0363504,0.996143,-0.363272,9.81676,-1.07633,8.99993,0,0,3.28452,5
1774533404310,0.0371086,0.989021,-0.376452,10.2824,-0.488567,10.0992,0,0,3.25743,5
1774533404323,0.0463775,0.960478,-0.368172,9.66414,-0.259549,10.1069,0,0,3.32344,5
1774533404337,0.0776055,0.983376,-0.37231,10.0992,-0.66411,7.27489,0,0,3.2572,5
1774533404350,0.0749538,0.953643,-0.378656,10.4198,-1.21372,4.21383,0,0,3.27663,5
1774533404364,0.0820242,0.937272,-0.376955,9.08401,-1.75571,1.74053,0,0,3.29954,5
1774533404378,0.0869092,0.952865,-0.378173,8.55727,-2.35113,-0.358716,0,0,3.82268,5
1774533404391,0.0642316,0.955808,-0.382808,7.78628,-3.01525,-1.07631,0,0,3.27018,5
1774533404405,0.0529897,0.949225,-0.374764,6.59546,-3.5954,-1.22137,0,0,3.24591,5
1774533404418,0.0622466,0.964828,-0.379878,6.28245,-3.44275,-1.51908,0,0,3.27744,5
1774533404431,0.0803042,0.961185,-0.388175,7.28241,-4.40455,-3.70222,0,0,3.25229,5
1774533404445,0.0739809,0.966547,-0.394281,7.21374,-4.85495,-5.18316,0,0,3.28409,5
1774533404458,0.0747063,0.982894,-0.381604,8.45034,-5.2748,-7.21368,0,0,3.30783,5
1774533404472,0.0583659,0.962911,-0.38647,9.21372,-5.30534,-8.32821,0,0,3.30113,5
1774533404485,0.0268869,0.975329,-0.403547,10.4274,-5.18321,-7.91604,0,0,3.29463,5
1774533404499,0.0222215,0.942172,-0.401857,10.2977,-4.98474,-6.19089,0,0,3.58833,5
1774533404512,0.031241,0.968236,-0.402831,10.1374,-5.06107,-5.0382,0,0,3.27318,5
1774533404526,0.0395425,0.962164,-0.414295,10.0534,-4.55727,-4.55727,0,0,3.24902,5
1774533404539,0.0441848,0.959719,-0.399429,10.2595,-3.54965,-4.22138,0,0,3.28907,5
1774533404553,0.0444333,0.986545,-0.411121,11.3969,-3.70229,-3.83207,0,0,3.29463,5
1774533404566,0.0356533,1.04828,-0.397475,14.0076,-3.70992,-3.59543,0,0,3.32811,5
1774533404579,0.0288154,1.01346,-0.426972,17.9846,-3.37406,-1.44281,0,0,3.26859,3
1774533404593,0.041979,1.0005,-0.412124,18.7023,-2.85498,1.22129,0,0,3.65024,3
1774533404607,0.04248,1.01659,-0.40528,19.5114,-2.64123,5.93879,0,0,3.27576,3
1774533404620,0.0383342,1.0627,-0.401615,21.687,-3.77859,7.6259,0,0,3.24792,3
1774533404633,-0.0280099,1.24445,-0.451122,33.2745,0.0304201,8.19846,0,0,3.28405,3
1774533404647,0.0387517,1.19463,-0.470684,35.0992,-0.999969,30.1062,0,0,3.2552,3
1774533404661,-0.0099611,1.27385,-0.469971,54.6101,4.77845,26.9696,0,0,3.73752,3
1774533404674,0.12828,1.02393,-0.468263,51.3741,-1.25936,35.1066,0,0,3.26944,3
1774533404688,-0.00474992,1.44953,-0.50631,58.3433,0.328197,32.1833,0,0,3.761,3
1774533404701,0.10292,1.56092,-0.446105,86.8694,-2.48083,13.1303,0,0,3.27517,3
1774533404715,0.0832716,1.20812,-0.468484,99.824,-4.02285,19.6868,0,0,3.25357,5
1774533404729,0.0959346,1.49215,-0.444848,115.992,-6.22894,11.7254,0,0,3.66148,5
1774533404742,0.124727,1.33707,-0.434824,136.778,-7.87781,6.21391,0,0,3.27587,5
1774533404756,0.0891469,1.1618,-0.449936,143.282,-10.5572,4.2138,0,0,3.29618,5
1774533404769,0.124964,1.53747,-0.510194,159.061,-11.6336,3.95421,0,0,3.27392,5
1774533404782,0.174511,1.93442,-0.469767,189.396,-15.4503,3.04583,0,0,3.3242,5
1774533404796,0.271875,1.70726,-0.420703,222.694,-21.0533,-5.28983,0,0,3.27307,5
1774533404810,0.37319,1.62337,-0.433825,240.748,-29.5188,-11.2288,0,0,3.58972,5
1774533404823,0.384998,1.89426,-0.429936,250.129,-37.9692,-19.015,0,0,3.27978,5
1774533404836,0.417936,1.95526,-0.486028,250.13,-46.5494,-23.1602,0,0,3.25848,5
1774533404850,0.412359,1.95483,-0.588033,250.13,-54.8394,-24.519,0,0,3.28752,5
1774533404863,0.397476,1.78215,-0.63789,250.13,-56.9541,-11.4584,0,0,3.57002,5
1774533404877,0.000884477,1.61077,-0.761351,250.13,-60.9388,-28.717,0,0,3.29441,3
1774533404890,0.188045,2.00156,-0.791474,250.13,-45.2295,2.29678,0,0,3.27974,3
1774533404904,0.522371,1.84683,-0.588094,250.13,-56.4806,31.6785,0,0,3.69542,3
1774533404917,0.240272,1.62254,-0.156925,250.13,-61.9998,41.16,0,0,3.27426,3
1774533404931,0.324623,1.82158,0.787387,250.13,-81.9918,27.9241,0,0,3.25437,3
1774533404944,-0.338449,1.11618,-0.310183,250.13,-68.489,-44.6314,0,0,3.27522,3
1774533404958,-0.0283859,-2.33542,0.524313,250.13,-57.3591,-54.6333,0,0,3.27598,3
1774533404971,-0.458799,-2.41398,0.312467,47.2046,-30.3749,-63.2364,0,0,3.27846,3
1774533404984,-0.0728953,-0.0143601,-0.0316387,-108.789,0.334957,-28.0392,0,0,3.23774,3
1774533404998,-0.0939731,1.11703,0.0226508,-86.0847,24.6863,-19.0766,0,0,3.59622,3
1774533405011,-0.0132642,0.0776985,0.0524605,-106.999,35.847,-10.8018,0,0,3.24915,3
1774533405025,-0.106596,0.136416,0.184438,-143.877,42.9158,0.175243,0,0,3.27574,3
1774533405038,-0.0976652,-0.217176,0.254081,-181.319,45.7556,-2.14497,0,0,3.26809,2
1774533405052,-0.0574133,-0.472889,0.419756,-249.212,42.4352,-15.6484,0,0,3.26898,2
1774533405065,0.0196984,0.0783068,0.431629,-250.137,36.3819,-23.015,0,0,3.27631,2
1774533405079,0.0666035,0.567626,0.326033,-250.137,29.672,-22.8168,0,0,3.46176,2
1774533405092,0.053236,0.593968,0.217394,-250.137,24.2597,-11.4126,0,0,3.30374,2
1774533405106,0.00639445,0.62375,0.168018,-250.137,22.8474,3.41177,0,0,3.27867,2
1774533405119,0.00781108,0.529147,0.160408,-250.137,21.855,11.4196,0,0,3.5927,2
1774533405133,0.0673234,0.705878,0.112353,-250.137,17.9085,7.6795,0,0,3.29185,2
1774533405146,0.108114,1.07117,-0.025741,-250.137,11.8933,-0.13717,0,0,3.25559,2
1774533405160,0.169128,1.36275,-0.170266,-250.137,5.35134,-2.32055,0,0,3.27567,5
1774533405173,0.200652,1.46694,-0.358942,-250.137,-0.702108,6.79362,0,0,3.28881,5
1774533405186,0.169465,1.69728,-0.496201,-250.137,-1.67173,19.3279,0,0,3.28415,5
1774533405200,0.0516314,1.71556,-0.532678,-250.137,4.77843,23.6106,0,0,3.26583,5
1774533405214,-0.0860441,1.59119,-0.541495,-250.137,21.8773,20.7405,0,0,3.81785,5
1774533405227,-0.111303,1.86325,-0.580527,-250.137,43.465,19.6642,0,0,3.27168,5
1774533405241,-0.00864747,2.01791,-0.653492,-250.137,64.7093,29.0074,0,0,3.34904,5
1774533405254,0.160476,2.13587,-0.760879,-250.137,75.7325,45.4881,0,0,3.27642,5
1774533405268,0.256008,2.26574,-0.891715,-250.137,77.458,54.473,0,0,3.26337,5
1774533405281,0.310492,2.29953,-1.08623,-250.137,71.4048,43.0767,0,0,3.29402,5
1774533405294,0.391033,2.2959,-1.35154,-250.137,61.1682,20.5503,0,0,3.26083,5
1774533405308,0.556719,2.15858,-1.56278,-250.137,48.9927,16.2673,0,0,3.31833,5
1774533405321,0.837122,1.87699,-1.67762,-208.536,29.1838,38.5795,0,0,3.26561,5
1774533405335,0.850816,1.78647,-1.80798,-154.177,3.38245,91.716,0,0,3.57905,5
1774533405348,0.26938,1.49321,-1.87664,-106.04,-12.801,139.144,0,0,3.26844,5
1774533405362,-0.574352,1.23317,-1.90817,-64.5661,-6.55744,127.726,0,0,3.24963,5
1774533405375,-0.975673,1.00267,-1.93186,-23.7646,11.572,42.9186,0,0,3.30941,5
1774533405389,-0.581205,1.01756,-1.8114,14.9454,20.4959,-51.0506,0,0,3.28122,5
1774533405402,-0.00814085,1.32684,-1.64104,63.3955,18.8397,-64.4118,0,0,3.28094,5
1774533405416,0.304131,1.08398,-1.3621,94.3807,7.50416,-38.9244,0,0,3.26568,5
1774533405429,0.0839602,3.99697,2.10445,195.898,-57.1507,32.4482,0,0,3.67781,5
1774533405443,0.858357,0.46032,0.550625,250.128,-46.466,-131.522,0,0,3.27096,5
1774533405456,-0.383769,0.939219,-0.107497,228.527,-30.26,-109.825,0,0,3.25131,5
1774533405470,-0.102088,1.47261,0.0091608,250.129,2.30437,-31.9336,0,0,3.26998,5
1774533405483,0.0369705,0.319999,-0.154622,229.756,11.3585,-33.8015,0,0,3.27165,5
1774533405496,0.0824741,1.13639,-0.234539,203.344,-8.74749,-30.6489,0,0,3.33978,5
1774533405510,0.109348,0.935991,-0.278277,196.542,-19.6409,-9.67239,0,0,3.26592,5
1774533405524,-0.0379388,0.652139,-0.344416,146.75,-16.7634,13.1138,0,0,3.7982,5
1774533405537,-0.0534513,0.941118,-0.370579,121.314,-13.6489,19.1143,0,0,3.27113,5
1774533405551,-0.117612,0.776288,-0.452555,95.8634,-1.71028,23.0228,0,0,3.25292,5
1774533405564,0.0811003,0.659297,-0.516782,53.2532,-0.816821,15.7865,0,0,3.29437,3
1774533405577,-0.0360158,0.916003,-0.421482,37.0997,5.05326,20.7556,0,0,3.26939,5
1774533405591,0.0789867,0.969185,-0.379924,36.2748,7.11444,22.2137,0,0,3.33465,5
1774533405605,0.104467,0.97436,-0.347201,34.168,7.59541,18.5726,0,0,3.50044,5
1774533405618,0.0876633,0.993145,-0.324973,36.3053,7.09162,18.9924,0,0,3.29513,5
1774533405631,0.188376,0.93097,-0.36056,36.4198,6.44277,12.8017,0,0,3.28235,5
1774533405645,0.0823813,0.840179,-0.432789,25.2751,5.70995,5.4048,0,0,3.62476,5
1774533405658,0.180078,0.882526,-0.395545,16.7407,-0.404397,-5.74776,0,0,3.28022,5
1774533405672,0.139201,0.984273,-0.386484,13.4581,-0.541981,-3.46572,0,0,3.26657,5
1774533405685,0.078186,0.928522,-0.394279,11.3436,-1.84729,-7.74033,0,0,3.28583,5
1774533405699,0.0554426,1.00871,-0.389409,7.90087,-1.19086,-1.98491,0,0,3.26213,5
1774533405712,0.0171281,0.995131,-0.388673,9.03813,-0.877872,2.05331,0,0,3.34587,5
1774533405726,0.0414796,0.979996,-0.397696,8.19087,0.0839406,6.63345,0,0,3.26996,5
1774533405740,0.0632107,0.970712,-0.383315,7.084,1.13737,11.2594,0,0,3.80048,5
1774533405753,0.0861587,0.973386,-0.379642,5.9237,1.55724,12.5877,0,0,3.28504,5
1774533405766,0.109108,0.945828,-0.368663,4.74049,0.778649,10.7863,0,0,3.27152,5
1774533405780,0.122301,0.966044,-0.36914,4.04582,-0.305311,6.97721,0,0,3.29278,5
1774533405793,0.112315,0.950455,-0.367921,3.67177,-0.900745,4.33596,0,0,3.26357,5
1774533405807,0.129621,0.948976,-0.371578,3.24429,-2.31293,1.25963,0,0,3.28817,5
1774533405820,0.114517,0.953853,-0.376216,3.09161,-2.91601,-0.152629,0,0,3.26083,5
1774533405834,0.108648,0.962882,-0.374026,2.8168,-3.14503,-1.53431,0,0,3.30411,5
1774533405847,0.10596,0.977768,-0.378657,4.40453,-3.58014,-3.77093,0,0,3.27057,5
1774533405861,0.0991279,0.94193,-0.37915,3.44278,-3.07635,-4.52669,0,0,3.59059,5
1774533405874,0.113999,0.991893,-0.380126,4.88545,-3.16794,-6.45796,0,0,3.28772,5
1774533405887,0.104014,0.953164,-0.386224,4.68703,-3.45037,-7.16028,0,0,3.28728,5
1774533405901,0.0749802,0.972149,-0.394279,4.37406,-3.41221,-6.25194,0,0,3.29074,5
1774533405914,0.101536,0.974607,-0.377458,4.67938,-3.83968,-6.72518,0,0,3.25613,5
1774533405928,0.0479051,0.982902,-0.3911,4.25955,-3.69466,-4.61075,0,0,3.28067,5
1774533405941,0.0851679,0.974374,-0.384284,4.59541,-3.79389,-4.06872,0,0,3.26854,5
1774533405955,0.0908147,0.970951,-0.389887,4.46565,-4.20609,-3.9084,0,0,3.69246,5
1774533405968,0.0732597,0.968264,-0.393307,4.89312,-3.76337,-3.48093,0,0,3.27261,5
1774533405982,0.0839737,0.96192,-0.375506,4.05346,-4.16793,-3.63358,0,0,3.28915,5
1774533405995,0.105691,0.991426,-0.379878,5.12211,-4.06107,-3.93892,0,0,3.27509,5
1774533406009,0.102054,1.01706,-0.370615,6.87018,-4.229,-4.7557,0,0,3.24967,3
1774533406022,0.0742465,1.0627,-0.398654,11.4502,-3.90077,-3.32829,0,0,3.28348,3
1774533406035,0.083243,1.02055,-0.384292,15.977,-5.0076,-3.81678,0,0,3.24905,3
1774533406049,0.0747156,1.03295,-0.403057,20.496,-3.9466,-0.58025,0,0,3.26313,3
1774533406062,0.0498295,1.05735,-0.446002,26.9311,-4.48853,4.4884,0,0,3.26198,3
1774533406075,0.0256589,1.10127,-0.398973,27.0763,-1.82451,12.4272,0,0,3.24359,3
1774533406090,-0.257773,1.71813,-0.40917,47.3582,2.09912,20.7402,0,0,4.72674,3
1774533406104,0.00705965,0.942669,-0.381132,67.236,-4.11432,30.8547,0,0,3.36437,3
1774533406117,-0.0443822,1.09116,-0.438419,51.9776,4.41959,31.1832,0,0,3.28978,3
1774533406131,-0.0700427,1.42301,-0.470427,60.6257,3.02294,37.3586,0,0,3.25835,3
1774533406144,0.0809039,1.40041,-0.446069,90.4724,4.77857,35.4428,0,0,3.26398,3
1774533406157,0.0764205,1.59453,-0.443606,105.969,2.47335,26.6797,0,0,3.25046,5
1774533406171,0.055197,1.44595,-0.465798,122.045,1.36645,30.4655,0,0,3.2372,5
1774533406184,0.108101,1.53141,-0.420212,146.259,1.89311,31.4275,0,0,3.24424,5
1774533406197,0.149129,1.73612,-0.449678,164.732,0.908426,36.7861,0,0,3.27168,5
1774533406211,0.232827,1.99169,-0.408245,202.915,-4.33572,39.5801,0,0,3.26072,5
1774533406224,0.215106,1.9039,-0.379911,232.434,-6.85489,48.8394,0,0,3.25296,5
1774533406237,0.194113,1.91552,-0.422809,250.129,-12.6181,50.0992,0,0,3.27483,5
1774533406251,0.126776,2.2665,-0.418949,250.13,-12.9542,53.809,0,0,3.24998,5
1774533406264,-0.0781644,2.28855,-0.453823,250.13,-9.72529,46.0231,0,0,3.49253,5
1774533406281,0.166748,2.34491,-0.337519,250.13,-7.45045,31.7256,0,0,3.31815,5
1774533406295,0.39845,2.11522,-0.496179,250.13,-10.0534,50.6712,0,0,3.27413,5
1774533406308,0.324049,2.12206,-0.573897,250.13,-26.3888,22.7413,0,0,3.31546,5
1774533406321,0.539824,2.46548,-0.366174,250.13,-17.214,57.5333,0,0,3.26509,5
1774533406337,0.381262,2.10339,0.200362,250.13,-20.5037,117.807,0,0,3.31083,5
1774533406351,0.874507,1.17305,1.95869,250.13,-42.4116,184.845,0,0,3.27491,5
1774533406367,1.58035,-2.91559,0.74145,237.313,-126.654,224.151,0,0,6.88479,5
1774533406381,-0.847184,-2.76285,-0.0960871,-94.1122,-73.7649,137.651,0,0,3.24272,5
1774533406394,-0.00572343,1.02746,0.108194,-200.035,-67.9696,63.8114,0,0,3.32802,5
1774533406408,-0.263658,1.69538,-0.112816,-139.712,-54.031,-32.6154,0,0,3.24344,5
1774533406421,-0.174649,1.14289,-0.0954763,-82.8109,-51.9085,-87.6701,0,0,3.25222,5
1774533406434,-0.338703,0.0111404,0.051367,-107.869,-45.7254,-88.8778,0,0,3.27959,4
1774533406448,-0.351794,-0.100962,0.248826,-156.632,-29.6493,-87.1298,0,0,3.25379,4
1774533406461,-0.293515,-0.00375922,0.317314,-199.419,-20.6186,-90.9236,0,0,3.2682,4
1774533406474,-0.166387,0.235113,0.321529,-232.472,-17.397,-93.8701,0,0,3.24848,2
1774533406488,-0.14187,0.410225,0.262266,-250.137,-14.4734,-74.0006,0,0,3.49613,2
1774533406501,-0.153065,0.496008,0.222696,-250.137,-9.32077,-48.413,0,0,3.2472,2
1774533406515,-0.155759,0.392194,0.203145,-250.137,-4.88563,-40.7254,0,0,3.26568,2
1774533406528,-0.167469,0.550867,0.179955,-250.137,-1.07645,-47.6639,0,0,3.25233,2
1774533406541,-0.0465076,0.745899,0.0923727,-250.137,-0.458034,-54.8089,0,0,3.24081,2
1774533406555,0.0606839,0.859993,0.031311,-250.137,-1.99995,-47.4888,0,0,3.25711,2
1774533406568,0.147618,0.980592,-0.046797,-250.137,-3.67171,-27.9395,0,0,3.2347,2
1774533406581,0.157705,1.07266,-0.091752,-250.137,-3.50382,-7.69526,0,0,3.25057,2
1774533406595,0.110155,1.29324,-0.201307,-250.137,0.305229,2.49588,0,0,3.26696,2
1774533406608,0.0405968,1.47467,-0.302389,-250.137,7.80894,1.31301,0,0,3.43642,2
1774533406623,-0.0275198,1.63339,-0.374928,-250.137,22.9614,0.343541,0,0,3.48391,2
1774533406637,-0.0380754,1.77037,-0.455486,-250.137,43.4727,3.88539,0,0,3.29279,2
1774533406650,-0.0217448,1.98514,-0.624099,-250.137,68.5031,4.44273,0,0,3.31568,2
1774533406664,0.137536,2.13388,-0.824019,-250.137,90.2284,6.65642,0,0,3.26318,3
1774533406677,0.392324,2.18842,-1.02324,-250.137,97.412,19.9996,0,0,3.31689,3
1774533406691,0.548184,2.28335,-1.31172,-250.137,91.0536,39.717,0,0,3.29343,3
1774533406705,0.429806,2.40418,-1.58737,-250.137,81.84,57.0605,0,0,3.29841,3
1774533406718,0.195059,2.32503,-1.82447,-250.137,78.5574,52.5192,0,0,3.25846,3
1774533406731,0.225555,2.14544,-2.05738,-217.879,72.8093,15.5355,0,0,3.28989,3
1774533406745,0.9024,1.76552,-2.18127,-161.567,42.978,-18.5104,0,0,3.28241,3
1774533406759,1.14136,1.4627,-2.39334,-115.375,-1.71622,25.9758,0,0,3.7112,3
1774533406772,0.636978,1.47118,-2.35673,-57.5361,-34.7013,79.0747,0,0,3.27128,3
1774533406786,-0.100582,1.27461,-2.23547,-6.32978,-47.3126,76.5421,0,0,3.30552,3
1774533406799,-0.653256,1.11783,-2.05487,37.6628,-37.6339,10.9867,0,0,3.31057,3
1774533406812,-0.537225,1.37572,-1.64884,81.1972,-24.8859,-65.6771,0,0,3.28842,3
1774533406826,-0.0471205,3.99726,0.873945,250.125,-60.1745,71.2554,0,0,3.3863,3
1774533406839,0.279947,0.327641,0.0194084,250.13,-55.9162,-74.2017,0,0,3.29033,5
1774533406853,-0.55922,0.567144,0.0134337,216.803,-22.7262,-63.8171,0,0,3.81802,3
1774533406867,0.247241,1.64272,0.0592804,246.106,-5.85547,-8.70394,0,0,3.29366,3
1774533406880,0.0229292,0.610894,-0.0592078,241.145,-0.832212,-30.1902,0,0,3.25394,3
1774533406893,0.0783138,0.856932,-0.241029,200.154,-20.7017,-20.3972,0,0,3.29846,3
1774533406907,0.0800764,0.967663,-0.260479,189.153,-29.6486,-4.26003,0,0,3.25057,3
1774533406920,-0.0879669,0.734852,-0.330984,153.421,-20.2751,13.1216,0,0,3.293,3
1774533406934,0.0157655,0.903884,-0.391297,127.978,-12.672,10.5344,0,0,3.25744,3
1774533406947,-0.0355932,0.751861,-0.437698,105.192,-2.48122,9.20615,0,0,3.31139,3
1774533406961,0.0826456,0.552689,-0.445549,65.5279,-1.00768,2.11472,0,0,3.26789,2
1774533406974,-0.0735744,0.793948,-0.431411,33.0162,3.44261,6.03805,0,0,3.59652,2
1774533406988,0.0687055,1.12272,-0.350667,36.3892,2.01531,13.8013,0,0,3.28059,2
1774533407001,-0.00115092,0.986952,-0.374,42.9158,3.48851,18.2365,0,0,3.27446,2
1774533407014,0.0875579,0.907794,-0.447924,37.3818,4.48852,19.2366,0,0,3.29054,2
1774533407028,0.116914,0.808693,-0.500436,31.6414,3.57255,12.6185,0,0,3.25552,2
1774533407041,0.0581642,0.719084,-0.403661,9.09228,3.63359,5.73303,0,0,3.25961,2
1774533407055,0.126641,1.04874,-0.393077,8.19087,2.61835,6.41983,0,0,3.26333,5
1774533407068,-0.0135318,0.94566,-0.391115,7.53437,4.26713,11.1449,0,0,3.25646,5
1774533407081,0.163154,1.02751,-0.37526,7.83969,1.37413,5.86275,0,0,3.268,5
1774533407095,0.0733319,0.996613,-0.369391,9.06867,1.74808,8.1526,0,0,3.27252,5
1774533407108,0.0834859,0.9739,-0.402799,9.74044,0.809188,4.74056,0,0,3.28278,5
1774533407121,0.0613015,0.979243,-0.386979,7.83212,0.900761,8.28234,0,0,3.27531,5
1774533407136,0.0812789,1.02632,-0.373305,10.2289,0.816796,9.95415,0,0,3.43778,5
1774533407150,0.0873962,0.93515,-0.401095,9.77864,0.572526,9.99237,0,0,3.34859,5
1774533407163,0.0766709,0.947254,-0.398928,6.61078,0.671753,10.8855,0,0,3.27822,5
1774533407177,0.142268,0.963851,-0.391853,8.13736,-0.824383,6.91615,0,0,3.34846,5
1774533407190,0.117944,0.896308,-0.400138,4.39706,-0.572527,4.83976,0,0,3.24139,5
1774533407203,0.091823,0.988677,-0.404537,3.90078,-0.73282,3.10692,0,0,3.27948,5
1774533407217,0.098626,0.934868,-0.395273,4.72517,-1.45036,1.22143,0,0,3.23983,5
1774533407230,0.103511,0.948229,-0.405263,2.37412,-1.78625,1.45037,0,0,3.25646,5
1774533407243,0.0983938,0.959705,-0.402347,3.05341,-1.66413,1.80915,0,0,3.24133,5
1774533407257,0.0771696,0.938254,-0.401612,0.160392,-1.87786,2.03816,0,0,3.25178,5
1774533407270,0.0920262,0.977012,-0.392587,1.75568,-1.6107,2.63357,0,0,3.24485,5
1774533407283,0.0939922,0.952173,-0.3877,0.847355,-2.06869,2.76335,0,0,3.23809,5
1774533407297,0.116189,0.964343,-0.393061,1.3893,-2.2748,0.786319,0,0,3.24413,5
1774533407310,0.123284,0.96216,-0.399164,1.89311,-3.09158,-1.98465,0,0,3.36737,5
1774533407324,0.115242,0.950695,-0.401609,2.0229,-4.16791,-5.17548,0,0,3.32822,5
1774533407337,0.1106,0.968976,-0.395026,2.06107,-4.40457,-7.17551,0,0,3.25239,5
1774533407352,0.0747429,0.961677,-0.385751,2.4809,-4.08398,-8.24424,0,0,4.75083,5
1774533407365,0.0710486,0.971914,-0.401352,3.22899,-4.1145,-7.47331,0,0,3.24039,5
1774533407379,0.0812886,0.980216,-0.399172,5.17551,-3.73284,-7.84732,0,0,3.69068,5
1774533407392,0.0759331,0.970469,-0.400146,5.50381,-3.19849,-7.31299,0,0,3.26935,5
1774533407406,0.0881226,0.98119,-0.398195,6.90072,-2.4962,-7.08398,0,0,3.26368,5
1774533407419,0.0705742,0.977787,-0.417217,8.89307,-2.29772,-7.47327,0,0,3.28035,5
1774533407432,0.0551911,0.986807,-0.425285,9.7557,-2.70228,-5.77868,0,0,3.25707,5
1774533407446,0.085419,0.995841,-0.397489,10.6641,-2.02292,-3.82449,0,0,3.30279,5
1774533407459,0.0344747,1.00073,-0.416241,11.603,-2.31297,-0.160415,0,0,3.27496,5
1774533407473,0.0449114,1.00024,-0.418943,10.5725,-3.03815,3.97698,0,0,3.29181,3
1774533407486,0.0912623,1.06366,-0.41358,16.7403,-2.89313,4.229,0,0,3.26531,3
1774533407500,0.0715529,1.01348,-0.412111,18.9923,-1.80156,7.15258,0,0,3.71157,3
1774533407513,0.1308,1.08343,-0.416743,21.4121,-4.36634,6.09927,0,0,3.27805,3
1774533407527,0.167932,1.05837,-0.451138,25.9693,-5.53432,9.29761,0,0,3.25863,3
1774533407540,0.185529,1.34322,-0.437758,32.5189,-10.8014,-0.198188,0,0,3.29361,3
1774533407553,0.0765249,1.07644,-0.467012,64.2739,-6.80928,13.2439,0,0,3.25589,3
1774533407567,0.138366,0.919834,-0.376067,48.2371,-7.6183,18.2365,0,0,3.28148,3
1774533407580,0.0201376,1.26772,-0.547436,51.1144,-4.45811,19.4274,0,0,3.26489,5
1774533407594,0.00514193,1.7083,-0.510047,78.503,-4.99998,29.8394,0,0,3.69089,5
1774533407607,-0.0207261,1.58777,-0.466352,95.4422,-2.02299,15.8554,0,0,3.27587,5
1774533407621,0.0319298,1.39521,-0.472162,113.641,-3.33584,25.0455,0,0,3.24515,5
1774533407634,-0.0558205,1.50746,-0.478997,133.183,1.22124,26.2977,0,0,3.28533,5
1774533407647,0.20872,1.33026,-0.423151,160.007,-0.648799,18.6949,0,0,3.27878,5
1774533407661,0.1724,1.30569,-0.455046,155.26,-3.44266,20.3587,0,0,3.33915,5
1774533407674,0.19529,2.33296,-0.475078,196.632,-7.60293,15.1223,0,0,3.27915,5
1774533407688,0.31092,2.26423,-0.380222,250.128,-16.2211,11.3742,0,0,3.70281,5
1774533407704,0.349327,1.97636,-0.370127,250.13,-28.4195,10.5573,0,0,3.33198,5
1774533407717,0.418144,2.38607,-0.362556,250.13,-39.9386,2.48879,0,0,3.32052,5
1774533407733,0.199437,2.41086,-0.49718,250.13,-42.1297,-5.33564,0,0,3.2838,5
1774533407746,0.196292,1.79285,-0.427072,250.13,-42.0382,8.40417,0,0,3.25033,5
1774533407760,0.0526337,2.00296,-0.538219,250.13,-40.397,-16.6023,0,0,3.27846,5
1774533407773,0.121513,2.08342,-0.350773,250.13,-27.6874,-38.3658,0,0,3.24985,5
1774533407787,0.55767,2.00423,-0.146444,250.13,-30.4427,-7.33681,0,0,3.2937,5
1774533407800,0.30055,1.9983,0.285213,250.13,-28.2825,26.3425,0,0,3.25357,5
1774533407813,0.256392,1.73415,0.857826,250.13,-37.5035,23.2902,0,0,3.30763,5
1774533407827,1.44608,1.28024,0.822545,250.13,-92.693,-10.228,0,0,3.34155,5
1774533407841,0.629478,-3.26743,1.30299,250.13,-110.488,-88.9518,0,0,3.72402,3
1774533407854,0.0491637,-3.66098,0.46568,-5.96942,-116.641,-45.6502,0,0,3.28098,3
1774533407867,0.0880959,-0.764368,0.476796,-250.13,-96.5197,26.4024,0,0,3.26161,3
1774533407881,-0.0899101,1.24238,0.297298,-250.137,-72.932,28.603,0,0,3.29931,3
1774533407894,0.0911277,1.15073,0.302973,-238.642,-64.8323,42.4805,0,0,3.25161,3
1774533407908,-0.338682,-0.059338,0.295905,-250.137,-37.8329,36.3819,0,0,3.80691,3
1774533407921,-0.548862,-0.0737161,0.382726,-250.137,-11.5657,15.8403,0,0,3.26478,3
1774533407935,-0.392978,0.52211,0.366959,-250.137,9.38105,-24.9682,0,0,3.71718,3
1774533407949,-0.178925,0.749041,0.299384,-250.137,19.3127,-43.6788,0,0,3.27226,3
1774533407962,0.0242111,1.04414,0.220294,-250.137,23.6487,-39.5192,0,0,3.24465,3
1774533407975,0.161484,1.0198,0.102413,-250.137,22.6565,-22.886,0,0,3.28054,3
1774533407989,0.232351,1.09855,0.0452231,-250.137,20.023,-2.38229,0,0,3.26826,3
1774533408002,0.238031,1.03132,-0.0055645,-250.137,18.168,15.7017,0,0,3.34861,3
1774533408016,0.231452,1.32929,-0.0978082,-250.137,16.8321,27.0455,0,0,3.27392,3
1774533408029,0.153886,1.71251,-0.329846,-250.137,18.0305,23.3589,0,0,3.64992,3
1774533408043,0.00722659,1.78338,-0.455685,-250.137,23.7937,7.44323,0,0,3.26804,3
1774533408056,-0.0438942,1.64223,-0.415324,-250.137,36.3813,-6.62553,0,0,3.25396,3
1774533408069,0.0367846,1.61355,-0.395284,-250.137,51.9079,-6.94656,0,0,3.27548,3
1774533408083,0.181984,1.85742,-0.455506,-250.137,65.6561,4.73247,0,0,3.2533,5
1774533408096,0.364076,2.02156,-0.562149,-250.137,74.4043,20.8239,0,0,3.3045,5
1774533408110,0.517181,2.11856,-0.729325,-250.137,73.3283,35.3125,0,0,3.2885,5
1774533408123,0.657818,2.18499,-0.993632,-250.137,60.7943,50.6866,0,0,3.71663,5
1774533408137,0.600643,2.26969,-1.26804,-250.137,42.2983,73.5566,0,0,3.27817,5
1774533408150,0.307422,2.27636,-1.53318,-250.137,29.1225,93.9078,0,0,3.24483,5
1774533408164,0.00201409,2.10979,-1.81515,-250.137,25.6871,101.389,0,0,3.3132,5
1774533408177,0.0229283,1.98962,-2.03006,-200.925,19.9391,70.749,0,0,3.43074,5
1774533408191,0.267334,1.55585,-2.31588,-149.551,-1.56424,39.2605,0,0,3.29629,5
1774533408204,0.105386,1.49908,-2.46177,-98.8946,-21.633,41.916,0,0,3.27402,5
1774533408217,-0.236963,1.29586,-2.4285,-40.0781,-28.8929,53.6714,0,0,3.30902,5
1774533408231,-0.686319,1.04932,-2.2953,5.85358,-20.0919,32.1839,0,0,3.27681,5
1774533408245,-0.86408,1.04151,-2.1159,46.3805,-0.24487,-22.8915,0,0,3.59059,5
1774533408258,-0.419633,1.6432,-1.545,50.0839,44.4261,-115.768,0,0,3.28066,5
1774533408271,0.43323,3.99753,2.22475,250.124,-22.311,-29.5446,0,0,3.25533,5
1774533408285,-0.186149,0.154962,0.956833,250.13,-48.816,-51.4421,0,0,3.31,5
1774533408298,-0.701146,0.416487,0.22095,250.13,-0.856401,-84.1288,0,0,3.25987,5
1774533408311,0.59636,1.33331,0.0133909,245.542,6.39673,-28.4902,0,0,3.27978,5
1774533408325,-0.351836,0.971309,-0.245591,250.13,19.6332,-42.5874,0,0,3.27165,5
1774533408339,-0.078886,0.633638,-0.333408,199.681,-7.2511,-8.43614,0,0,3.80498,5
1774533408352,0.0252866,0.899637,-0.454469,162.513,-11.4732,10.1979,0,0,3.28637,5
1774533408365,-0.158508,0.74771,-0.487516,131.131,-7.336,26.9995,0,0,3.26624,5
1774533408379,0.120571,0.534637,-0.49389,84.7571,-2.41999,17.1453,0,0,3.28176,5
1774533408392,-0.172803,0.550521,-0.549749,32.1313,10.1141,11.4353,0,0,3.25591,2
1774533408406,0.0990936,1.20321,-0.395174,31.1222,9.9542,26.3278,0,0,3.29722,2
1774533408419,0.0730241,0.995081,-0.335509,42.1065,7.04589,27.0992,0,0,3.27354,2
1774533408433,0.0651934,0.937314,-0.385448,37.5879,9.64114,27.1298,0,0,3.614,2
1774533408446,0.219328,0.865306,-0.439399,35.0459,7.90845,12.2524,0,0,3.27761,2
1774533408460,0.138752,0.803041,-0.444819,22.0691,6.80156,2.55754,0,0,3.25239,5
1774533408473,0.12916,0.936146,-0.401167,14.0537,2.27494,-5.28221,0,0,3.28635,5
1774533408486,0.0954926,1.01433,-0.382099,15.7404,0.404636,-6.33585,0,0,3.25555,5
1774533408500,0.0713132,0.890261,-0.384519,10.6643,-1.40453,-7.29005,0,0,3.36878,5
1774533408513,0.0971422,1.03867,-0.392082,10.2672,-2.29005,-6.98474,0,0,3.26561,5
1774533408527,0.042535,0.947845,-0.394773,10.5801,-2.11451,-6.07636,0,0,3.4742,5
1774533408540,0.0427244,1.00361,-0.385507,8.51151,-1.46567,-4.20616,0,0,3.27276,5
1774533408554,0.0649192,0.986833,-0.402571,11.3969,-1.39695,-2.82447,0,0,3.48278,5
1774533408567,0.0337226,0.942427,-0.412832,7.5192,-0.236676,1.45025,0,0,3.27717,5
1774533408581,0.0680809,0.988723,-0.385769,8.62592,-0.145041,3.02285,0,0,3.24407,5
1774533408594,0.0627495,0.92999,-0.394523,6.67181,0.221363,3.5267,0,0,3.27911,5
1774533408608,0.0793291,0.956029,-0.393068,5.42752,-0.526695,4.14502,0,0,3.24105,5
1774533408621,0.0537365,0.945811,-0.403554,4.34354,-0.931286,4.58014,0,0,3.30489,5
1774533408634,0.0863932,0.966044,-0.393809,3.28247,-2.04577,4.22902,0,0,3.27798,5
1774533408648,0.0520363,0.967528,-0.465505,2.93131,-2.78624,2.96187,0,0,3.81148,5
1774533408665,0.0959034,0.950213,-0.379724,1.46569,-2.65649,2.16796,0,0,6.07485,5
1774533408678,0.0922888,0.978487,-0.392321,2.80149,-3.37402,0.992402,0,0,3.25681,5
1774533408691,0.0993582,0.93559,-0.395261,2.05346,-3.20611,-0.618272,0,0,3.30683,5
1774533408705,0.0815607,0.962619,-0.381118,1.92367,-3.32061,-2.12209,0,0,3.30448,5
1774533408719,0.0742261,0.96289,-0.390372,2.51143,-3.47328,-3.29767,0,0,3.38391,5
1774533408732,0.0912915,0.984841,-0.38843,4.09919,-3.85495,-5.58008,0,0,3.25885,5
1774533408746,0.0727724,0.954376,-0.392086,4.28244,-4.5954,-7.47323,0,0,3.90928,5
1774533408760,0.0808025,0.986052,-0.397943,6.39688,-4.61069,-8.76332,0,0,3.29374,5
1774533408773,0.058372,0.96145,-0.398681,7.61828,-4.76335,-9.687,0,0,3.26948,5
1774533408787,0.0556668,0.962401,-0.402828,7.72519,-4.90076,-8.64125,0,0,3.31146,5
1774533408800,0.0400547,0.960939,-0.409905,8.42746,-4.80153,-7.40462,0,0,3.26528,5
1774533408817,0.0363806,0.962157,-0.423814,8.58778,-4.09926,-4.54207,0,0,3.31081,5
1774533408831,0.0249138,0.961183,-0.41456,7.35118,-4,-1.19857,0,0,3.28618,5
1774533408846,0.0292925,0.998986,-0.410405,7.74808,-2.81683,1.19077,0,0,5.58818,5
1774533408861,0.0388089,0.972195,-0.412108,7.54962,-2.19849,3.97702,0,0,3.30115,3
1774533408877,0.0280869,1.06217,-0.413573,11.58,-1.16797,6.41214,0,0,3.36329,3
1774533408891,0.110269,0.984697,-0.414794,13.3435,-3.48085,3.91611,0,0,3.24037,3
1774533408905,0.0257192,1.00413,-0.415527,15.8091,-0.954274,7.72508,0,0,3.29511,3
1774533408919,0.0929504,1.01976,-0.455526,14.8474,-2.7862,8.91599,0,0,3.26598,3
1774533408932,0.143016,1.1405,-0.471664,22.412,-2.78626,8.5878,0,0,3.29013,3
1774533408945,0.00111832,1.23233,-0.44607,40.6407,-0.85502,15.183,0,0,3.27537,3
1774533408959,0.148534,1.21023,-0.434582,49.5341,-0.671761,22.7784,0,0,3.48581,3
1774533408972,0.00819684,1.1685,-0.416766,52.2213,-5.83954,27.664,0,0,3.27555,3
1774533408986,0.0546411,1.44333,-0.43504,52.9465,-4.39699,26.5878,0,0,3.25126,3
1774533408999,0.114442,1.64482,-0.480423,90.2126,-7.45792,18.2216,0,0,3.28833,3
1774533409013,-0.0398849,1.58551,-0.444616,117.564,-3.89324,21.8091,0,0,3.25868,3
1774533409026,-0.0317464,1.55423,-0.439458,131,-3.05346,24.8396,0,0,3.37235,5
1774533409040,0.0870395,1.49103,-0.409454,156.518,0.923545,18.8551,0,0,3.29387,5
1774533409053,0.117889,1.25122,-0.433082,172.534,-2.73271,12.3513,0,0,3.30546,5
1774533409068,0.280111,1.7895,-0.425301,188.152,-9.69445,5.23685,0,0,3.30468,5
1774533409082,0.368808,2.47832,-0.424561,232.167,-18.0761,-1.50361,0,0,3.26411,5
1774533409096,0.486455,2.4851,-0.334075,250.129,-31.5416,-17.3049,0,0,3.31142,5
1774533409110,0.379014,2.00146,-0.37691,250.13,-38.9769,-26.3967,0,0,3.27041,5
1774533409125,0.532805,2.44292,-0.43061,250.13,-53.1141,-44.4727,0,0,3.32357,5
1774533409139,0.564909,2.46897,-0.449932,250.13,-57.9006,-42.939,0,0,3.26939,5
1774533409152,-0.233333,1.56975,-0.698726,250.13,-51.2826,-53.4577,0,0,3.28255,5
1774533409166,-0.0573048,2.41785,-0.548002,250.13,-32.6723,-33.1151,0,0,3.24855,5
1774533409180,0.208719,2.09383,0.223838,250.13,-32.542,-32.6336,0,0,4.71842,3
1774533409194,0.298007,1.89327,1.07117,250.13,-41.6944,-84.6015,0,0,3.264,3
1774533409208,0.0790761,-0.920041,0.04619,250.13,-43.9923,-146.571,0,0,3.92105,3
1774533409225,-0.367718,-2.3394,0.0827272,142.24,-28.0005,-63.1704,0,0,3.34239,3
1774533409238,-0.197436,0.0842487,-0.0855253,0.218001,-16.0156,-47.5196,0,0,3.34861,3
1774533409251,-0.0119041,0.861772,-0.0413039,4.42735,-2.67979,-53.8242,0,0,3.30885,3
1774533409266,-0.0107433,0.244025,-0.0512596,-36.0522,5.88524,-66.137,0,0,3.26628,3
1774533409280,-0.070253,0.434624,0.0136071,-49.0988,14.9997,-77.7096,0,0,3.30531,3
1774533409293,-0.0951899,-0.0629795,0.0656219,-79.8311,27.1752,-82.3586,0,0,3.27144,3
1774533409309,0.0191729,-0.139084,0.227134,-130.953,35.5417,-87.0609,0,0,5.46844,2
1774533409322,0.197332,-0.387691,0.365828,-184.082,35.9542,-87.7786,0,0,3.29598,2
1774533409338,0.310434,-0.417207,0.494256,-250.135,31.3894,-65.6343,0,0,6.1242,2
1774533409352,0.39835,0.16836,0.465605,-250.137,23.1758,-39.3519,0,0,3.2435,2
1774533409365,0.385511,0.333331,0.366554,-250.137,16.7636,-13.2985,0,0,3.254,2
1774533409379,0.309646,0.627392,0.264262,-250.137,11.6414,3.41171,0,0,3.70596,2
1774533409393,0.245182,0.818657,0.195137,-250.137,7.08411,9.36623,0,0,3.30318,2
1774533409406,0.237556,0.800799,0.149947,-250.137,1.29788,16.5036,0,0,3.23759,2
1774533409419,0.308767,1.00395,0.120879,-250.137,-8.28216,27.9768,0,0,3.26711,2
1774533409433,0.385421,1.17049,0.0547536,-250.137,-21.9233,41.595,0,0,3.48765,2
1774533409446,0.397693,1.34992,-0.0475053,-250.137,-37.572,59.488,0,0,3.24548,5
1774533409460,0.400144,1.5618,-0.155166,-250.137,-52.7934,77.4117,0,0,3.26629,3
1774533409473,0.329172,1.77347,-0.307709,-250.137,-64.8546,91.9385,0,0,3.27611,3
1774533409486,0.157398,1.91368,-0.509076,-250.137,-69.038,98.9616,0,0,3.27011,3
1774533409500,-0.0574026,1.97382,-0.788783,-250.137,-62.191,98.7405,0,0,3.26283,3
1774533409513,-0.286392,2.23655,-1.11979,-250.137,-41.7945,85.9011,0,0,3.24605,3
1774533409527,-0.419789,2.66973,-1.4723,-250.137,-7.65751,49.6728,0,0,4.01054,3
1774533409540,-0.168708,2.657,-1.63241,-250.137,25.9303,36.4126,0,0,3.27109,3
1774533409554,-0.102849,1.90724,-1.69476,-250.137,51.6176,65.9838,0,0,3.26361,3
1774533409567,-0.409118,2.18405,-1.72629,-246.825,82.4189,85.6406,0,0,3.26094,3
1774533409581,-0.790391,1.97433,-1.87363,-203.406,118.884,64.7869,0,0,3.25826,3
1774533409594,-0.825892,1.76291,-1.96866,-162.459,150.961,5.01706,0,0,3.26285,3
1774533409607,-0.511788,1.61343,-2.01241,-111.36,170.763,-62.998,0,0,3.26085,3
1774533409621,0.198509,1.45548,-1.95392,-58.2688,170.702,-80.801,0,0,3.24613,3
1774533409634,0.826521,1.1246,-1.97654,-15.1158,141.031,-38.0318,0,0,3.45126,3
1774533409647,0.774954,0.97232,-1.94949,14.0907,95.9785,13.2962,0,0,3.25269,5
1774533409661,0.258816,1.16168,-1.86434,50.6936,62.0697,10.2825,0,0,3.25885,5
1774533409674,-0.113885,1.22772,-1.22817,59.0227,67.3663,-18.4114,0,0,3.26374,5
1774533409687,-0.990335,2.64556,1.4024,250.124,-59.1947,41.3036,0,0,3.26268,5
1774533409701,1.27337,-0.270037,1.31015,250.13,-79.8772,15.3367,0,0,3.27648,5
1774533409715,-0.938464,0.732885,-0.132836,206.559,-38.4211,-66.0892,0,0,3.70065,5
1774533409732,0.475882,1.89776,-0.187202,250.128,-11.5199,-20.8334,0,0,7.1962,5
1774533409746,0.224128,0.446518,-0.202134,210.039,7.67118,-18.565,0,0,3.35405,5
1774533409759,-0.00416646,1.01091,-0.379218,175.566,1.1605,-36.0529,0,0,3.24078,5
1774533409772,0.0526776,0.893916,-0.403052,159.214,-7.94629,-5.93983,0,0,3.2723,5
1774533409786,0.0827336,0.683316,-0.445758,115.673,-12.0609,15.2894,0,0,3.24279,5
1774533409799,0.100812,0.639448,-0.525555,73.6806,-8.55736,1.9775,0,0,3.26352,5
1774533409812,-0.0133137,0.744768,-0.449295,42.5887,0.121877,9.22879,0,0,3.25859,5
1774533409826,-0.0546462,1.02804,-0.425317,38.3589,4.54185,13.7251,0,0,3.25133,5
1774533409839,0.0526272,0.959297,-0.365294,37.3893,6.24422,16.3205,0,0,3.33022,5
1774533409852,0.0634657,0.890937,-0.383771,37.2977,9.45792,19.8167,0,0,3.23978,5
1774533409866,0.133719,0.589169,-0.426959,18.8708,7.60311,11.1987,0,0,3.29483,5
1774533409879,0.124033,1.06373,-0.370906,8.7942,7.25955,13.1221,0,0,3.24396,5
1774533409893,0.147925,0.94787,-0.37524,22.2362,5.48097,3.30564,0,0,3.29633,5
1774533409907,0.160876,0.82361,-0.379634,4.90892,2.94664,-0.900637,0,0,4.23265,5
1774533409920,0.132109,1.03568,-0.404028,9.30521,-0.770881,-8.45779,0,0,3.2958,5
1774533409934,0.105251,0.866136,-0.376736,3.80933,-2.41216,-9.59539,0,0,3.26633,5
1774533409947,0.0898591,1.02035,-0.390855,2.53439,-2.90838,-9.25192,0,0,3.28535,5
1774533409960,0.00740659,0.993679,-0.384528,3.46562,-1.72523,-3.87802,0,0,3.28041,5
1774533409974,0.0575671,1.02755,-0.385253,4.06868,-1.49619,-0.412318,0,0,3.24322,5
1774533409987,0.086397,0.98832,-0.386961,5.84727,-0.877881,1.25949,0,0,3.29079,5
1774533410000,0.0695969,0.989745,-0.385256,5.67176,-0.0687266,1.18321,0,0,3.24763,5
1774533410014,0.0998233,0.971698,-0.385742,6.51906,-0.0381689,-0.213699,0,0,3.29692,5
1774533410027,0.104,0.968753,-0.376718,5.61071,-0.335869,-2.88542,0,0,3.25491,5
1774533410041,0.117906,0.969482,-0.384514,6.50379,-1.25188,-7.64108,0,0,3.74637,5
1774533410054,0.115237,0.953629,-0.384278,5.61071,-2.94651,-12.0304,0,0,3.35533,5
1774533410068,0.0976738,0.981661,-0.390375,5.74809,-3.7557,-14.5343,0,0,3.25896,5
1774533410082,0.0686325,0.950958,-0.395503,6.51143,-4.71753,-15.0992,0,0,3.27515,5
1774533410095,0.0403115,0.968244,-0.394532,4.33594,-4.39696,-12.0764,0,0,3.24868,5
1774533410108,0.0280884,0.985334,-0.394043,5.58775,-3.58018,-8.29782,0,0,3.27537,5
1774533410122,0.0471001,0.954133,-0.394287,4.66415,-3.03055,-5.71763,0,0,3.25468,5
1774533410135,0.0434607,0.976784,-0.39575,4.89312,-2.83207,-4.06875,0,0,3.25248,5
1774533410148,0.0639444,0.961441,-0.40063,5.67937,-2.83969,-4.48854,0,0,3.28155,5
1774533410162,0.0805498,0.964596,-0.388928,5.45802,-2.75573,-6.19079,0,0,3.23463,5
1774533410175,0.057884,0.958746,-0.40355,6.51142,-2.83969,-6.61831,0,0,3.27717,5
1774533410188,0.0554224,0.959228,-0.401125,5.89315,-3.3435,-6.68702,0,0,3.23117,5
1774533410202,0.078834,0.969228,-0.397708,6.49617,-4.04578,-8.52666,0,0,3.28602,5
1774533410216,0.0498337,0.936312,-0.403071,5.77101,-4.60304,-8.48855,0,0,3.25072,5
1774533410230,0.037366,0.94506,-0.404783,4.68706,-4.31299,-7.93895,0,0,4.64207,5
1774533410244,0.0422315,0.954336,-0.399176,4.84732,-4.29771,-7.51146,0,0,3.30637,3
1774533410258,0.031261,0.959711,-0.398438,4.96946,-3.93131,-6.73285,0,0,3.89094,3
1774533410271,0.0190552,0.954107,-0.404535,5.10687,-3.04583,-4.95425,0,0,3.28109,3
1774533410285,0.0151406,0.95898,-0.40576,4.67177,-2.20613,-3.14509,0,0,3.26479,3
1774533410298,0.0185513,0.973374,-0.413079,5.67173,-1.48094,-1.34357,0,0,3.28098,3
1774533410311,0.0217253,0.958267,-0.422354,5.49619,-1.25192,-0.099274,0,0,3.25437,3
1774533410325,0.0385574,0.989471,-0.410412,5.79388,-1.52671,0.671733,0,0,3.29744,3
1774533410338,0.0232087,1.00706,-0.408449,7.79383,-1.08398,1.93889,0,0,3.26007,3
1774533410352,0.0166082,0.995373,-0.422105,8.87783,-0.0763661,4.80907,0,0,3.31113,3
1774533410365,0.0244063,0.996581,-0.414558,9.79387,1.25187,7.8167,0,0,3.27829,3
1774533410379,0.0419746,1.00707,-0.416502,10.0916,2.08394,10.3129,0,0,3.57804,3
1774533410392,0.0771133,1.01488,-0.40748,10.9236,1.3588,11.2442,0,0,3.28168,5
1774533410406,0.0681242,1.11026,-0.41308,14.2213,1.46565,10.3359,0,0,3.39128,5
1774533410419,0.170308,1.09669,-0.422598,21.3509,-5.35857,6.66423,0,0,3.33067,5
1774533410433,0.111387,1.26033,-0.424071,27.5876,-10.5724,-7.78583,0,0,3.27009,5
1774533410446,-0.00452288,1.37537,-0.515534,36.9005,-7.13751,11.8925,0,0,3.31074,5
1774533410459,-0.0980511,1.65987,-0.528308,72.8844,-3.42759,17.4731,0,0,3.273,5
1774533410473,0.056974,1.1448,-0.46198,66.7635,-10.5647,19.3358,0,0,3.30083,5
1774533410486,-0.0850632,2.07183,-0.478987,102.365,-0.817086,15.4963,0,0,3.2722,5
1774533410500,0.0596699,1.3396,-0.426566,126.16,-2.42743,18.435,0,0,3.25035,5
1774533410513,0.121276,1.42789,-0.408953,139.939,-4.69459,21.1755,0,0,3.27144,5
1774533410526,0.108167,1.50383,-0.400643,162.641,-6.6717,16.3742,0,0,3.25424,5
1774533410540,0.153763,1.34781,-0.418439,183.419,-9.99227,9.64142,0,0,3.29528,5
1774533410553,0.248684,1.41863,-0.418457,195.038,-16.5265,6.03064,0,0,3.2955,5
1774533410568,0.282925,1.87089,-0.442359,219.969,-23.2899,0.137581,0,0,4.47407,5
