timestamp,ax,ay,az,gx,gy,gz,roll_k,pitch_k,delay_ms,classe_prevista
1774392234761,0.0303672,1.00042,-0.0310961,0.106554,-0.92854,0.654544,0,0,3.26421,-1
1774392234774,0.0254153,1.00243,-0.0295487,0.0688152,-0.984565,0.618429,0,0,3.26693,-1
1774392234788,0.0370515,1.00414,-0.0249253,0.0382593,-0.969511,0.603099,0,0,3.33464,-1
1774392234804,0.0295782,1.00439,-0.0304899,0.114276,-0.855303,0.66394,0,0,3.28538,-1
1774392234819,0.0207956,0.998564,-0.032218,-0.0224917,-1.16701,0.801116,0,0,5.11397,-1
1774392234833,0.0280401,1.00315,-0.0251815,0.311977,-1.0005,0.717806,0,0,3.31441,-1
1774392234847,0.0348781,0.999044,-0.0244179,0.00854118,-0.954337,0.671893,0,0,3.24439,-1
1774392234862,0.0339402,1.00607,-0.0268434,0.175074,-0.999864,0.489096,0,0,4.30221,-1
1774392234876,0.0256759,1.0027,-0.0302565,0.0537979,-1.15222,0.625546,0,0,3.23991,-1
1774392234889,0.0343805,0.998799,-0.0249288,0.251318,-1.11462,0.565066,0,0,3.32354,0
1774392234902,0.0324802,1.00194,-0.0251454,0.198631,-1.15256,0.496389,0,0,3.29658,0
1774392234916,0.0273692,0.999281,-0.0200449,0.0767006,-0.931958,0.724509,0,0,3.27313,0
1774392234929,0.0302591,1.00097,-0.0205055,0.167667,-1.04546,0.603416,0,0,3.27115,0
1774392234943,0.0302734,1.00705,-0.0287675,-0.0299433,-1.05341,0.389951,0,0,3.30979,0
1774392234957,0.0266295,1.00344,-0.0176335,0.0227432,-1.26654,0.655694,0,0,3.99224,5
1774392234970,0.0307413,1.00536,-0.0243805,0.129452,-1.06929,0.450994,0,0,3.25065,5
1774392234983,0.0310045,1.00124,-0.020527,0.213489,-1.02304,0.625432,0,0,3.30206,5
1774392234997,0.0324634,1.00705,-0.0333833,0.190907,-0.931571,0.641174,0,0,3.28938,5
1774392235010,0.0280979,1.00829,-0.0285883,0.19084,-0.900855,0.565113,0,0,3.26312,5
1774392235024,0.0283192,1.00417,-0.0229771,0.152786,-1.06059,0.496389,0,0,3.30617,5
1774392235037,0.029292,1.00609,-0.031452,0.068953,-0.771856,0.480962,0,0,3.34553,1
1774392235051,0.0312403,1.00805,-0.0217767,0.167644,-0.953655,0.480916,0,0,3.30306,5
1774392235064,0.0295494,0.999311,-0.0251298,0.0613865,-1.03031,0.678797,0,0,3.25197,1
1774392235078,0.0280835,1.00437,-0.0380218,0.121956,-0.90876,0.565225,0,0,3.33038,1
1774392235091,0.0273474,1.00002,-0.0269107,0.0688611,-0.916009,0.427892,0,0,3.27912,1
1774392235104,0.0256432,1.00097,-0.0307427,0.129589,-1.09108,0.511201,0,0,3.25775,5
1774392235118,0.0266065,1.00243,-0.0273606,0.167825,-0.969828,0.488617,0,0,3.29534,5
1774392235131,0.0341422,1.00268,-0.0222423,-0.121273,-1.08363,0.67882,0,0,3.27276,5
1774392235145,0.0368518,1.00414,-0.0229457,-0.106913,-0.992639,0.618501,0,0,3.31536,5
1774392235158,0.026905,1.00682,-0.0241639,-0.0535946,-1.03042,0.6031,0,0,3.27754,1
1774392235171,0.0261269,1.00222,-0.0214976,-0.114322,-0.969647,0.542167,0,0,3.28043,1
1774392235185,0.0275807,1.00123,-0.022942,-0.26672,-1.06841,0.686591,0,0,3.29497,1
1774392235198,0.0261303,1.00462,-0.0275649,0.0372587,-0.96215,0.542416,0,0,3.27076,1
1774392235212,0.0314676,1.00318,-0.03026,-0.037943,-0.923779,0.602873,0,0,3.29006,1
1774392235225,0.0297935,1.00342,-0.028087,-0.0305564,-1.06066,0.57261,0,0,3.27465,1
1774392235238,0.0295423,1.00075,-0.028805,-0.0609777,-1.10673,0.4888,0,0,3.28384,1
1774392235252,0.0339138,1.00486,-0.0224923,0.00742898,-1.16776,0.557048,0,0,3.29577,1
1774392235265,0.0300485,0.999781,-0.0285344,0.190293,-0.886338,0.785576,0,0,3.31256,1
1774392235279,0.0254137,1.00024,-0.0198188,0.0233999,-1.18993,0.679706,0,0,3.29352,1
1774392235292,0.0287918,1.00535,-0.0229337,-0.0912601,-1.13756,0.58045,0,0,3.27621,1
1774392235305,0.0309949,1.00416,-0.0287795,-0.00027215,-0.939524,0.686705,0,0,3.28523,1
1774392235319,0.0334351,0.999778,-0.0222493,0.0304425,-0.931322,0.694633,0,0,3.26865,1
1774392235332,0.027131,1.0017,-0.0273185,0.0914207,-1.24334,0.671824,0,0,3.31193,1
1774392235345,0.0319584,0.998551,-0.0244284,0.0839917,-1.09206,0.61848,0,0,3.27701,1
1774392235359,0.0251802,0.999993,-0.0219848,-0.00736035,-1.04594,0.587878,0,0,3.27728,1
1774392235372,0.0317058,1,-0.0261026,0.0836971,-1.12191,0.534511,0,0,3.26773,1
1774392235386,0.0327098,0.999271,-0.0341397,0.19052,-1.26674,0.694179,0,0,3.25258,1
1774392235399,0.0266415,0.997324,-0.0290779,0.129952,-1.08451,0.717488,0,0,3.27228,1
1774392235412,0.0261256,1.00557,-0.0263806,0.0536633,-0.893701,0.595784,0,0,3.2543,1
1774392235426,0.0319534,1.00367,-0.0275819,0.0610466,-1.06818,0.648697,0,0,3.27312,1
1774392235439,0.0263948,1.0005,-0.0273449,0.045847,-1.36552,0.671687,0,0,3.25036,1
1774392235452,0.0297684,1.00413,-0.0329312,0.0914666,-1.0087,0.648923,0,0,3.27612,1
1774392235466,0.0217683,1.00318,-0.0244562,-0.136722,-1.07613,0.823904,0,0,3.26958,1
1774392235479,0.0195423,1.00317,-0.0241713,0.121365,-0.954562,0.77115,0,0,3.25543,1
1774392235492,0.0282769,1.0005,-0.0224694,0.152578,-1.17491,0.550279,0,0,3.26886,1
1774392235506,0.0343934,1.00195,-0.0217322,0.0232875,-1.00813,0.747502,0,0,3.25237,1
1774392235519,0.0300509,1.00317,-0.0229432,-0.0760388,-1.21313,0.778533,0,0,3.28454,1
1774392235532,0.0363456,1.0039,-0.0214916,-0.00783758,-0.924527,0.573133,0,0,3.25849,1
1774392235546,0.0264166,0.999291,-0.0246425,-0.0532991,-0.961721,0.610575,0,0,3.5958,1
1774392235559,0.0270962,0.997081,-0.0270874,-0.0382131,-1.23582,0.580243,0,0,3.26175,1
1774392235573,0.032687,1.00314,-0.032687,0.0531618,-0.947427,0.618207,0,0,3.28536,1
1774392235586,0.0254267,0.997586,-0.0283419,-0.0911713,-0.977011,0.572655,0,0,3.26271,1
1774392235600,0.0256337,0.999259,-0.0222471,-0.122045,-1.14454,0.4888,0,0,3.25704,1
1774392235613,0.0256348,1.00097,-0.0312054,-0.0764722,-0.954766,0.602713,0,0,3.2768,1
1774392235626,0.0309793,1.00292,-0.0208037,-0.228553,-1.18252,0.450836,0,0,3.25269,1
1774392235640,0.033678,0.999043,-0.0253679,-0.0615682,-1.13754,0.587378,0,0,3.87084,1
1774392235654,0.0254317,1.00825,-0.0229612,-0.175233,-1.17546,0.572563,0,0,3.27288,1
1774392235667,0.0317071,1.00271,-0.0261074,0.106029,-1.2669,0.572519,0,0,3.6247,1
1774392235681,0.024936,1.00269,-0.0229649,0.053592,-1.0769,0.656238,0,0,3.27415,1
1774392235694,0.0261172,1.00099,-0.0268362,0.0229923,-1.07634,0.603212,0,0,3.2481,1
1774392235708,0.0280665,0.997333,-0.0270983,0.10662,-1.26661,0.679162,0,0,3.28088,1
1774392235721,0.0302625,1.00679,-0.0212692,-0.0757903,-0.886633,0.686999,0,0,3.26136,1
1774392235734,0.0310022,0.999548,-0.0207545,0.0454389,-1.15188,0.66419,0,0,3.31893,1
1774392235748,0.0324634,1.00413,-0.0248818,0.167574,-1.19833,0.82395,0,0,3.48335,1
1774392235761,0.0271262,0.997105,-0.0263598,0.129884,-1.15281,0.748318,0,0,3.29867,1
1774392235775,0.022727,1.0012,-0.0212656,0.099328,-1.19073,0.717649,0,0,3.27565,1
1774392235788,0.0394675,1.00001,-0.0324152,0.0383503,-0.977736,0.732779,0,0,3.57011,1
1774392235802,0.0203587,1.00024,-0.0290694,0.159942,-1.1141,0.740435,0,0,3.28052,1
1774392235815,0.0326537,1.00243,-0.0329397,0.0613636,-1.03078,0.702404,0,0,3.25319,1
1774392235829,0.031014,1.0022,-0.0249421,0.167621,-0.847875,0.481577,0,0,3.30082,1
1774392235842,0.03052,1.00754,-0.0205298,0.198381,-0.877773,0.945178,0,0,3.25706,1
1774392235855,0.0288171,0.997608,-0.0265812,0.0158132,-0.740868,0.695404,0,0,3.28171,1
1774392235869,0.0256505,0.999745,-0.0321986,0.21315,-0.892676,0.588107,0,0,3.27419,1
1774392235882,0.0300076,1.00194,-0.0276107,-0.014586,-0.984458,0.625841,0,0,3.65858,1
1774392235896,0.0288145,1.00705,-0.0271021,0.106508,-0.96951,0.633565,0,0,3.26843,1
1774392235909,0.0246788,1.00149,-0.022241,-0.0072932,-0.82486,0.511815,0,0,3.25147,1
1774392235923,0.0355902,1.00025,-0.0193017,0.114141,-1.06036,0.724555,0,0,3.28369,1
1774392235936,0.0281134,1.00705,-0.0243888,0.221054,-0.969737,0.877405,0,0,3.25552,1
1774392235949,0.0297769,1.00246,-0.0239281,0.274649,-0.992299,0.611482,0,0,3.3106,1
1774392235963,0.0244406,1.00341,-0.0331572,0.259587,-1.02281,0.534581,0,0,3.26962,1
1774392235977,0.0258718,0.998559,-0.0152259,-0.0448908,-0.901127,0.823563,0,0,3.74247,1
1774392235990,0.0321951,1.00607,-0.0289843,0.410851,-1.10626,0.497159,0,0,3.25534,1
1774392236003,0.0251814,1.00659,-0.0302671,0.206717,-0.711106,0.7169,0,0,3.23236,1
1774392236017,0.0263613,0.998818,-0.0273582,0.145222,-0.862144,0.938269,0,0,3.24873,1
1774392236030,0.0263672,1.00364,-0.0300161,-0.159394,-0.91587,0.862821,0,0,3.23304,1
1774392236043,0.0309829,1.00439,-0.0261423,0.0984654,-0.931252,0.80171,0,0,3.25593,5
1774392236057,0.0436382,1.00026,-0.0355975,0.114456,-0.923687,0.588424,0,0,3.27139,5
1774392236070,0.0247522,0.999758,-0.0288422,-0.19754,-0.79428,0.625842,0,0,3.25078,5
1774392236083,0.0351047,1.00534,-0.0346391,-0.213692,-1.1516,0.724895,0,0,3.25436,5
1774392236097,0.020823,1.00221,-0.0302951,-0.183297,-0.779738,0.869796,0,0,3.23878,1
1774392236110,0.0234246,1.00536,-0.0259008,0.0755616,-0.717743,1.2051,0,0,3.24997,5
1774392236123,0.0219798,1.00561,-0.0244214,-0.23571,-0.961104,0.673346,0,0,3.236,1
1774392236137,0.0256167,0.99687,-0.0229565,-0.213806,-1.06838,0.511933,0,0,3.25799,5
1774392236150,0.0377813,1.00776,-0.0258644,-0.0158592,-1.11437,0.572338,0,0,3.2716,1
1774392236163,0.0419713,0.995666,-0.0239354,-0.0457122,-1.00795,0.336583,0,0,3.24795,5
1774392236177,0.0252298,1.00168,-0.0236829,-0.099077,-0.96197,0.411988,0,0,3.24593,5
1774392236190,0.0363218,1.00608,-0.0285403,-0.0155171,-1.05316,0.724257,0,0,3.23252,1
1774392236203,0.0230154,0.99833,-0.0283214,-0.0761545,-0.855553,0.748021,0,0,3.24811,1
1774392236217,0.0278082,1.00631,-0.0341507,0.0758811,-0.923461,0.717648,0,0,3.23698,1
1774392236230,0.0249167,1.00805,-0.0234905,-0.0834928,-0.870388,0.74039,0,0,3.26526,5
1774392236243,0.033405,1.00198,-0.0217372,0.159578,-1.05289,0.626295,0,0,3.23923,1
1774392236257,0.0254303,1.00122,-0.0185704,0.0613625,-1.0306,0.664009,0,0,3.27443,1
1774392236270,0.028306,1.00122,-0.0149108,0.0686804,-1.05337,0.915279,0,0,3.24615,1
1774392236283,0.0166595,1.00584,-0.0267963,0.0687022,-1.10671,0.870363,0,0,3.23732,1
1774392236297,0.0234039,0.999543,-0.0285557,0.258973,-1.04598,0.87784,0,0,3.24887,1
1774392236310,0.0338834,1.00267,-0.0190901,-0.0372818,-0.969694,0.7637,0,0,3.23249,1
1774392236323,0.0366075,0.998556,-0.0224442,-0.0914411,-1.10646,0.618754,0,0,3.25243,1
1774392236337,0.0334629,1.00194,-0.0176022,-0.0916026,-0.916598,0.450884,0,0,3.24289,1
1774392236350,0.0324756,0.995637,-0.0170924,-0.220987,-0.877978,0.747205,0,0,3.24306,1
1774392236363,0.0533629,1.00848,-0.0187904,0.0526168,-1.12141,0.565429,0,0,3.27399,1
1774392236377,0.0170265,0.992754,-0.0280302,-0.182503,-0.61221,0.633385,0,0,3.26412,1
1774392236390,0.0455126,1.00725,-0.0297765,0.136451,-0.846627,0.75536,0,0,3.24495,1
1774392236403,0.0356934,1.00149,-0.0239547,0.0765151,-0.946267,0.329518,0,0,3.22991,1
1774392236417,0.0397746,1.00268,-0.0125081,-0.0911017,-0.99984,0.617459,0,0,3.25043,1
1774392236430,0.0232754,1.00074,-0.0275132,0.0301716,-0.946724,0.648761,0,0,3.25371,1
1774392236443,0.0200357,1.01118,-0.0256441,0.220804,-0.771516,0.565136,0,0,3.27143,1
1774392236457,0.0404259,0.995925,-0.0234484,0.0843775,-0.991708,0.473556,0,0,3.26667,1
1774392236470,0.0337247,1.00241,-0.0212512,0.0230841,-0.687932,0.229737,0,0,3.24287,1
1774392236483,0.0414654,1.00487,-0.0229408,0.319723,-0.999069,0.206177,0,0,3.24963,1
1774392236497,0.0327582,1.00172,-0.023678,0.419549,-0.893446,0.206107,0,0,3.23037,1
1774392236510,0.0356302,0.998551,-0.0202806,0.115414,-1.03774,0.388767,0,0,3.25363,1
1774392236523,0.0278706,0.998049,-0.0248795,0.198226,-0.939226,0.47303,0,0,3.23415,1
1774392236537,0.0229736,1.00825,-0.0244164,0.183251,-0.847602,0.45806,0,0,3.26297,1
1774392236550,0.0338813,0.999555,-0.0193125,-0.0298968,-0.847329,0.625454,0,0,3.23247,1
1774392236563,0.0317489,1.0068,-0.0231741,0.26629,-0.877772,0.435682,0,0,3.2686,1
1774392236577,0.0421844,1.00076,-0.0292666,0.1454,-0.969192,0.275289,0,0,3.25013,1
1774392236590,0.0271743,1,-0.0229805,0.548413,-1.14451,0.198702,0,0,3.236,5
1774392236603,0.0261283,1.01069,-0.0268363,0.359344,-1.05371,0.434409,0,0,3.24889,5
1774392236617,0.0317105,0.999567,-0.0285559,0.00868244,-1.10671,0.419891,0,0,3.23993,5
1774392236630,0.0229926,0.999512,-0.0251634,0.12941,-0.962264,0.366572,0,0,3.26447,5
1774392236643,0.00764472,1.00243,-0.0304911,-0.326879,-0.939001,0.785008,0,0,3.23628,5
1774392236657,0.0342913,0.997583,-0.0227436,0.303458,-1.14442,0.420936,0,0,3.28204,5
1774392236670,0.0249488,0.991728,-0.0217335,-0.470966,-1.36575,0.397018,0,0,3.24921,5
1774392236683,0.0358345,1.01089,-0.0287736,0.363915,-1.1457,0.298006,0,0,3.23734,5
1774392236697,0.0307868,0.995681,-0.0278367,-0.653446,-1.22876,0.982685,0,0,3.24769,5
1774392236710,0.0501964,1.00411,-0.0217588,-0.123722,-1.03113,0.665072,0,0,3.22943,5
1774392236723,0.0228412,0.992489,-0.0224575,-0.373299,-1.15231,0.4358,0,0,3.2693,5
1774392236737,0.00594345,0.998262,-0.0132295,-0.52626,-0.77213,0.846101,0,0,3.24684,5
1774392236750,0.0299101,1.00558,-0.0241158,0.485523,-1.06021,0.763606,0,0,3.28293,5
1774392236763,0.0331868,1.00391,-0.0207686,-0.660694,-0.969736,0.535035,0,0,3.26517,5
1774392236777,0.0244575,0.989087,-0.0275541,-0.0248027,-0.687866,0.823564,0,0,3.26037,5
1774392236790,0.0414195,1.02035,-0.0295312,0.00753686,-1.07518,0.398219,0,0,3.2468,5
1774392236803,0.0347014,0.999615,-0.0251682,-0.509903,-0.672959,0.244734,0,0,3.23348,5
1774392236817,0.0261655,1.0017,-0.0234461,-0.0471855,-0.938138,0.579152,0,0,3.24804,5
1774392236830,0.023451,1.00341,-0.0261098,-0.220855,-0.565999,0.389879,0,0,3.23389,5
1774392236843,0.0241664,1.00901,-0.0273376,0.00695221,-0.450726,0.511088,0,0,3.25571,5
1774392236857,0.023684,1.00515,-0.0273437,-0.327245,-0.79287,0.633222,0,0,3.26145,5
1774392236870,0.0253822,1.00148,-0.0198129,-0.206468,-0.557955,0.641198,0,0,3.2655,5
1774392236883,0.0319497,1.00195,-0.0292499,-0.152832,-0.686638,0.44334,0,0,3.25211,5
1774392236897,0.0229938,1.00511,-0.0193364,-0.137451,-0.29887,0.412307,0,0,3.23019,5
1774392236910,0.0263505,1.00245,-0.0231743,0.113752,-0.297713,0.587263,0,0,3.25045,5
1774392236923,0.0287964,1.00511,-0.0248938,-0.151877,-0.503202,0.610617,0,0,3.23487,5
1774392236937,0.0212776,1.00464,-0.0207725,-0.129837,-0.199382,1.01406,0,0,3.26387,5
1774392236950,0.0290142,1.01071,-0.0253678,-0.129771,-0.198476,1.66218,0,0,3.23576,1
1774392236963,0.0290525,0.999324,-0.0178596,-0.289598,-0.883447,1.33685,0,0,3.28688,1
1774392236977,0.0314821,1.00631,-0.01928,-0.0617502,-0.6115,1.84581,0,0,3.2545,1
1774392236990,0.0203192,0.995901,-0.0314337,-0.532942,-0.945566,1.87777,0,0,3.22961,1
1774392237003,0.0183205,1.01188,-0.0300362,-0.0853084,-1.26622,2.51717,0,0,3.25221,1
1774392237017,0.027542,1.01002,-0.0161822,-0.281855,-1.05407,2.89962,0,0,3.23778,1
1774392237030,0.0173845,1.02191,-0.0285032,0.722188,-1.08388,3.31174,0,0,3.26515,1
1774392237043,0.0457573,1.04335,-0.00111284,1.71459,-0.924142,2.80305,0,0,3.24287,1
1774392237057,0.0789365,1.08135,0.0167568,5.08914,-1.12155,0.883604,0,0,3.30586,1
1774392237070,0.0985353,1.16803,0.0688327,11.3401,-0.574156,-6.82427,0,0,3.27173,1
1774392237083,0.197506,1.52799,0.16019,27.2197,-3.30481,-15.4247,0,0,3.24991,5
1774392237097,0.432182,1.75619,0.297656,49.4678,-11.0608,-23.6472,0,0,3.26502,5
1774392237110,0.465411,1.88559,0.200435,84.7418,-20.4148,-23.5651,0,0,3.23412,5
1774392237123,0.400713,1.16763,0.512121,84.71,-29.0201,-22.6516,0,0,3.25128,5
1774392237137,0.202403,0.981152,0.802267,80.1358,-34.1298,-20.1525,0,0,3.25328,5
1774392237150,-0.132854,0.679722,1.10057,64.6189,-23.6268,-15.4035,0,0,3.27691,5
1774392237163,-0.36044,0.238037,1.21574,34.5708,-3.4725,-2.95327,0,0,3.28182,3
1774392237177,-0.337759,-0.198998,1.43446,-19.8525,14.5644,13.059,0,0,3.29288,3
1774392237190,-0.166623,0.201377,1.52786,-61.372,24.2154,12.6577,0,0,3.24897,3
1774392237204,-0.00544059,0.255104,1.45398,-83.8336,21.1999,13.3871,0,0,3.23662,3
1774392237217,0.0988464,0.433682,1.27166,-109.922,9.95729,18.6712,0,0,3.25258,3
1774392237230,0.09086,0.652719,1.08321,-128.814,-1.5153,13.6562,0,0,3.23258,3
1774392237243,0.0609399,0.949208,0.865828,-139.19,-8.36881,-0.218043,0,0,3.23736,3
1774392237257,-0.00504281,1.1511,0.616475,-140.34,-11.7532,-9.37718,0,0,3.24441,2
1774392237270,0.0300986,1.29858,0.431341,-138.22,-12.2809,-7.67684,0,0,3.27891,2
1774392237284,0.0698705,1.36369,0.26183,-134.317,-10.4635,-0.700257,0,0,3.2463,2
1774392237297,0.0897449,1.2921,0.123248,-131.467,-7.32998,7.56307,0,0,3.25395,2
1774392237310,0.118752,1.30851,0.0392363,-131.96,-4.42091,11.7661,0,0,3.27873,2
1774392237324,0.120353,1.38366,-0.0277429,-123.209,-2.65414,12.2352,0,0,3.25267,2
1774392237337,0.134208,1.31601,-0.0684012,-114.56,-3.69916,12.6781,0,0,3.33997,3
1774392237350,0.137678,1.28798,-0.0814779,-105.394,-5.74198,14.5364,0,0,3.24528,3
1774392237364,0.103685,1.13261,-0.0596788,-102.984,-7.29307,14.3898,0,0,3.32886,3
1774392237378,0.0818955,1.16585,-0.0449949,-99.6664,-8.59915,11.8092,0,0,3.27328,3
1774392237392,0.0740138,1.09435,-0.0407924,-94.6029,-9.92733,11.6341,0,0,3.77343,3
1774392237405,0.0530827,1.02962,-0.0235234,-91.3685,-10.1292,9.76133,0,0,3.27563,3
1774392237418,0.0211549,0.976825,-0.0035175,-91.6785,-9.10992,7.16045,0,0,3.24374,3
1774392237432,0.00472044,0.997456,-0.00317553,-89.1221,-6.54964,6.02629,0,0,3.27691,3
1774392237445,0.0473951,1.03035,-0.0199361,-84.7307,-3.96955,5.8022,0,0,3.23993,3
1774392237460,0.0867184,1.00792,-0.0768652,-77.533,-1.76994,8.6632,0,0,4.8565,3
1774392237474,0.0742806,0.952667,-0.109214,-76.035,1.23529,12.226,0,0,3.2663,3
1774392237487,0.0521122,0.972314,-0.116905,-74.2344,5.17143,13.5228,0,0,3.79762,3
1774392237501,0.0719229,1.04286,-0.148524,-67.9425,8.06006,14.6607,0,0,3.27502,3
1774392237514,0.0846535,1.06337,-0.179047,-57.7709,10.2606,16.3613,0,0,3.25002,3
1774392237528,0.065039,1.02509,-0.213695,-49.4295,12.6646,16.4501,0,0,3.27832,3
1774392237541,0.0326319,1.09098,-0.246419,-40.4924,15.8759,13.7181,0,0,3.23704,3
1774392237555,0.045104,1.16807,-0.286422,-24.2395,18.2753,11.0462,0,0,3.28589,3
1774392237568,0.0250024,1.1257,-0.354884,-10.0957,20.7255,12.0276,0,0,3.27175,3
1774392237583,-0.0652249,1.11844,-0.455311,0.12211,26.3876,12.3502,0,0,4.6583,3
1774392237596,-0.116687,1.29405,-0.49492,18.2207,36.0474,8.33263,0,0,3.26215,5
1774392237610,-2.9352,3.98648,-2.51558,32.4917,96.1941,-43.5015,0,0,3.74523,5
1774392237623,0.728355,0.281373,1.01321,249.481,37.656,-47.3016,0,0,3.27321,5
1774392237637,-0.865605,0.0516799,0.977959,209.722,67.4529,25.2791,0,0,3.25863,5
1774392237650,-0.624734,1.20398,0.229554,206.498,51.6275,45.2456,0,0,3.28363,5
1774392237663,0.132706,0.967728,0.190866,203.916,52.2729,47.7406,0,0,3.255,5
1774392237677,0.448138,0.973361,0.196262,182.278,19.5102,21.4451,0,0,3.30371,5
1774392237690,0.152351,1.13154,0.095958,157.471,-8.14629,23.0791,0,0,3.26497,5
1774392237704,-0.0599788,1.06892,0.0101923,140.105,-20.2843,28.8149,0,0,3.31178,5
1774392237717,-0.00272625,0.752793,-0.0463495,108.081,-17.1696,23.8774,0,0,3.27364,5
1774392237731,0.0167488,0.847915,-0.0145624,79.2922,-8.19478,16.366,0,0,3.54531,5
1774392237744,0.0520704,0.905232,0.05313,65.3623,3.6592,5.4601,0,0,3.28323,5
1774392237757,0.0694934,0.965763,0.068041,58.9809,11.214,-2.30502,0,0,3.25354,5
1774392237772,0.0775964,0.947114,0.0535389,54.2051,10.0265,-6.04226,0,0,3.9674,5
1774392237785,0.0664616,0.919328,0.0306315,46.3289,8.56924,-6.41872,0,0,3.25438,5
1774392237798,0.0418704,0.933523,0.041693,38.7403,8.27569,-4.54758,0,0,3.29556,5
1774392237812,0.0320314,0.952056,0.0320305,33.1465,6.80592,-1.77166,0,0,3.30456,5
1774392237825,0.0528748,0.949719,0.0212937,27.4141,5.21088,0.626415,0,0,3.66917,5
1774392237839,0.0218827,1.01141,0.0380028,25.0833,3.83617,4.46181,0,0,3.27747,5
1774392237852,0.0435932,0.970905,-0.00515637,22.6333,3.96146,4.29059,0,0,3.25134,5
1774392237866,0.0978745,0.972648,-0.0277198,18.3259,2.69843,1.29141,0,0,3.28478,5
1774392237879,0.105188,1.01711,-0.0530964,17.5367,2.37501,-5.81843,0,0,3.27245,5
1774392237892,0.0563951,1.00883,0.0164994,17.5039,9.81743,-13.5037,0,0,3.27288,5
1774392237906,0.0823902,1.00344,0.00979896,18.478,15.3879,-18.8162,0,0,3.26537,5
1774392237919,0.0550676,1.03427,0.0192401,20.2162,16.8125,-22.0894,0,0,3.31921,5
1774392237933,0.178828,1.01717,-0.0671969,24.2779,12.1894,-24.7554,0,0,3.25997,5
1774392237946,-0.0226791,0.956843,-0.0683536,18.2851,5.75969,-18.4996,0,0,3.27523,5
1774392237959,-0.0411678,0.957759,-0.102127,12.1938,5.47414,-10.5733,0,0,3.27462,5
1774392237973,-0.0913033,1.0802,-0.0230983,11.2319,7.90114,-3.54773,0,0,3.74038,5
1774392237987,-0.0572981,0.952539,-0.0319384,13.4362,3.31144,2.82826,0,0,3.27217,5
1774392238000,0.0840137,0.985918,-0.0441288,7.01158,1.92019,5.99054,0,0,3.24043,5
1774392238013,0.071595,1.05532,-0.0296132,12.3657,1.44417,5.45199,0,0,3.29989,5
1774392238027,0.0338791,0.971122,-0.0373152,10.1517,-0.193575,3.43352,0,0,3.25152,5
1774392238040,0.0689175,1.07808,-0.00990201,12.9991,-1.28681,3.51122,0,0,3.55879,5
1774392238054,0.0593737,1.0825,-0.00636525,16.4781,-2.0892,5.01839,0,0,3.27491,5
1774392238067,0.0367337,1.13791,-0.0189802,22.7066,-2.95162,6.31673,0,0,3.27252,5
1774392238080,-0.0151229,1.14037,0.00525054,24.3234,-1.6223,11.222,0,0,3.27873,5
1774392238094,0.0305346,1.00847,-0.028397,29.7624,-1.45851,10.506,0,0,3.27882,5
1774392238107,-0.0394467,1.12102,-0.0385238,27.1224,-1.64829,18.3201,0,0,3.28367,5
1774392238121,-0.0172005,1.04991,-0.0531499,32.64,-1.35964,22.4,0,0,3.27756,5
1774392238134,0.0429138,1.03596,-0.0583239,31.3854,-1.4425,23.9952,0,0,3.67363,5
1774392238148,0.0415109,1.03978,-0.0658804,34.8903,-1.77762,25.4917,0,0,3.27626,5
1774392238161,0.0772149,1.00311,-0.0717482,34.1473,-2.12111,23.5478,0,0,3.25191,5
1774392238175,0.100956,0.991513,-0.0805228,33.5742,-3.16482,21.5251,0,0,3.31273,5
1774392238188,0.126824,1.01939,-0.0900405,34.1966,-4.10406,19.5479,0,0,3.27099,5
1774392238201,0.0946425,1.01832,-0.0939746,34.579,-4.79184,17.9209,0,0,3.27239,5
1774392238215,0.0590151,1.01928,-0.122174,35.2195,-4.50468,18.6467,0,0,3.27656,5
1774392238229,0.0449916,1.02755,-0.115512,35.9825,-3.87212,18.489,0,0,4.17814,5
1774392238243,0.0665432,1.01374,-0.128597,36.8143,-4.12139,18.245,0,0,3.2841,5
1774392238256,0.11475,1.01149,-0.126961,38.6129,-4.4494,16.6917,0,0,3.24906,5
1774392238269,0.0899671,1.00006,-0.148574,38.3748,-4.24489,15.2334,0,0,3.27708,5
1774392238283,0.0862004,0.989311,-0.157913,37.5216,-4.191,14.5136,0,0,3.26699,5
1774392238298,0.0762215,1.0014,-0.17132,37.5115,-3.84074,14.9757,0,0,3.28697,5
1774392238311,0.0990077,1.0107,-0.162641,37.5876,-4.34201,15.3348,0,0,3.26356,5
1774392238326,0.0604943,1.02605,-0.181061,38.5315,-3.51393,15.6479,0,0,4.92116,5
1774392238339,0.133426,1.03487,-0.179937,40.5208,-4.36387,16.1968,0,0,3.25782,5
1774392238353,0.0997768,1.06576,-0.191107,42.0869,-4.58712,15.8408,0,0,3.83018,5
1774392238367,0.126819,1.09045,-0.188247,44.7173,-4.93788,15.9615,0,0,3.27239,5
1774392238380,0.128167,1.1173,-0.174385,47.6706,-5.65435,16.213,0,0,3.27108,5
1774392238394,0.14445,1.15654,-0.184763,53.0678,-7.1482,17.0129,0,0,3.27982,5
1774392238407,0.0910858,1.1599,-0.196718,58.3049,-7.36576,18.3319,0,0,3.25828,5
1774392238422,0.0709012,1.16623,-0.199692,64.4625,-7.22942,21.0529,0,0,3.30404,5
1774392238435,0.0885353,1.20294,-0.198249,71.909,-8.14992,24.3413,0,0,3.28325,1
1774392238448,0.108543,1.23762,-0.187067,79.9759,-9.0203,26.779,0,0,3.28482,1
1774392238462,0.106456,1.23148,-0.213006,89.1862,-10.6364,29.7316,0,0,3.27038,1
1774392238475,0.137298,1.22173,-0.20123,97.6084,-12.2623,31.9552,0,0,3.49675,1
1774392238489,0.170489,1.26031,-0.170077,105.747,-15.1745,34.3821,0,0,3.2821,1
1774392238502,0.244505,1.40456,-0.136398,115.186,-18.3873,37.4032,0,0,3.23852,1
1774392238515,0.422697,1.55953,-0.0869161,134.408,-26.0306,36.4837,0,0,3.25737,1
1774392238529,0.327621,1.52119,-0.0689371,153.363,-34.8895,40.0961,0,0,3.23534,1
1774392238542,0.0995235,1.7479,-0.033623,167.789,-36.0347,46.6217,0,0,3.27589,5
1774392238556,0.0160403,1.97835,0.0139236,205.224,-34.9422,41.892,0,0,3.25973,5
1774392238569,0.102111,2.15318,-0.129171,231.73,-34.6802,41.8703,0,0,3.29041,5
1774392238582,-0.289798,2.29762,-0.192799,250.075,-19.7546,50.9119,0,0,3.27969,5
1774392238596,-0.1212,2.33648,-0.338387,250.13,-5.70614,51.5858,0,0,3.24573,5
1774392238609,-0.0411697,1.60471,-0.433608,250.13,5.85093,53.0795,0,0,3.27397,5
1774392238623,0.249044,1.74709,-0.426306,250.13,-2.60067,58.0386,0,0,3.25387,5
1774392238636,0.244408,1.74756,-0.392016,250.13,-3.95016,46.0435,0,0,3.29147,5
1774392238649,0.620929,1.14582,0.0685096,250.13,-13.5362,45.7338,0,0,3.25502,5
1774392238663,0.360913,1.13142,0.692209,230.25,-28.5048,69.2883,0,0,3.26895,1
1774392238676,3.82262,-2.82723,1.46345,218.569,-170.781,19.0815,0,0,3.27302,1
1774392238689,0.533697,-3.99419,0.638139,-110.573,-235.661,14.2739,0,0,3.2691,1
1774392238703,0.0701772,1.61832,1.13061,-184.489,-249.904,0.598157,0,0,3.27536,1
1774392238716,-0.533131,0.401319,0.840069,-144.988,-222.228,-46.3025,0,0,3.2565,1
1774392238730,-0.925781,0.92197,0.602257,-154.399,-167.781,-81.6424,0,0,3.29039,4
1774392238743,-0.99283,0.300455,0.354018,-149.267,-104.152,-97.2358,0,0,3.25341,4
1774392238756,-0.868781,0.417144,0.285983,-170.783,-51.1966,-92.8832,0,0,3.27258,3
1774392238770,-0.709775,0.371565,0.303137,-191.632,-3.15895,-67.6556,0,0,3.26821,3
1774392238783,-0.464113,0.553538,0.312211,-211.452,28.5692,-36.4293,0,0,3.52927,3
1774392238797,-0.232354,0.670317,0.313713,-224.845,53.6958,-9.0133,0,0,3.26795,3
1774392238810,-0.0162121,0.765396,0.301817,-234.384,70.8418,5.87912,0,0,3.24678,2
1774392238824,0.0771721,0.727484,0.279408,-247.647,79.9118,15.8557,0,0,3.28443,2
1774392238837,0.256675,0.927715,0.278083,-250.13,79.6877,23.6408,0,0,3.24604,2
1774392238850,0.399436,1.00401,0.234348,-250.137,69.3211,25.3841,0,0,3.25323,2
1774392238864,0.458204,1.23056,0.189675,-250.137,50.8644,27.5736,0,0,3.26576,2
1774392238877,0.45145,1.2776,0.116332,-250.137,29.2098,30.3505,0,0,3.2606,2
1774392238890,0.373435,1.29386,0.0873026,-250.137,9.60064,30.0391,0,0,3.28141,2
1774392238904,0.23725,1.34618,0.0696678,-250.137,-5.42833,25.3118,0,0,3.2633,2
1774392238917,0.151792,1.39429,0.0567051,-250.137,-14.5376,15.5787,0,0,3.27371,2
1774392238930,0.164731,1.47931,0.0245739,-250.137,-20.5469,4.6434,0,0,3.24863,2
1774392238944,0.231601,1.59294,-0.0202846,-250.137,-26.4023,-3.6774,0,0,3.33847,2
1774392238957,0.313071,1.7706,-0.0797821,-250.137,-33.5664,-5.64298,0,0,3.26034,5
1774392238971,0.323921,1.86161,-0.127691,-250.137,-39.6612,-0.785521,0,0,3.27993,5
1774392238984,0.267371,1.91477,-0.188662,-250.137,-42.2137,7.05289,0,0,3.35201,5
1774392238997,0.139066,1.9352,-0.220059,-250.137,-38.4464,16.9247,0,0,3.25134,5
1774392239011,0.00530417,1.96251,-0.331234,-250.137,-29.1576,29.6794,0,0,3.27282,5
1774392239024,-0.0888868,1.94418,-0.452764,-244.193,-16.4274,44.0258,0,0,3.2496,5
1774392239037,-0.165391,1.81315,-0.579691,-236.101,-1.33522,56.0785,0,0,3.28232,5
1774392239051,-0.0977486,1.84336,-0.646154,-226.175,15.1187,52.7352,0,0,3.2615,3
1774392239064,0.140174,1.85517,-0.699685,-206.996,23.8137,39.3682,0,0,3.26995,3
1774392239078,0.487773,1.92106,-0.830404,-178.399,15.1328,33.6659,0,0,3.26236,3
1774392239091,0.520589,1.80575,-0.960777,-147.703,-4.63553,49.9513,0,0,3.26682,3
1774392239104,0.29361,1.80469,-1.10135,-114.915,-19.5128,58.387,0,0,3.27032,3
1774392239118,-0.0988774,1.70994,-1.23736,-77.798,-17.0836,41.1432,0,0,3.25,3
1774392239131,-0.39161,1.49254,-1.31869,-51.3311,2.46063,4.11838,0,0,3.28189,3
1774392239144,-0.39233,1.51454,-1.32808,-27.7043,24.0423,-30.6213,0,0,3.24839,3
1774392239158,-0.135312,1.70826,-1.26593,1.6907,35.3707,-38.427,0,0,3.27726,3
1774392239171,-0.00674318,1.80737,-1.16627,42.7246,38.7761,-26.9427,0,0,3.26802,3
1774392239185,-0.176645,1.71093,-1.06544,80.2618,49.8219,-17.707,0,0,3.24284,3
1774392239198,0.153144,3.4134,1.32283,249.623,58.1507,-53.1764,0,0,3.2773,3
1774392239211,0.104733,-1.20359,1.43815,247.594,43.342,-49.4006,0,0,3.25624,5
1774392239225,0.0993918,1.30247,0.279932,237.686,80.5224,-52.8218,0,0,3.28887,5
1774392239238,-0.124132,1.25075,0.032967,250.093,101.045,-29.2918,0,0,3.2476,5
1774392239251,-0.605029,0.750293,0.248926,236.56,100.886,12.2041,0,0,3.26039,5
1774392239265,0.248682,1.09132,0.119783,188.982,71.1652,7.67766,0,0,3.26887,5
1774392239278,-0.0565867,1.49676,-0.0475075,177.979,27.1545,28.4645,0,0,3.26152,5
1774392239292,0.122158,0.640734,-0.0699567,146.034,-6.44911,33.4203,0,0,3.28134,5
1774392239305,-0.0450665,0.516487,-0.069339,86.0496,-3.47455,32.4533,0,0,3.25237,5
1774392239318,-0.00872573,0.910637,-0.0268229,59.3394,12.0452,23.8806,0,0,3.27282,5
1774392239332,0.161264,0.919876,0.0324201,50.2105,15.387,15.5821,0,0,3.25139,5
1774392239345,0.204375,0.880081,-0.0207317,39.8173,9.81057,4.08782,0,0,3.33551,5
1774392239358,0.0148589,0.940374,0.058201,30.387,13.2036,0.461229,0,0,3.2615,5
1774392239372,0.0875291,0.973954,-0.0281349,26.5839,16.0373,-5.51647,0,0,3.28276,5
1774392239385,0.0993066,0.983838,0.0234251,24.1219,12.1947,-7.55117,0,0,3.26621,5
1774392239399,0.0485922,0.975627,-0.00620026,21.5649,11.8255,-10.9364,0,0,3.26699,5
1774392239412,-0.011906,0.966112,0.0101724,17.2648,18.1262,-13.7093,0,0,3.27658,5
1774392239425,0.0669903,1.02461,-0.0120962,15.6156,15.8313,-14.1666,0,0,3.25073,5
1774392239439,0.0246248,1.00765,0.0443967,16.4859,15.8625,-13.7646,0,0,3.27286,5
1774392239452,0.0824758,0.986434,0.0301004,15.0197,14.6905,-12.4315,0,0,3.27399,5
1774392239465,0.048023,1.03492,0.000149016,16.7049,10.8207,-10.3421,0,0,3.28275,5
1774392239479,-0.0242984,1.00892,0.0189494,15.3856,8.93693,-4.30812,0,0,3.26969,5
1774392239492,-0.044091,0.992999,-0.039747,17.8857,7.39393,-0.492329,0,0,3.58246,5
1774392239506,-0.0247544,1.01284,-0.0334785,15.7469,9.08654,4.35953,0,0,3.24741,5
1774392239519,0.0472492,1.01658,0.00153478,17.902,6.38975,3.44548,0,0,3.24308,5
1774392239532,0.0245271,0.994252,-0.012139,15.9296,5.71956,4.2495,0,0,3.238,5
1774392239546,0.0601256,1.0335,0.00941425,14.5385,4.08885,2.11326,0,0,3.23121,5
1774392239559,0.000297659,1.13354,0.0134079,26.2094,1.67896,0.348789,0,0,3.23973,5
1774392239572,0.0561188,1.12917,0.00735434,28.0099,1.9001,-3.34011,0,0,3.23771,5
1774392239586,-0.035919,1.1877,-0.0152683,37.9322,3.45337,-8.23726,0,0,3.23936,5
1774392239599,0.00589548,1.13163,-7.55875e-05,42.8403,5.32265,-5.69463,0,0,3.25852,5
1774392239612,0.0724229,1.15394,-0.0148192,46.7897,3.71473,-2.20129,0,0,3.24471,5
1774392239626,0.0142057,1.14409,-0.0255812,51.368,2.02795,4.90242,0,0,3.24363,5
1774392239639,-0.0339402,1.07651,-0.0324366,48.01,1.84026,6.71976,0,0,3.2338,5
1774392239652,-0.00891358,1.07156,-0.0494758,49.096,1.23083,12.3191,0,0,3.24062,5
1774392239666,-0.0245803,1.0623,-0.0670512,49.3808,1.80744,16.4761,0,0,3.23817,5
1774392239679,0.0202846,1.09748,-0.0552346,50.4929,1.80154,17.0822,0,0,3.24465,5
1774392239692,0.0416418,1.08551,-0.0792263,53.4948,1.39054,17.4873,0,0,3.42616,5
1774392239706,0.0859611,1.06456,-0.0922205,55.3913,-0.125237,16.149,0,0,3.23361,5
1774392239719,0.0876381,1.06956,-0.0794094,55.7242,-1.02022,13.1768,0,0,3.28986,5
1774392239733,0.123115,1.08731,-0.0885774,59.0283,-2.06558,9.54521,0,0,3.25376,5
1774392239746,0.0759184,1.03711,-0.129921,59.7764,-3.49953,8.4917,0,0,3.33217,5
1774392239759,0.0399738,1.04585,-0.138386,60.6615,-3.77018,8.90715,0,0,3.27223,5
1774392239773,0.0638461,1.08039,-0.125795,62.0949,-4.52446,8.09404,0,0,3.26552,5
1774392239786,0.0450156,1.07498,-0.145653,66.5059,-5.28018,9.05057,0,0,3.27334,5
1774392239799,0.0257307,1.05455,-0.172717,67.7672,-5.54881,10.8572,0,0,3.27017,5
1774392239813,-0.0151773,1.07145,-0.183054,71.0056,-6.15087,14.4853,0,0,3.27643,5
1774392239826,-0.00299032,1.08538,-0.182862,74.1128,-5.45247,15.7215,0,0,3.24926,5
1774392239840,0.00921661,1.09881,-0.205697,78.7723,-6.0897,18.8608,0,0,3.25189,5
1774392239853,0.0355137,1.14163,-0.210669,83.8322,-6.95923,20.6664,0,0,3.23374,5
1774392239866,0.0575078,1.1812,-0.194174,91.4505,-8.01973,21.996,0,0,3.28451,5
1774392239880,0.0406114,1.15346,-0.203081,97.0976,-10.4736,24.4735,0,0,3.25336,5
1774392239893,0.0497592,1.21697,-0.20191,104.725,-11.9878,26.1933,0,0,3.2461,5
1774392239906,0.110295,1.2389,-0.213565,114.338,-13.994,25.9321,0,0,3.28286,5
1774392239920,0.0238675,1.23901,-0.205606,122.426,-15.2329,31.5633,0,0,3.24258,5
1774392239933,0.0717831,1.43773,-0.144834,135.541,-15.5335,32.7598,0,0,3.27356,5
1774392239946,0.324912,1.54512,-0.0859861,156.555,-22.1329,30.7313,0,0,3.25534,5
1774392239960,0.245998,1.6404,-0.0150016,176.642,-29.2383,30.2305,0,0,3.32086,5
1774392239973,0.169084,1.85926,0.0215467,197.198,-35.0818,31.6903,0,0,3.24821,5
1774392239987,0.201013,2.20045,0.0188124,231.691,-34.4447,21.9985,0,0,3.27738,5
1774392240000,0.146026,2.36782,-0.168988,250.075,-32.1976,15.2644,0,0,3.27565,5
1774392240013,0.0507669,2.33197,-0.153884,250.13,-30.4556,13.3036,0,0,3.26749,5
1774392240027,0.0544252,2.05485,-0.336008,250.13,-24.3693,6.3871,0,0,3.264,5
1774392240040,0.189756,1.82852,-0.131389,250.13,-25.9266,4.23544,0,0,3.27204,5
1774392240053,0.329383,1.89566,0.0493935,250.13,-37.0355,8.17143,0,0,3.26219,5
1774392240067,0.486766,1.75048,-0.0869681,250.13,-39.6182,17.065,0,0,3.23913,5
1774392240080,0.65784,1.03019,0.0683192,250.13,-53.7136,30.1517,0,0,3.26567,5
1774392240094,0.865422,0.536635,0.355748,250.13,-70.7277,45.595,0,0,3.27456,3
1774392240107,0.772678,-3.35709,2.95509,188.36,-128.248,63.1079,0,0,3.30712,3
1774392240120,-0.109381,-3.91252,-0.195993,-149.098,-183.111,48.4408,0,0,3.26615,3
1774392240134,-0.412068,1.31506,1.0242,-217.566,-156.865,-16.9266,0,0,3.24856,3
1774392240147,-0.873437,-0.0605389,0.607299,-228.958,-108.785,-46.2634,0,0,3.28639,3
1774392240160,-0.737736,1.33072,0.600619,-217.447,-61.7361,-40.0339,0,0,3.25817,3
1774392240174,-0.639648,0.297135,0.503899,-220.495,-14.0358,-20.6686,0,0,3.26943,3
1774392240187,-0.435829,0.802904,0.423496,-217.338,10.1643,-14.5907,0,0,3.29339,2
1774392240201,-0.4183,0.475749,0.394432,-231.104,41.5017,-6.80192,0,0,3.58844,2
1774392240214,-0.242331,0.529761,0.365622,-243.573,60.1047,-6.01761,0,0,3.25208,2
1774392240228,-0.00678712,0.62137,0.372038,-250.118,62.3825,2.08264,0,0,3.27167,2
1774392240241,0.170505,0.704907,0.361867,-250.137,51.5743,19.6574,0,0,3.26649,2
1774392240254,0.199077,0.720868,0.313959,-250.137,40.1563,34.3987,0,0,3.28352,2
1774392240268,0.178569,0.912134,0.279711,-250.137,31.1947,35.0287,0,0,3.25237,2
1774392240281,0.164863,1.17205,0.22391,-250.137,24.2041,24.3221,0,0,3.26562,2
1774392240294,0.0413858,1.32978,0.148325,-250.137,18.8937,26.0102,0,0,3.2483,2
1774392240308,-0.00684014,1.44158,0.0689982,-250.137,14.8518,43.0178,0,0,3.28736,2
1774392240321,0.0174572,1.43825,0.0506285,-250.137,10.9202,55.1013,0,0,3.25469,2
1774392240335,-0.0101167,1.43216,0.0675428,-250.137,9.15794,55.5331,0,0,3.3268,2
1774392240348,0.0113677,1.55287,0.0285145,-250.137,9.23641,44.3236,0,0,3.30452,5
1774392240361,0.129782,1.61638,-0.0559761,-250.137,7.62315,29.7231,0,0,3.30202,5
1774392240375,0.22001,1.6337,-0.100851,-250.137,2.89201,16.7487,0,0,3.30362,5
1774392240388,0.235033,1.81016,-0.0964574,-250.137,-2.13002,8.80239,0,0,3.28308,5
1774392240402,0.212757,1.88172,-0.103481,-250.137,-6.22439,8.42099,0,0,3.91847,5
1774392240416,0.144626,2.01253,-0.0814086,-250.137,-7.85771,13.8159,0,0,3.28439,5
1774392240429,0.0658218,2.10282,-0.0939318,-250.137,-5.23685,20.8416,0,0,3.27573,5
1774392240442,0.0372515,2.01873,-0.16906,-250.137,1.02707,25.155,0,0,3.29836,5
1774392240456,0.127724,1.75522,-0.259802,-250.137,6.12216,26.8651,0,0,3.28737,5
1774392240469,0.316687,1.67447,-0.317341,-250.137,3.2148,30.6756,0,0,3.28458,5
1774392240483,0.547679,1.83684,-0.406539,-246.979,-10.9804,46.6469,0,0,3.2796,5
1774392240496,0.65547,1.89206,-0.603755,-222.326,-36.5951,69.5422,0,0,3.28636,5
1774392240509,0.39558,1.84156,-0.806608,-193.072,-55.6758,91.5829,0,0,3.29465,5
1774392240523,-0.136756,2.01379,-1.02892,-148.979,-53.5407,94.8376,0,0,3.28013,5
1774392240536,-0.579584,1.75495,-1.2749,-111.258,-23.2357,61.7402,0,0,3.29365,5
1774392240550,-0.422413,1.88995,-1.45394,-82.2242,8.40155,10.3978,0,0,3.28825,5
1774392240563,-0.159025,2.02302,-1.52698,-21.7534,25.8105,-11.0351,0,0,3.31306,5
1774392240576,-0.147518,1.79338,-1.40588,19.5634,39.0216,-7.23275,0,0,3.28665,5
1774392240590,-0.419788,1.62681,-1.16477,53.3265,66.5436,-8.30214,0,0,3.30821,5
1774392240603,-0.522924,1.52468,0.0209562,38.5328,101.925,-15.665,0,0,3.28815,5
1774392240617,0.18374,1.17678,2.35776,249.499,49.2568,-89.7555,0,0,3.33206,5
1774392240630,0.267163,-0.182446,1.77803,250.128,44.244,-134.994,0,0,3.2848,5
1774392240643,-0.539444,0.437103,-0.124567,250.13,61.0261,-105.379,0,0,3.28156,5
1774392240657,-0.127781,0.506734,-0.194962,194.068,66.1069,-59.9679,0,0,3.28849,5
1774392240670,-0.244779,0.902815,0.424409,134.955,56.1671,-39.641,0,0,3.28917,5
1774392240684,0.0604929,1.81164,-0.0625188,124.291,9.77236,9.43337,0,0,3.29865,5
1774392240697,0.241531,2.14677,0.0599376,165.016,-29.4171,28.0055,0,0,3.27536,5
1774392240711,-0.0447184,0.595365,0.158445,158.478,-27.9053,28.4262,0,0,3.3318,5
1774392240724,-0.181692,0.147978,0.125409,84.42,4.27778,15.7555,0,0,3.27278,5
1774392240737,0.110606,1.08494,0.162171,63.7869,16.5891,11.0142,0,0,3.28725,5
1774392240751,0.220158,1.1231,0.201951,79.9288,6.1153,7.64367,0,0,3.28397,5
1774392240764,0.0982627,0.722695,0.185628,65.8817,-0.369915,4.65018,0,0,3.29173,5
1774392240777,0.0279378,0.892466,0.108781,48.5024,4.61867,2.25906,0,0,3.29723,5
1774392240791,0.0496964,0.989507,0.0743899,45.3453,7.79965,4.10136,0,0,3.2773,5
1774392240804,0.0653518,0.894273,0.146127,36.5454,2.98387,6.99136,0,0,3.2968,5
1774392240818,0.00566804,0.990731,0.107128,30.8719,-0.630411,10.9348,0,0,3.29151,5
1774392240831,-0.00847456,0.965458,0.123211,28.9371,2.94351,13.0015,0,0,3.31428,5
1774392240844,0.0240083,0.977965,0.064744,26.5187,3.76852,12.0182,0,0,3.2943,5
1774392240858,0.0671681,0.960536,0.113527,23.3834,5.26271,9.36671,0,0,3.29356,5
1774392240871,0.128358,0.986443,0.0527924,22.7652,7.26881,3.20165,0,0,3.29586,5
1774392240885,0.0873622,0.946731,0.0362153,20.2898,13.2797,-4.19163,0,0,3.26826,5
1774392240898,0.0480472,0.978115,0.0164557,18.1362,18.473,-8.95522,0,0,3.29202,5
1774392240911,0.042508,0.958107,0.0727181,15.329,16.4031,-10.9406,0,0,3.3276,5
1774392240925,0.0847508,0.945619,0.0734825,10.6324,17.257,-12.4002,0,0,3.33856,5
1774392240938,0.117999,0.95576,0.0630402,9.00487,17.1454,-14.2083,0,0,3.28008,5
1774392240952,0.0384816,1.04035,0.12032,10.4689,19.0477,-15.3858,0,0,3.31191,5
1774392240965,0.0495057,1.02182,0.0763904,14.6212,20.9866,-18.5554,0,0,3.29341,5
1774392240979,0.0301257,1.03193,0.153668,17.5485,25.4751,-21.4494,0,0,3.27434,5
1774392240992,0.0774015,1.11361,0.133887,25.5105,27.2009,-27.9881,0,0,3.29993,5
1774392241005,0.0574722,1.07368,0.182619,35.3218,29.2458,-32.361,0,0,3.29953,5
1774392241019,0.190986,1.05332,-0.0642017,43.5555,19.5481,-24.3979,0,0,3.32886,5
1774392241032,-0.129752,1.00877,-0.0610508,45.2392,18.2101,-17.0525,0,0,3.2731,5
1774392241046,-0.0470424,0.982552,0.0162171,38.7142,10.7095,-9.92209,0,0,3.28593,5
1774392241059,-0.0101931,1.07061,-0.0499637,41.0236,9.40847,-4.41342,0,0,3.29304,5
1774392241073,-0.0559248,1.24231,0.118061,55.2475,9.37415,1.88954,0,0,3.27537,5
1774392241086,0.129206,1.16494,-0.0103475,73.8832,8.67385,5.79747,0,0,3.30039,5
1774392241099,0.0764344,1.0081,0.0439195,77.5767,7.6443,1.69167,0,0,3.27819,5
1774392241113,0.0598967,1.10474,0.0218384,82.1238,5.99729,-1.61606,0,0,3.38156,5
1774392241126,0.00709862,0.938814,-0.202011,77.3121,3.99835,-0.887675,0,0,3.273,5
1774392241140,0.00562258,0.829159,-0.0646483,56.0407,3.96194,-7.40037,0,0,3.31,5
1774392241153,-0.0152769,0.985793,-0.0731996,40.2914,3.90856,-6.52932,0,0,3.29397,5
1774392241166,-0.0297133,1.20982,-0.0528357,42.2461,4.20522,-1.88412,0,0,3.27702,5
1774392241180,-0.0375586,1.097,-0.0707118,43.6142,2.91226,10.4897,0,0,3.29491,5
1774392241193,-0.0504729,1.16689,-0.0727438,45.8178,2.73336,12.338,0,0,3.27611,5
1774392241207,-0.0289158,1.08974,-0.0895162,48.9677,2.70238,17.6711,0,0,3.32217,5
1774392241220,-0.00184368,1.15932,-0.0959154,48.9314,2.61096,19.3385,0,0,3.29695,5
1774392241233,0.0131092,1.13319,-0.0842864,54.099,2.71724,20.9874,0,0,3.30136,5
1774392241247,0.0408775,1.15589,-0.0966183,57.4784,1.02034,21.7991,0,0,3.29041,5
1774392241260,0.0470882,1.14362,-0.0971652,62.1692,-0.331833,21.7711,0,0,3.26262,5
1774392241274,0.0522206,1.12874,-0.119032,65.6613,-0.967564,21.5503,0,0,3.27582,5
1774392241287,0.0155632,1.13085,-0.104078,69.4543,-1.74576,22.3335,0,0,3.249,5
1774392241300,0.035788,1.1175,-0.152105,73.2939,-2.92015,23.1046,0,0,3.27789,5
1774392241314,0.0769437,1.14002,-0.115417,77.0498,-4.61326,23.0308,0,0,3.25267,5
1774392241327,0.0530972,1.12993,-0.178883,83.614,-6.26985,21.0746,0,0,3.39053,5
1774392241341,0.0801875,1.126,-0.179441,87.7966,-7.73607,19.1812,0,0,3.26713,5
1774392241354,0.0521415,1.10436,-0.183816,94.5828,-9.67359,19.7236,0,0,3.30476,5
1774392241367,0.0478728,1.11907,-0.194284,97.145,-10.5013,20.8592,0,0,3.27423,5
1774392241381,0.0838056,1.19105,-0.19798,105.563,-12.886,21.5399,0,0,3.24621,5
1774392241394,0.096373,1.21667,-0.193868,113.252,-15.2677,22.6379,0,0,3.27325,5
1774392241408,0.025985,1.30911,-0.150606,122.058,-16.523,25.5638,0,0,3.25274,5
1774392241421,0.182813,1.46869,-0.158408,139.726,-19.708,25.6486,0,0,3.31473,5
1774392241434,0.197437,1.48211,-0.0797371,155.548,-24.0024,23.6168,0,0,3.26621,5
1774392241448,0.173702,1.76033,0.0246272,177.324,-30.7432,25.2927,0,0,3.27106,5
1774392241461,0.378376,2.0146,0.0960801,206.432,-38.9449,17.8239,0,0,3.27306,5
1774392241474,0.491381,2.22357,0.138218,237.35,-49.1451,11.4389,0,0,3.25093,5
1774392241488,0.34108,2.44713,-0.000530395,250.092,-54.5792,-0.178991,0,0,3.27767,5
1774392241501,0.1766,2.56169,-0.132886,250.13,-53.0732,5.97396,0,0,3.25382,5
1774392241515,0.233846,2.44832,-0.118237,250.13,-53.5634,1.08333,0,0,3.29991,3
1774392241528,0.318913,1.80787,0.0404702,250.13,-58.1847,6.01578,0,0,3.26999,3
1774392241541,0.235765,1.91767,0.20232,250.13,-67.712,11.6397,0,0,3.29547,3
1774392241555,0.556267,1.79043,0.0593053,250.13,-69.4452,7.37916,0,0,3.27062,3
1774392241568,0.467969,0.940265,0.259259,250.13,-80.7981,13.3714,0,0,3.25754,3
1774392241581,0.910396,-2.01873,0.689996,250.13,-119.092,8.0008,0,0,3.27056,3
1774392241595,1.89695,-3.78564,0.358582,28.906,-173.562,81.4597,0,0,3.25619,3
1774392241608,-0.5649,-0.326779,0.539384,-165.114,-140.039,50.7483,0,0,3.30739,3
1774392241622,-0.707785,-0.0995193,0.645225,-164.863,-95.3322,-46.8455,0,0,3.27836,3
1774392241635,-0.926645,0.741422,0.534487,-210.01,-40.4771,-39.4344,0,0,3.27034,3
1774392241648,-0.593455,0.411067,0.469075,-192.175,-0.470806,-11.3131,0,0,3.26545,2
1774392241662,-0.335269,0.640946,0.422352,-207.435,32.8089,13.8332,0,0,3.26297,2
1774392241675,-0.267427,0.29129,0.387381,-209.041,54.0205,20.1414,0,0,3.27856,2
1774392241688,-0.145626,0.420986,0.396196,-228.164,72.0605,13.2877,0,0,3.26043,2
1774392241702,-0.0344885,0.286315,0.355185,-250.072,82.2291,6.66104,0,0,3.27017,2
1774392241715,0.0819403,0.431893,0.402839,-250.137,81.818,8.70381,0,0,3.25924,2
1774392241729,0.246739,0.49529,0.409148,-250.137,70.7583,25.0656,0,0,3.3461,2
1774392241742,0.267718,0.657397,0.414767,-250.137,53.8521,41.1275,0,0,3.26284,2
1774392241755,0.160203,0.834325,0.383457,-250.137,40.7643,49.3875,0,0,3.30749,2
1774392241769,0.0600685,1.15101,0.325484,-250.137,38.6323,45.5078,0,0,3.27271,2
1774392241782,0.0712335,1.7638,0.160732,-250.137,37.1799,33.2732,0,0,3.25224,2
1774392241796,0.132022,1.57054,0.0576418,-250.137,30.2345,34.9568,0,0,3.27474,2
1774392241809,0.223665,1.33151,0.103046,-250.137,18.1506,37.6941,0,0,3.25345,2
1774392241822,0.242096,1.548,0.141411,-250.137,6.51572,40.8151,0,0,3.33384,5
1774392241836,0.322112,1.77499,0.0986017,-250.137,-1.41901,35.5425,0,0,3.26689,5
1774392241849,0.435957,1.84147,0.00413212,-250.137,-8.23153,25.2141,0,0,3.27041,5
1774392241863,0.404211,1.84155,-0.0325324,-250.137,-15.0103,26.8957,0,0,3.28073,5
1774392241876,0.334089,2.02594,-0.0798427,-250.137,-18.7065,39.3368,0,0,3.25095,5
1774392241889,0.208875,2.17407,-0.156843,-250.137,-16.0842,49.1767,0,0,3.27591,5
1774392241903,0.0819304,2.28801,-0.245166,-250.137,-7.01187,45.9714,0,0,3.25474,5
1774392241916,0.0550653,2.17925,-0.334273,-250.137,5.68721,31.5317,0,0,3.29426,5
1774392241929,0.306853,2.0966,-0.451079,-250.137,10.8396,19.3722,0,0,3.27004,5
1774392241943,0.625854,2.07797,-0.60932,-242.23,-1.75622,32.9289,0,0,3.30169,5
1774392241956,0.661687,2.05432,-0.820483,-211.002,-25.0448,68.3901,0,0,3.27123,5
1774392241970,0.217299,1.9478,-1.06349,-182.269,-36.5686,93.2082,0,0,3.26404,5
1774392241983,-0.404378,1.95869,-1.29669,-142.988,-21.4194,82.1933,0,0,3.27354,5
1774392241996,-0.770153,1.86424,-1.49122,-97.8221,16.1928,35.8257,0,0,3.26086,3
1774392242010,-0.631063,1.7202,-1.57527,-58.2786,49.785,-1.63604,0,0,3.30602,3
1774392242023,-0.306546,1.82735,-1.5373,-13.508,64.3686,-12.578,0,0,3.266,3
1774392242037,-0.255139,1.78415,-1.44698,29.2157,71.3836,-13.7979,0,0,3.28345,3
1774392242050,-0.362746,1.65251,-1.27964,61.8794,81.5878,-24.7154,0,0,3.26773,3
1774392242063,0.797693,3.98826,3.97374,-55.1994,74.7152,-49.9627,0,0,3.27019,3
1774392242077,0.991225,0.22405,2.62196,249.219,3.25953,-132.73,0,0,3.2795,3
1774392242090,0.0189972,-0.33025,1.63212,250.127,0.116272,-160.786,0,0,3.2473,3
1774392242103,-0.350457,0.950901,-0.122132,250.13,-7.87686,-136.744,0,0,3.29395,5
1774392242117,-0.393098,1.08891,0.0839357,236.111,26.9873,-46.6664,0,0,3.25756,5
1774392242130,-0.383592,1.24969,0.0876281,186.111,33.2637,-14.3105,0,0,3.2885,5
1774392242144,0.0282245,1.78664,-0.0428081,189.38,30.0021,15.9857,0,0,3.26723,5
1774392242157,-0.0229388,0.587266,-0.129938,159.098,5.33333,22.7203,0,0,3.32723,5
1774392242170,-0.0304801,0.170045,-0.0720653,76.9252,7.36035,25.0008,0,0,3.27134,5
1774392242184,0.0421193,1.00561,-0.0110458,45.4986,18.5086,19.5583,0,0,3.25022,5
1774392242197,0.109771,1.09331,0.0881296,54.7129,20.6653,11.9464,0,0,3.30247,5
1774392242211,0.0957728,0.813404,0.065785,45.4628,22.0873,7.72256,0,0,3.25845,5
1774392242224,0.134816,0.893401,0.0430817,31.9336,15.7213,2.96081,0,0,3.28115,5
1774392242237,0.112902,0.901814,0.0407829,25.2566,15.4055,-1.91671,0,0,3.27832,5
1774392242251,0.0948165,0.917403,0.0315401,17.976,16.9724,-5.87366,0,0,3.27145,5
1774392242264,0.102258,1.02656,0.0198336,19.7276,14.0393,-8.47314,0,0,3.27002,5
1774392242277,0.0609963,0.92215,0.0326511,15.5316,12.7291,-8.32107,0,0,3.24969,5
1774392242291,0.0532611,1.00812,0.0480192,12.8021,10.8834,-7.00394,0,0,3.27415,5
1774392242304,0.0369464,0.975018,0.0551404,11.7665,9.40899,-4.80048,0,0,3.24817,5
1774392242317,0.0349222,0.986272,0.0588196,8.73426,7.9357,-3.97194,0,0,3.25513,5
1774392242331,0.0422001,1.0303,0.0447477,11.975,6.97996,-4.44134,0,0,3.29717,5
1774392242344,0.0507388,0.934558,0.0483221,8.92515,7.54792,-5.69853,0,0,3.27978,5
1774392242358,0.0505381,0.990445,0.0553848,6.50343,7.41262,-6.73735,0,0,3.27393,5
1774392242371,0.0685141,1.02668,0.054448,9.14477,8.09719,-9.95983,0,0,3.25634,5
1774392242384,0.0450387,0.996245,0.048613,10.3019,8.65482,-11.0806,0,0,3.27489,5
1774392242398,0.0228156,0.970344,0.0566009,8.68423,8.8087,-10.7491,0,0,3.2496,5
1774392242411,0.0756648,1.05937,0.0563975,11.3584,7.45443,-11.6538,0,0,3.30351,5
1774392242424,0.0219955,1.00224,0.0537242,17.8128,7.5265,-12.9199,0,0,3.261,5
1774392242438,-0.00159163,0.983249,0.0381634,15.1302,7.93009,-12.4594,0,0,3.28108,5
1774392242451,0.0203984,1.0434,0.0580067,19.1178,8.12918,-12.694,0,0,3.27128,5
1774392242465,0.00763188,1.03471,0.00951858,24.1681,8.12216,-13.3035,0,0,3.26504,5
1774392242478,-0.00627845,1.00722,-0.0113707,25.0965,11.1665,-10.6415,0,0,3.2743,5
1774392242491,-0.0639222,1.00781,-0.01196,26.0582,10.1176,-7.01847,0,0,3.25228,5
1774392242505,0.0502134,0.953882,-0.0015168,22.9254,8.70651,-4.68636,0,0,3.27482,5
1774392242518,-0.0454226,1.01872,0.0216134,20.7622,9.18178,-2.00801,0,0,3.25937,5
1774392242532,-0.0218458,1.05135,0.00496564,23.5641,8.18618,-0.0897072,0,0,3.38521,5
1774392242545,0.0222416,1.0882,-0.0155231,29.5546,7.56674,1.64367,0,0,3.26076,5
1774392242558,-0.0117936,1.05801,-0.0253418,34.3064,8.47058,4.69317,0,0,3.30347,5
1774392242572,-0.0530176,1.00102,0.0309698,33.8563,6.85978,5.783,0,0,3.26963,5
1774392242585,0.0055679,1.00341,-0.00664878,32.6372,4.88377,6.28856,0,0,3.24854,5
1774392242598,0.0223773,1.05686,-0.0150947,33.1283,4.05591,6.11502,0,0,3.27237,5
1774392242612,0.02076,1.07025,-0.00201818,36.5851,3.68812,4.19658,0,0,3.25319,5
1774392242625,0.0156504,1.08732,-0.0439807,40.5987,1.98981,1.36724,0,0,3.25978,5
1774392242639,-0.0310178,1.14352,-0.0495329,42.5895,2.38812,-8.20039,0,0,3.30495,5
1774392242652,-0.00379754,1.10444,-0.0636505,45.0918,2.56436,-6.31861,0,0,3.2711,5
1774392242665,0.0106702,1.17883,-0.0411277,46.5605,4.07183,-9.04528,0,0,3.27939,5
1774392242679,-0.00674927,1.1928,-0.0145366,46.6714,4.07632,4.64607,0,0,3.25619,5
1774392242692,-0.00732137,1.23295,-0.0365118,52.2809,2.24974,12.3891,0,0,3.32134,5
1774392242706,-0.0911357,1.1644,-0.0453661,53.0664,1.26249,19.9392,0,0,3.27491,5
1774392242719,-0.0487946,1.22601,-0.0682455,59.5227,2.28701,27.1997,0,0,3.30536,5
1774392242732,-0.0196761,1.16753,-0.0800195,63.8573,2.21396,29.8851,0,0,3.25373,5
1774392242746,0.0120492,1.21097,-0.075948,69.6316,1.04929,30.3726,0,0,3.30791,5
1774392242759,0.0498607,1.20122,-0.0732556,74.6567,-0.0120925,30.1381,0,0,3.27749,5
1774392242773,0.0546636,1.21866,-0.0802873,81.902,-1.68203,29.0643,0,0,3.25869,5
1774392242786,0.101573,1.22847,-0.0839661,87.5099,-4.71612,28.9393,0,0,3.27286,5
1774392242799,0.110551,1.28901,-0.0876283,95.6094,-6.79531,25.9022,0,0,3.25308,5
1774392242813,0.117641,1.27643,-0.0857029,105.611,-10.6069,25.2919,0,0,3.2928,5
1774392242826,0.129093,1.30722,-0.0895803,114.69,-13.9062,22.7557,0,0,3.25982,5
1774392242839,0.0662307,1.32438,-0.0774529,128.432,-17.9193,23.8669,0,0,3.28754,5
1774392242853,0.143415,1.32058,-0.0749636,139.935,-22.1477,24.989,0,0,3.26845,5
1774392242866,0.165904,1.43546,-0.0304947,153.357,-26.8485,24.9543,0,0,3.26573,5
1774392242880,0.242296,1.53806,0.0119956,173.078,-32.8599,23.0972,0,0,3.27408,5
1774392242893,0.088898,1.69186,0.119339,195.14,-38.5479,24.2409,0,0,3.25276,5
1774392242906,0.321353,1.94187,0.220687,221.844,-45.7723,21.375,0,0,3.29486,5
1774392242920,0.357243,2.07939,0.222404,250.045,-53.9298,15.7649,0,0,3.26178,5
1774392242933,0.167934,2.00647,0.0285523,250.13,-58.338,8.45697,0,0,3.32486,5
1774392242947,0.0137068,2.19875,-0.229915,250.13,-53.8836,18.0248,0,0,3.27645,5
1774392242960,-0.142776,2.35955,-0.235811,250.13,-45.6506,20.641,0,0,3.30999,5
1774392242973,0.0566251,1.71804,-0.0468386,250.13,-40.9758,17.985,0,0,3.27502,5
1774392242987,0.167175,1.59218,0.0694896,250.13,-47.0277,16.2723,0,0,3.24676,5
1774392243000,0.272426,1.82161,-0.042412,250.13,-46.414,14.0601,0,0,3.27984,5
1774392243013,0.480653,0.95621,0.0595513,250.13,-52.8662,7.44726,0,0,3.26002,5
1774392243027,0.682346,-0.0868515,0.325824,250.13,-61.8358,-1.28685,0,0,3.33584,5
1774392243040,0.303399,-2.464,2.68358,182.241,-86.0497,18.1936,0,0,3.27719,5
1774392243054,0.131714,-2.50638,-0.444156,-67.307,-115.781,44.4558,0,0,3.27573,5
1774392243067,-0.410632,0.312149,0.669022,-138.779,-91.2946,-14.7009,0,0,3.2728,5
1774392243080,-0.883876,-0.189399,0.402206,-187.298,-38.6689,-39.9474,0,0,3.24206,5
1774392243094,-0.738759,0.951113,0.464777,-177.434,8.49253,-29.5045,0,0,3.2756,5
1774392243107,-0.576734,0.269019,0.38006,-184.125,44.4116,-13.1634,0,0,3.25384,2
1774392243120,-0.277611,0.522907,0.337614,-186.017,71.1186,-11.9882,0,0,3.29897,2
1774392243134,-0.199121,0.200578,0.353923,-207.135,88.2769,-12.6849,0,0,3.25398,2
1774392243147,-0.0170193,0.217931,0.378054,-230.723,96.7913,-19.3998,0,0,3.30904,2
1774392243161,0.197905,0.338754,0.387162,-250.08,92.1437,-21.6574,0,0,3.27334,2
1774392243174,0.391129,0.556291,0.437494,-250.137,73.7116,-20.0202,0,0,3.249,2
1774392243187,0.465208,0.629033,0.428511,-250.137,48.8682,-12.0087,0,0,3.28358,2
1774392243201,0.356255,0.806247,0.38401,-250.137,25.5887,-2.4865,0,0,3.24693,2
1774392243214,0.132218,0.937336,0.342978,-250.137,11.6143,2.23017,0,0,3.30321,2
1774392243227,-7.42346e-05,1.26376,0.259935,-250.137,9.46445,5.37989,0,0,3.25697,2
1774392243241,-0.0145763,1.61204,0.149961,-250.137,11.4977,14.0276,0,0,3.29404,2
1774392243254,-0.0144051,1.54137,0.122937,-250.137,13.9317,23.2777,0,0,3.2626,2
1774392243268,0.098802,1.59058,0.150984,-250.137,11.922,20.3979,0,0,3.26308,2
1774392243281,0.171756,1.63795,0.109824,-250.137,7.55505,14.1713,0,0,3.27276,2
1774392243294,0.258115,1.63017,0.0513165,-250.137,0.996716,9.69278,0,0,3.24939,5
1774392243308,0.285508,1.60511,0.0500551,-250.137,-6.26835,3.42333,0,0,3.28041,5
1774392243321,0.178754,1.68005,0.063653,-250.137,-10.6053,0.261366,0,0,3.25587,5
1774392243334,0.110933,1.86505,0.075867,-250.137,-11.0064,3.50176,0,0,3.31108,5
1774392243348,0.0751293,2.02848,0.0377871,-250.137,-8.64827,11.0918,0,0,3.26858,5
1774392243361,0.130583,2.22947,-0.000298794,-250.137,-4.63034,14.4251,0,0,3.30384,5
1774392243375,0.257183,2.08981,-0.120739,-250.137,-2.64715,16.8705,0,0,3.26813,5
1774392243388,0.455799,2.0279,-0.254219,-250.137,-6.49993,23.1948,0,0,3.25056,5
1774392243401,0.708703,2.08686,-0.432706,-250.137,-21.4743,33.8003,0,0,3.27895,5
1774392243415,0.791094,2.1734,-0.705916,-237.709,-47.2435,60.9265,0,0,3.25882,5
1774392243428,0.637726,2.20079,-0.991013,-202.548,-72.771,91.5116,0,0,3.33156,3
1774392243442,0.0791948,1.98229,-1.325,-164.183,-81.8127,93.0412,0,0,3.29458,3
1774392243455,-0.437857,1.88768,-1.58975,-126.205,-60.7576,56.3083,0,0,3.27656,3
1774392243468,-0.572572,1.89911,-1.80022,-74.5743,-25.8525,-7.77778,0,0,3.26913,3
1774392243482,-0.432824,1.77212,-1.87973,-28.7021,1.71145,-41.1673,0,0,3.25641,3
1774392243495,-0.232442,1.80963,-1.7883,15.4253,19.0398,-48.6342,0,0,3.27965,3
1774392243508,0.456533,3.98903,-0.109427,-56.236,60.3878,-109.977,0,0,3.24958,3
1774392243522,1.19797,1.43726,2.30245,249.216,-10.262,-217.998,0,0,3.29462,3
1774392243535,-0.707075,-1.12908,1.61524,250.127,-5.60934,-146.078,0,0,3.25719,3
1774392243549,-0.0139465,0.756002,0.432884,250.13,24.7793,-118.86,0,0,3.30386,3
1774392243562,-0.913736,1.55632,0.103689,237.077,59.8417,-15.2564,0,0,3.26606,3
1774392243575,0.11014,1.759,0.10959,228.103,44.5039,21.7976,0,0,3.26371,3
1774392243589,0.196834,0.908285,-0.097602,204.772,2.53774,26.3908,0,0,3.28497,3
1774392243602,0.0121493,0.219006,-0.226653,128.503,-4.17839,25.6815,0,0,3.25434,3
1774392243615,-0.197444,0.486705,-0.190366,63.4313,19.1896,16.2496,0,0,3.25867,3
1774392243629,0.128505,0.873806,-0.0424838,39.1185,37.2057,6.57854,0,0,3.27558,5
1774392243642,0.147124,1.0708,0.0500766,39.6701,29.7094,3.19333,0,0,3.26837,5
1774392243656,0.156205,0.926742,-0.0165144,36.3078,16.8705,-1.44414,0,0,3.27371,2
1774392243669,0.0945451,0.822783,-0.0280189,24.5086,17.129,-6.34412,0,0,3.27432,5
1774392243682,0.152058,0.833929,-0.0331775,7.83613,13.6821,-8.36038,0,0,3.27576,5
1774392243696,0.0573559,1.05894,-0.0198417,5.67821,9.75982,-9.18075,0,0,3.25745,5
1774392243709,0.0335656,0.962394,0.0290536,10.7025,10.1211,-8.53628,0,0,3.2806,5
1774392243722,0.0434081,0.923533,0.0227365,1.32576,9.17078,-6.79909,0,0,3.26076,5
1774392243736,0.00507354,1.09121,0.0241628,6.14589,7.59251,-5.55334,0,0,3.33271,5
1774392243749,0.0029403,1.01041,0.0295144,9.8439,7.68674,-4.1949,0,0,3.28799,5
1774392243763,0.00754545,0.984504,0.0322131,7.83806,6.65956,-0.735538,0,0,3.2803,5
1774392243776,0.0204436,0.986319,0.0259103,5.42706,6.70216,0.987214,0,0,3.27298,5
1774392243789,0.0190499,1.05702,0.0387545,8.8143,6.54246,0.185604,0,0,3.24491,5
1774392243803,0.0676294,0.966758,0.0601961,9.21255,5.7048,-1.18673,0,0,3.27328,5
1774392243816,0.0557233,0.942503,0.0345514,4.11449,5.71752,-1.69314,0,0,3.25667,5
1774392243830,0.0163094,0.995828,0.0589606,0.887515,4.65204,-0.301871,0,0,3.29552,5
1774392243843,0.0336054,1.03933,0.0255568,4.37126,4.86958,-0.229225,0,0,3.25652,5
1774392243856,0.0310187,1.01647,-0.0120201,6.20064,3.05124,1.98574,0,0,3.28224,5
1774392243870,-0.00251869,1.00324,0.0324934,5.49067,3.22848,4.58764,0,0,3.27356,5
1774392243883,0.0320546,0.995157,0.0234823,5.7321,2.90935,5.56958,0,0,3.25589,5
1774392243896,0.0749817,0.996089,0.0227089,4.79669,1.72872,4.78098,0,0,3.26895,5
1774392243910,0.0720361,1.03691,-0.000859305,8.92658,1.96875,2.06157,0,0,3.25537,5
1774392243923,0.0440844,1.00747,0.00971303,9.7837,1.82486,0.569349,0,0,3.25495,5
1774392243936,0.0556067,1.01145,0.0350303,10.0298,1.89293,-1.77923,0,0,3.28052,5
1774392243950,0.0116931,1.05569,0.0186363,14.3383,1.39843,-2.4636,0,0,3.29252,5
1774392243963,0.0527741,1.11275,0.0265718,19.6939,-0.0719379,-4.16286,0,0,3.27276,5
1774392243977,-0.0116424,1.11085,0.0144645,26.278,0.167224,-4.20598,0,0,3.25847,5
1774392243990,0.0286083,1.13805,0.0076025,29.9052,2.05542,-4.63231,0,0,3.29287,5
1774392244003,-3.98006,-1.588,0.963506,86.2513,12.7543,237.786,0,0,3.26495,5
1774392244017,0.763509,-0.0795265,0.356535,-8.39629,-11.6446,-10.4788,0,0,3.30067,5
1774392244030,-0.25227,2.21563,-0.0681993,48.0373,9.11348,7.74701,0,0,3.2615,5
1774392244044,-0.425408,0.434642,-0.081234,27.6259,6.40505,20.7702,0,0,3.2715,5
1774392244057,0.148026,1.40217,-0.00331734,42.7943,0.597523,12.0185,0,0,3.27834,5
1774392244070,0.0468899,0.918179,-0.0575913,41.462,1.52395,9.48087,0,0,3.26274,5
1774392244084,0.0417735,1.14657,-0.064905,43.1476,1.62565,12.1295,0,0,3.26847,5
1774392244097,0.0504937,1.05223,-0.0712575,46.2198,2.00649,12.7843,0,0,3.25634,5
1774392244111,0.0345034,1.05759,-0.0822208,45.856,1.18566,12.9309,0,0,3.27976,5
1774392244124,0.0890839,1.09309,-0.0740154,48.1078,0.810283,11.3102,0,0,3.25878,5
1774392244137,0.0259489,1.0867,-0.10094,49.3779,0.268795,10.9705,0,0,3.33395,5
1774392244151,0.0455567,1.1219,-0.0901416,53.7579,-0.166637,11.2435,0,0,3.27782,5
1774392244164,0.0390947,1.12013,-0.0993196,55.9933,-0.563698,11.4117,0,0,3.28176,5
1774392244178,0.0580114,1.17089,-0.107139,61.8603,-0.930201,10.2478,0,0,3.27519,5
1774392244191,0.050817,1.16701,-0.0991608,66.3225,-2.27841,10.5411,0,0,3.25082,5
1774392244204,0.0357196,1.20975,-0.128516,72.8888,-3.23378,11.5314,0,0,3.28082,5
1774392244218,0.00576427,1.17886,-0.130119,78.86,-4.08904,13.6654,0,0,3.27358,5
1774392244231,-0.00118612,1.21394,-0.139115,85.6895,-6.15413,19.1896,0,0,3.29256,5
1774392244244,-0.00583624,1.27606,-0.109036,94.6374,-6.68543,21.6872,0,0,3.26808,5
1774392244258,-0.00367287,1.33588,-0.110102,105.555,-8.66583,25.5381,0,0,3.27452,5
1774392244271,0.0441954,1.38963,-0.108407,119.698,-10.6049,28.9212,0,0,3.27545,5
1774392244285,0.0721267,1.4137,-0.0629702,132.633,-14.2563,33.0107,0,0,3.25421,5
1774392244298,0.107004,1.51002,-0.0294636,148.974,-19.0848,37.323,0,0,3.2748,5
1774392244311,0.0685507,1.63318,0.0209892,168.331,-23.3232,41.362,0,0,3.26013,5
1774392244325,0.229667,1.86141,0.133231,196.131,-28.4427,41.2522,0,0,3.2851,5
1774392244338,0.266176,2.06831,0.198649,232.464,-32.9636,33.8466,0,0,3.25961,5
1774392244351,0.404099,2.10334,0.152816,250.077,-37.7414,18.3897,0,0,3.27437,5
1774392244365,0.113992,2.07461,-0.0670215,250.13,-37.3447,9.97174,0,0,3.27756,5
1774392244378,0.0326314,2.24913,-0.292093,250.13,-23.781,-1.67509,0,0,3.24819,5
1774392244392,-0.000567251,2.00585,-0.256768,250.13,-19.0143,-1.77832,0,0,3.27482,5
1774392244405,-0.00729077,1.5421,-0.0828963,250.13,-15.6284,-3.52911,0,0,3.25874,5
1774392244418,-0.181749,1.72273,-0.100984,250.13,-10.8083,0.347184,0,0,3.28875,5
1774392244432,0.174983,1.42191,-0.161078,250.13,-5.93823,-13.0515,0,0,3.25837,5
1774392244445,0.170919,0.702554,0.0341848,250.13,-3.98295,-16.562,0,0,3.27437,5
1774392244458,0.888763,-0.370394,1.11668,250.13,-13.4602,-50.1971,0,0,3.28452,5
1774392244472,1.67456,-3.98203,0.55504,73.1781,-104.034,-14.7244,0,0,3.26467,5
1774392244485,0.160123,-0.173732,0.511933,-198.63,-108.087,25.2925,0,0,3.26956,5
1774392244499,-0.159299,0.669146,0.86883,-137.633,-112.338,-39.0442,0,0,3.24619,3
1774392244512,-0.526736,0.565457,0.590982,-193.284,-80.8804,-76.5976,0,0,3.27971,3
1774392244525,-0.349272,0.75929,0.554138,-156.081,-55.0087,-104.565,0,0,3.25895,3
1774392244539,-0.33406,0.359411,0.442207,-182.768,-29.1689,-89.2976,0,0,3.33678,3
1774392244552,-0.163204,0.243254,0.41323,-199.294,-14.3725,-60.9246,0,0,3.26574,3
1774392244566,-0.184222,0.294666,0.446125,-235.837,4.24203,-33.715,0,0,3.30736,3
1774392244579,-0.112418,0.442623,0.433899,-250.095,15.5616,-31.6855,0,0,3.26602,2
1774392244592,-0.0481712,0.782003,0.471736,-250.137,30.3223,-29.5255,0,0,3.25019,2
1774392244606,0.123657,0.821338,0.458562,-250.137,36.1429,-15.1194,0,0,3.2935,2
1774392244619,0.24403,0.93984,0.44222,-250.137,33.8618,5.95224,0,0,3.25843,2
1774392244632,0.343256,1.07404,0.398411,-250.137,26.0843,25.1944,0,0,3.2686,2
1774392244646,0.333059,1.07033,0.354224,-250.137,16.1062,44.6593,0,0,3.26863,2
1774392244659,0.302156,1.25203,0.27821,-250.137,6.2813,54.9768,0,0,3.2975,2
1774392244673,0.258761,1.49464,0.257428,-250.137,-2.15796,56.4155,0,0,3.27076,2
1774392244686,0.227937,1.51042,0.267528,-250.137,-13.0286,50.4682,0,0,3.25537,2
1774392244699,0.201304,1.51973,0.27025,-250.137,-25.4818,41.5838,0,0,3.27823,3
1774392244713,0.189512,1.61792,0.305489,-250.137,-37.8105,30.9478,0,0,3.26317,3
1774392244726,0.19334,1.82053,0.280155,-250.137,-50.5345,24.6905,0,0,3.29343,3
1774392244740,0.143558,1.96,0.225613,-250.137,-64.0892,32.0924,0,0,3.25947,3
1774392244753,-0.0104642,1.99421,0.0948887,-250.137,-71.4132,46.1336,0,0,3.43805,3
1774392244766,-0.281124,1.98248,-0.0192077,-250.137,-62.5304,49.0752,0,0,3.27789,3
1774392244780,-0.501346,2.18357,-0.124719,-250.137,-38.3243,40.2097,0,0,3.3033,3
1774392244793,-0.439274,2.37527,-0.283147,-250.137,-11.3326,28.8279,0,0,3.25584,3
1774392244807,-0.125827,2.39589,-0.477063,-250.137,8.27722,20.1557,0,0,3.24585,3
1774392244820,0.289924,2.33964,-0.753264,-238.15,9.67521,20.693,0,0,3.27467,3
1774392244833,0.488028,2.19797,-1.02234,-205.54,-6.36424,49.6614,0,0,3.24835,3
1774392244847,0.224456,2.05758,-1.31544,-172.252,-23.4831,88.6696,0,0,3.28221,3
1774392244860,-0.301096,2.01826,-1.605,-135.271,-19.7136,89.7753,0,0,3.27954,3
1774392244874,-0.61295,1.88688,-1.87318,-94.9831,5.90049,33.4357,0,0,3.3103,1
1774392244887,-0.426465,1.81068,-1.93913,-56.2456,28.7941,-25.8684,0,0,3.25611,1
1774392244900,-0.0217888,2.10571,-1.83742,-9.57471,27.0662,-39.3718,0,0,3.2816,3
1774392244914,0.00134972,2.03259,-1.65253,54.0311,18.8642,-30.1345,0,0,3.27069,3
1774392244927,-0.333782,3.99014,-3.98838,132.688,35.0052,-51.1052,0,0,3.29328,3
1774392244941,1.17487,-0.773419,0.945181,249.78,-32.9951,-119.627,0,0,3.2768,3
1774392244954,-0.469602,-0.174367,1.69986,250.129,25.7784,-81.5262,0,0,3.28039,3
1774392244967,-0.551108,0.681776,-0.124468,214.001,25.5046,-32.9544,0,0,3.31086,5
1774392244981,-0.422029,0.661964,0.00181312,131.08,61.4497,6.31004,0,0,3.28554,5
1774392244994,0.110388,1.59035,0.025031,91.1424,52.9643,5.72693,0,0,3.25219,5
1774392245008,0.121284,2.17726,-0.0416604,127.959,15.9047,20.8098,0,0,3.29456,5
1774392245021,0.0372832,0.824115,0.0819048,131.12,-3.27089,19.3403,0,0,3.26198,5
1774392245034,-0.0141484,0.106597,0.131832,61.2852,7.79895,10.4008,0,0,3.29736,5
1774392245048,0.0553184,0.939217,0.101226,25.6562,17.8402,2.79375,0,0,3.25945,5
1774392245061,0.15575,1.16295,0.138244,42.4384,14.4453,-3.06644,0,0,3.31288,5
1774392245074,0.0719501,0.692769,0.174138,30.4024,10.1426,-6.93499,0,0,3.27899,5
1774392245088,0.0146892,0.952322,0.156824,16.5224,10.3657,-7.38035,0,0,3.25108,5
1774392245101,-0.00187074,1.12196,0.172529,25.987,10.1457,-4.58089,0,0,3.27637,5
1774392245115,-0.00122392,1.01032,0.214148,31.2286,8.50871,-1.4445,0,0,3.26643,5
1774392245128,-0.0196835,1.08921,0.204637,38.7637,6.56307,2.53771,0,0,3.2971,5
1774392245141,-0.047955,1.04563,0.192201,46.7014,8.0566,7.08563,0,0,3.26087,5
1774392245155,-0.0204008,0.914228,0.207687,45.203,9.79632,9.86192,0,0,3.2723,5
1774392245168,0.0531011,0.951475,0.136098,41.5681,7.44977,9.71799,0,0,3.27778,5
1774392245182,0.0556514,0.955789,0.138902,40.5374,4.52021,9.02497,0,0,3.24289,5
1774392245195,0.0311279,0.869084,0.0857138,32.6115,5.303,7.16587,0,0,3.25245,5
1774392245208,0.00428395,1.02705,0.0864223,29.574,6.70573,4.6107,0,0,3.27889,5
1774392245222,0.0362181,1.06062,0.109504,34.0477,8.77244,2.48727,0,0,3.27124,5
1774392245235,0.0402631,1.13586,0.114234,41.0782,8.88516,1.62852,0,0,3.27778,5
1774392245248,0.0106454,1.0529,0.119116,49.2047,11.4503,1.39003,0,0,3.27591,5
1774392245262,-0.000433163,0.972082,0.159467,47.5317,14.548,0.354243,0,0,3.27384,5
1774392245275,0.0403246,1.03557,0.0552062,48.2193,15.7826,-2.20608,0,0,3.28047,5
1774392245289,0.0555881,1.01475,-0.0337372,51.5397,14.5533,-6.11807,0,0,3.27889,5
1774392245302,0.127572,0.990842,-0.0169293,50.8342,9.61782,-9.43283,0,0,3.2586,5
1774392245315,0.0314839,1.05364,-0.0474555,54.4092,10.8208,-11.6042,0,0,3.29493,5
1774392245329,-0.00421691,1.04205,0.017985,57.8447,15.1245,-13.1024,0,0,3.25852,5
1774392245342,0.141608,0.883844,0.0790419,55.663,16.9259,-10.4735,0,0,3.27252,5
1774392245355,-0.0945283,0.861197,-0.0525679,42.33,20.8737,-16.4782,0,0,3.27013,5
1774392245369,0.0350001,0.905784,-0.154765,34.0781,14.3554,-5.8562,0,0,3.27393,5
1774392245382,-0.0586163,0.972811,-0.115187,30.3699,12.3038,-4.91883,0,0,3.2746,5
1774392245395,-0.0350295,0.974115,-0.0955567,28.068,8.77392,1.05085,0,0,3.25113,5
1774392245409,-0.0222802,0.968777,-0.0743244,22.254,8.84711,1.75362,0,0,3.27515,5
1774392245422,-0.0365501,1.1337,-0.0494402,28.645,8.80166,4.59456,0,0,3.25591,5
1774392245436,-0.0154857,1.15007,-0.0403285,43.1399,9.26579,9.56528,0,0,3.28208,5
1774392245449,0.0213014,0.922519,-0.10296,44.1725,7.1057,9.95304,0,0,3.27698,5
1774392245462,0.00787928,0.774418,-0.0719317,23.9688,4.26803,2.4347,0,0,3.30054,5
1774392245476,0.0452244,1.02245,-0.0931561,15.217,1.69472,-0.152567,0,0,3.27608,5
1774392245489,0.0109129,0.978004,-0.101278,15.9748,0.393206,0.859568,0,0,3.24867,5
1774392245503,0.0491263,1.03755,-0.098403,13.2448,-1.5971,-2.14369,0,0,3.27373,5
1774392245516,0.00291546,1.12068,-0.0835699,19.4395,-2.07491,-2.86806,0,0,3.26595,5
1774392245529,0.0170197,1.09121,-0.0832535,24.5192,-2.92113,-4.36194,0,0,3.30554,5
1774392245543,-0.0147346,1.05463,-0.079608,24.9225,-2.62683,-6.01034,0,0,3.26493,5
1774392245556,-0.0668792,1.15599,-0.112386,27.9452,1.64372,-8.28328,0,0,3.27947,5
1774392245570,-0.0409007,1.11738,-0.0894695,30.382,2.05221,-11.0147,0,0,3.36104,5
1774392245583,-0.0332412,1.20246,-0.109519,32.8095,1.96971,3.95522,0,0,3.24774,5
1774392245596,-0.0176557,1.20045,-0.105732,38.6771,1.18555,14.244,0,0,3.27986,5
1774392245610,-0.05499,1.22109,-0.0974533,43.3829,0.795061,22.0606,0,0,3.2635,5
1774392245623,0.00580106,1.26249,-0.0740908,51.8297,1.33427,25.2881,0,0,3.29271,5
1774392245636,-0.000943009,1.18568,-0.112358,57.6163,1.31304,24.9932,0,0,3.26061,5
1774392245650,-0.0354727,1.25746,-0.117649,62.8774,2.55354,24.9619,0,0,3.2925,5
1774392245663,0.051083,1.25465,-0.103829,73.8451,1.00463,23.082,0,0,3.27321,5
1774392245677,0.114917,1.29254,-0.0753371,77.4396,-0.864638,21.5161,0,0,3.27628,5
1774392245690,0.0746632,1.352,-0.109206,90.1148,-5.09422,21.443,0,0,3.27334,5
1774392245703,-0.00327435,1.33699,-0.113504,96.8501,-7.03237,24.7306,0,0,3.25109,5
1774392245717,0.108331,1.44551,-0.0544928,110.981,-9.90743,23.987,0,0,3.30008,5
1774392245730,0.122002,1.4786,-0.0435117,126.785,-13.3561,22.7442,0,0,3.26313,5
1774392245743,0.123285,1.5633,-0.0084751,146.932,-18.5037,22.6339,0,0,3.27641,5
1774392245757,0.12159,1.70268,0.0650638,168.873,-23.0246,23.1511,0,0,3.27513,5
1774392245770,0.227015,1.87755,0.159928,195.706,-31.3948,23.556,0,0,3.32801,5
1774392245784,0.380584,2.03996,0.261944,228.726,-41.3443,18.2753,0,0,3.27958,5
1774392245797,0.408066,2.05534,0.282855,250.066,-51.0473,12.5286,0,0,3.25139,5
1774392245810,0.341153,2.05469,0.203277,250.13,-62.3327,9.80966,0,0,3.28941,5
1774392245824,0.303896,2.11372,-0.0531675,250.13,-63.2796,2.01568,0,0,3.2645,5
1774392245837,0.131959,2.04793,-0.29907,250.13,-61.6918,2.1066,0,0,3.33002,5
1774392245851,-0.0435603,1.8399,-0.0260167,250.13,-53.3608,-22.8414,0,0,3.27439,5
1774392245864,-0.0604628,1.4735,0.00181466,250.13,-42.7265,-22.2917,0,0,3.29634,5
1774392245877,0.412442,1.6466,-0.0497921,250.13,-45.1302,-45.0084,0,0,3.28013,5
1774392245891,0.599412,0.304043,0.123649,250.13,-48.7906,-57.9613,0,0,3.25161,3
1774392245904,0.429556,-0.837339,0.96408,226.171,-72.6843,-41.6062,0,0,3.27763,3
1774392245918,1.21873,-3.82012,0.552584,58.1895,-111.555,45.9671,0,0,3.27836,3
1774392245931,-0.148228,-0.127017,0.483984,-160.902,-93.7555,50.3609,0,0,3.30528,3
1774392245944,-0.318246,0.544025,0.685521,-104.398,-73.4881,-36.808,0,0,3.26567,3
1774392245958,-0.52315,0.163757,0.454033,-166.372,-32.6793,-49.8465,0,0,3.27036,3
1774392245971,-0.301639,0.530402,0.449486,-144.775,-7.41907,-30.5234,0,0,3.27662,3
1774392245985,-0.240053,0.172435,0.410594,-177.269,15.816,4.87123,0,0,3.27499,3
1774392245998,-0.188489,0.373025,0.369832,-184.764,37.2336,15.1753,0,0,3.2731,3
1774392246011,-0.18046,0.18939,0.366229,-215.07,59.9169,12.2454,0,0,3.27304,3
1774392246025,-0.0689143,0.333269,0.421114,-239.423,77.4894,1.48257,0,0,3.30574,2
1774392246038,0.0749677,0.57667,0.450294,-250.105,81.3777,4.93623,0,0,3.26184,2
1774392246052,0.26128,0.721691,0.45554,-250.137,73.5273,22.558,0,0,3.29912,2
1774392246065,0.397516,0.732126,0.404793,-250.137,54.9411,41.8811,0,0,3.27567,2
1774392246078,0.399648,0.825463,0.374662,-250.137,36.1554,49.7703,0,0,3.27497,2
1774392246092,0.352043,1.19761,0.290944,-250.137,18.0465,46.5744,0,0,3.29304,2
1774392246105,0.281358,1.6156,0.16299,-250.137,1.38571,43.0792,0,0,3.26145,2
1774392246119,0.215173,1.42794,0.148752,-250.137,-12.7744,37.8173,0,0,3.28134,2
1774392246132,0.14731,1.36457,0.160343,-250.137,-24.2177,31.5607,0,0,3.26082,2
1774392246145,0.156206,1.55229,0.111814,-250.137,-31.7104,26.6026,0,0,3.28619,5
1774392246159,0.214796,1.7155,0.0646876,-250.137,-37.0603,23.9164,0,0,3.2773,3
1774392246172,0.238651,1.85137,-0.0135269,-250.137,-41.1861,29.784,0,0,3.27358,5
1774392246185,0.191154,1.71066,-0.092867,-250.137,-42.3933,38.5539,0,0,3.28191,5
1774392246199,0.0587641,1.79985,-0.119253,-250.137,-36.94,48.6949,0,0,3.25893,5
1774392246212,-0.0815772,2.0029,-0.185705,-250.137,-25.3629,58.094,0,0,3.28098,5
1774392246226,-0.132073,2.19242,-0.292195,-250.137,-8.31816,60.1009,0,0,3.26178,5
1774392246239,-0.0883523,2.14137,-0.402284,-250.137,9.2604,56.3014,0,0,3.34121,1
1774392246253,0.157711,2.07965,-0.485669,-250.137,20.3561,48.5575,0,0,3.28623,1
1774392246266,0.511424,1.971,-0.633056,-242.679,16.8121,43.4732,0,0,3.30856,1
1774392246279,0.694159,2.03338,-0.81234,-220.448,-2.65932,63.4745,0,0,3.30856,3
1774392246293,0.535215,2.11119,-1.07146,-184.261,-27.2927,97.6611,0,0,3.274,3
1774392246306,0.0215983,1.99885,-1.33147,-144.265,-34.8096,108.608,0,0,3.29497,3
1774392246320,-0.593133,1.80516,-1.58079,-104.676,-12.0452,74.8567,0,0,3.29945,3
1774392246333,-0.791008,1.57172,-1.6741,-72.5769,28.1241,25.0573,0,0,3.31586,3
1774392246346,-0.571891,1.68644,-1.6612,-35.2338,58.6415,-0.229709,0,0,3.30078,3
1774392246360,-0.364314,1.64401,-1.62056,3.73839,75.1034,-2.29915,0,0,3.30115,3
1774392246373,-0.499571,1.48492,-1.45274,33.552,93.7914,-2.077,0,0,3.31234,3
1774392246387,-0.511659,3.98743,-3.98739,149.257,104.944,-85.3083,0,0,3.29648,3
1774392246400,1.21407,-0.0528964,1.0941,249.829,45.5974,-142.904,0,0,3.30162,5
1774392246414,-0.466978,-0.486612,1.27279,250.129,72.142,-126.819,0,0,3.29673,5
1774392246427,-0.445906,0.818215,-0.161565,234.885,58.9326,-85.1095,0,0,3.29069,5
1774392246440,-0.140679,1.34261,0.182857,194.198,56.4654,-35.2179,0,0,3.30152,5
1774392246454,-0.0500116,1.98751,-0.0297042,188.003,38.1388,9.96409,0,0,3.30065,5
1774392246467,0.0274467,1.147,-0.0470329,200.649,12.1997,23.7907,0,0,3.26545,5
1774392246481,-0.119144,-0.00136665,-0.131173,116.709,9.13893,19.9352,0,0,3.36717,5
1774392246494,-0.00666313,0.470552,-0.0577384,42.2685,27.548,12.7847,0,0,3.29745,5
1774392246508,0.225165,1.17618,-0.0117036,34.839,27.23,5.63208,0,0,3.25991,5
1774392246521,0.114564,0.991155,0.0446415,42.6484,22.0689,1.53896,0,0,3.29849,5
1774392246534,0.0865651,0.856869,0.0339885,30.502,18.8417,-2.06555,0,0,3.29167,5
1774392246548,0.128697,0.915966,0.00138292,24.339,18.1319,-7.33538,0,0,3.34038,5
1774392246561,0.0900361,0.826131,0.0216278,11.23,16.2956,-9.20053,0,0,3.29074,5
1774392246575,0.0407724,1.06376,0.0545238,6.53313,15.2398,-8.80272,0,0,3.32439,5
1774392246588,0.0327547,1.06032,0.0461841,16.6948,14.4223,-8.9918,0,0,3.30424,5
1774392246601,0.0159527,0.913815,0.0854978,11.9988,14.7167,-8.10951,0,0,3.29154,5
1774392246615,0.0187847,1.05132,0.0667437,12.0989,13.4161,-7.58934,0,0,3.33464,5
1774392246628,-0.0217709,1.06949,0.0877859,16.7494,14.9648,-7.16158,0,0,3.28571,5
1774392246642,0.0518797,1.07274,0.185306,21.0787,13.5082,-8.66725,0,0,3.30441,5
1774392246655,0.0243071,1.0249,0.143518,26.6551,15.711,-13.322,0,0,3.30541,5
1774392246669,0.0273287,1.09827,0.0813639,30.089,23.5643,-19.8888,0,0,3.29878,5
1774392246682,0.0666987,1.04786,0.0919882,34.894,12.3694,-17.2446,0,0,3.306,5
1774392246695,0.0690799,0.80662,-0.138016,32.8839,19.7946,-9.25291,0,0,3.2991,5
1774392246709,-0.0472727,0.847939,-0.116562,15.0381,8.22544,-4.61692,0,0,3.27852,5
1774392246722,-0.0381314,1.05269,-0.054508,10.426,8.84547,-3.35492,0,0,3.29499,5
1774392246736,-0.0329846,0.996617,-0.00512849,10.2753,8.27651,-1.30384,0,0,3.29108,5
1774392246749,-0.0747434,1.05659,-0.00585576,12.2993,9.89592,3.79391,0,0,3.29995,5
1774392246762,0.0120195,1.06126,0.0145469,15.6921,10.0454,3.85478,0,0,3.30584,5
1774392246776,0.103791,1.03334,0.00614532,19.2489,5.80657,2.14253,0,0,3.29776,5
1774392246789,0.00998818,0.936274,-0.012845,15.104,3.76945,0.56959,0,0,3.29352,5
1774392246803,0.0394044,1.09127,-0.0197411,17.3216,1.87589,-2.6697,0,0,3.27185,5
1774392246816,0.0108841,0.954295,-0.017103,18.2035,0.233919,-2.67175,0,0,3.29612,5
1774392246829,0.0586005,1.02285,-0.0209768,14.1267,-1.49863,-5.60192,0,0,3.28993,5
1774392246843,0.0287132,1.02611,-0.0343573,17.684,-2.25727,-6.99583,0,0,3.30213,5
1774392246856,-0.0438285,1.00596,-0.0407397,16.1877,-1.55173,-6.22368,0,0,3.31638,5
1774392246870,0.0240762,1.00173,-0.0266813,17.3325,-0.339504,-6.10722,0,0,3.31134,5
1774392246883,-0.0868505,1.0158,-0.0441028,16.3617,0.341475,-5.9851,0,0,3.28436,5
1774392246897,-0.00188756,0.922826,-0.0502623,12.5077,0.602273,-5.3987,0,0,3.28419,5
1774392246910,-0.00656851,0.96415,-0.0587954,11.0121,-0.218918,-3.51708,0,0,3.29978,5
1774392246923,0.00798424,0.926943,-0.057866,7.33923,-0.396416,-2.27851,0,0,3.29282,5
1774392246937,0.0204458,0.962713,-0.0513022,4.73299,-1.67556,-1.30825,0,0,3.30876,5
1774392246950,-0.00864433,0.951472,-0.0629304,2.43436,-2.36435,-1.09986,0,0,3.29873,5
1774392246964,0.0538881,0.992229,-0.0491409,1.97085,-2.99049,-2.06581,0,0,3.29904,5
1774392246977,0.0226165,0.99073,-0.0558747,1.89336,-3.56317,-4.45849,0,0,3.33662,5
1774392246991,-0.00061683,0.967158,-0.0673258,1.55825,-3.86931,-4.96033,0,0,3.36399,5
1774392247004,-0.0332847,0.945421,-0.0559647,-1.47946,-3.4973,-4.20075,0,0,3.31795,5
1774392247017,0.00372213,0.990498,-0.0590666,-2.37138,-3.75495,-3.68855,0,0,3.28528,5
1774392247031,-0.0308339,1.00068,-0.0500935,-1.925,-3.77094,-3.38259,0,0,3.30528,5
1774392247044,-0.0312479,0.988343,-0.050049,-2.015,-3.71772,-2.39228,0,0,3.308,5
1774392247058,-0.0329505,0.99727,-0.0624384,-2.55563,-3.43596,-1.82612,0,0,3.29108,5
1774392247071,-0.0737715,1.00533,-0.0547259,-2.8084,-3.02413,-0.127219,0,0,3.30808,5
1774392247084,0.0348599,1.08821,-0.0248071,-0.175813,-2.93157,-1.55299,0,0,3.28495,5
1774392247098,0.0329684,0.983189,-0.0338904,2.14573,-3.82176,-5.43876,0,0,3.29502,5
1774392247111,0.00988049,1.01522,-0.0443814,1.52095,-4.2354,-6.24187,0,0,3.29139,5
1774392247125,-0.0541249,0.991816,-0.0575517,1.68653,-5.4772,-6.38126,0,0,3.28319,3
1774392247138,-0.0923392,0.982225,-0.0738933,-0.390733,-5.55701,-4.15932,0,0,3.29573,3
1774392247151,-0.0701786,1.00866,-0.0671721,0.638144,-3.89048,-1.01703,0,0,3.27282,3
1774392247165,-0.0953338,0.991783,-0.0693252,-0.721125,-2.3329,1.07009,0,0,3.3156,3
1774392247178,-0.0476008,1.01429,-0.0533024,0.401223,-1.03442,1.64713,0,0,3.30736,3
1774392247192,-0.0366754,1.00712,-0.0454492,1.01344,-0.353183,0.210404,0,0,3.93231,3
1774392247206,-0.0147575,1.00805,-0.0407946,1.51758,0.204439,-0.699568,0,0,3.283,3
1774392247219,-0.0156207,0.994209,-0.0531611,1.51147,0.510535,-1.57753,0,0,3.27135,3
1774392247233,-0.0552229,0.985881,-0.0602674,0.910195,0.671275,-1.03217,0,0,3.29906,3
1774392247246,-0.0629498,0.946485,-0.072935,-0.902974,0.823971,1.48103,0,0,3.27378,3
1774392247259,-0.0566719,0.950177,-0.0693538,-3.77005,0.573269,4.01532,0,0,3.28778,3
1774392247273,-0.0447371,0.944365,-0.0601046,-6.05424,1.64565,4.72307,0,0,3.28932,3
1774392247286,0.0094958,1.0109,-0.0590871,-4.74438,-0.550683,3.24107,0,0,3.29206,3
1774392247300,0.00563445,0.963857,-0.0420768,-7.1531,-0.26041,1.73732,0,0,3.29587,5
1774392247313,-0.0286381,1.00055,-0.0463654,-6.69602,-0.251934,2.07532,0,0,3.27243,5
1774392247326,0.00180168,1.00462,-0.0410421,-7.16653,-0.63245,1.96978,0,0,3.29295,5
1774392247340,-0.0364309,1.02189,-0.0368859,-6.98527,-1.15873,1.7107,0,0,3.29161,5
1774392247353,-0.0354055,0.97873,-0.0400235,-6.95429,-1.32774,3.08749,0,0,3.30082,5
1774392247367,-0.0273837,1.02905,-0.0444118,-7.12925,-1.76206,3.90595,0,0,3.2978,5
1774392247380,-0.0543094,0.981195,-0.039089,-7.3657,-1.55025,5.7426,0,0,3.30099,5
1774392247393,-0.0119296,1.04436,-0.0167129,-6.49117,-2.43248,5.35992,0,0,3.31465,5
1774392247407,0.00868649,1.02087,-0.0197602,-4.60868,-2.63299,3.79856,0,0,3.29097,5
1774392247420,-0.0140471,1.02585,-0.0158884,-3.33967,-2.32154,2.58379,0,0,3.30632,5
1774392247434,-0.0321366,0.996727,-0.0353038,-2.62808,-1.65847,3.0292,0,0,3.28886,5
1774392247447,-0.0164355,1.00751,-0.0210669,-2.71729,-1.13896,2.70326,0,0,3.29804,5
1774392247460,-0.0285044,0.986433,-0.0316855,-2.36746,-1.00803,2.83929,0,0,3.29339,5
1774392247474,-0.0370668,0.988272,-0.0293087,-3.66787,-0.946748,3.63122,0,0,3.29808,5
1774392247487,-0.0249626,0.982937,-0.0395001,-4.273,-0.6193,4.04457,0,0,3.31438,5
1774392247501,-0.0292754,0.976108,-0.0463526,-5.33271,-0.154063,4.99715,0,0,3.29419,5
1774392247514,-0.0380423,0.966114,-0.0424996,-7.09397,0.106092,6.21772,0,0,3.29317,5
1774392247527,-0.00553284,0.982341,-0.0242607,-8.66705,0.365636,6.37358,0,0,3.30484,5
1774392247541,-0.0160609,0.984851,-0.0317013,-8.73263,1.08183,6.01634,0,0,3.28823,5
1774392247554,-0.0148984,0.994095,-0.0174051,-9.37213,0.954579,6.06855,0,0,3.29878,5
1774392247568,0.00964352,0.998999,-0.00324428,-9.29032,1.15969,4.62265,0,0,3.31702,5
1774392247581,-0.00311037,1.00097,-0.0213941,-8.82582,1.00048,3.94858,0,0,3.27419,5
1774392247595,-0.0138625,1.00122,-0.021241,-9.42569,1.11416,3.78674,0,0,3.29471,5
1774392247608,-0.00808538,1.03985,0.00329589,-8.71206,0.81007,3.77104,0,0,3.2973,5
1774392247621,-4.00276e-05,1.0206,0.00511789,-6.69306,0.299238,3.09363,0,0,3.30017,5
1774392247635,0.00777363,1.01055,-0.00240398,-6.94581,0.35099,2.33053,0,0,3.28784,5
1774392247648,0.00732644,1.02313,-0.00195536,-5.21129,-0.2425,1.23229,0,0,3.30367,5
1774392247662,-0.000449594,1.00959,-0.000738476,-4.6277,-0.487816,0.863698,0,0,3.30441,5
1774392247675,-0.0106912,1.04037,0.0121429,-3.1799,-0.480937,0.915874,0,0,3.3508,5
1774392247689,-0.000538792,0.998985,-0.00334093,-2.30795,-0.503749,1.47923,0,0,3.34441,5
1774392247702,0.00534184,1.02575,0.00144105,-1.89437,-1.24968,1.28303,0,0,3.31088,5
1774392247715,0.0019699,0.98628,-0.00460857,-1.45171,-1.6705,0.658357,0,0,3.28884,5
1774392247729,-0.008007,0.999446,-0.0082825,-2.72139,-2.0599,0.816321,0,0,3.27945,5
1774392247742,-0.00538414,0.997568,-0.00781483,-2.48163,-2.02301,1.15928,0,0,3.2636,5
1774392247756,-0.0301502,0.989299,-0.0109706,-2.95279,-1.77935,2.20299,0,0,3.31525,5
1774392247769,-0.0215273,0.996789,-0.0192459,-3.69244,-1.87757,3.05851,0,0,3.27793,5
1774392247783,-0.00496521,0.987109,0.00524922,-4.37962,-1.64954,4.08091,0,0,3.32241,5
1774392247796,-0.00221097,1.00407,-0.00701904,-4.38928,-2.03701,4.65477,0,0,3.32213,5
1774392247809,0.00460476,0.990789,0.0033663,-5.27217,-1.87073,4.01717,0,0,3.31984,5
1774392247823,-0.0218411,1.01939,-0.0058137,-4.33867,-1.82457,3.4749,0,0,3.287,5
1774392247836,0.00475051,1.00957,0.0143042,-4.05429,-2.44852,2.82637,0,0,3.26895,5
1774392247850,0.00148111,1.00782,0.00711584,-3.17819,-2.03939,2.10902,0,0,3.29497,5
1774392247863,-0.0143257,1.00976,0.00270748,-2.29272,-1.38364,2.15254,0,0,3.27323,5
1774392247876,-0.014161,1.00466,0.0131317,-2.29008,-1.22186,2.10701,0,0,3.36599,5
1774392247890,-0.0173183,1.00804,0.00443779,-1.56705,-0.954997,2.64724,0,0,3.27832,5
1774392247903,-0.0066449,1.00466,0.00172249,-1.70189,-0.512773,2.71735,0,0,3.56072,5
1774392247917,-3.28963e-05,1.01241,0.0123981,-1.03254,-0.427735,2.44357,0,0,3.28723,3
1774392247930,-0.00170069,0.996175,0.0126938,-0.756551,-0.168714,2.45036,0,0,3.2755,3
1774392247944,-0.00219481,1.00897,0.0105089,-0.413241,-0.213606,2.3895,0,0,3.29428,3
1774392247957,-0.00511244,0.998587,0.0100122,0.105319,0.0906929,2.43498,0,0,3.27097,3
1774392247971,-0.00464102,0.991005,0.0131679,-0.372616,0.0992112,2.54928,0,0,3.30534,3
1774392247984,-0.00731094,0.994854,0.00905367,-0.518647,0.0992366,2.97582,0,0,3.27793,5
1774392247997,-0.00805295,1.00605,0.0117056,-0.344034,0.358005,3.38808,0,0,3.26691,5
1774392248011,-0.00392678,1.00367,0.00856057,0.33385,0.320722,4.10473,0,0,3.29684,5
1774392248024,0.0101837,0.996131,0.00538688,0.214099,0.95992,3.9242,0,0,3.27197,5
1774392248037,0.00150801,0.994393,0.00974395,-0.463622,0.383404,3.71056,0,0,3.29452,5
1774392248051,0.0136117,0.999729,0.00442101,-0.419978,-0.242403,2.64441,0,0,3.28504,5
1774392248064,0.00273964,1.01142,0.00415173,1.55136,-0.0311662,1.90298,0,0,3.28189,5
1774392248078,0.0148324,0.99787,0.0111954,1.64856,0.0531828,1.94643,0,0,3.28984,5
1774392248091,0.00250275,1.01748,0.00782925,2.85136,0.0382127,1.87046,0,0,3.29017,5
1774392248104,-0.00363159,1.01199,0.0141288,3.97374,0.464374,2.23555,0,0,3.3028,5
1774392248118,0.00386893,1.00468,0.0119736,4.55551,0.298207,2.26708,0,0,3.29273,5
1774392248131,0.0138663,1.01023,0.0156069,4.82363,0.518425,2.45745,0,0,3.28695,5
1774392248145,-0.0115921,1.02046,0.0595956,5.80622,1.59982,1.92526,0,0,3.29734,5
1774392248158,-0.00345844,0.971678,0.00369608,6.60829,0.864794,1.89323,0,0,3.29454,5
1774392248171,0.0206321,1.00253,0.00876385,5.65172,0.611445,1.71808,0,0,3.29369,5
1774392248185,0.0115199,1.01775,0.0189921,6.54694,0.998841,1.71756,0,0,3.28148,5
1774392248198,-0.00261522,1.00227,0.00932544,7.11281,1.46426,1.86216,0,0,3.27426,5
1774392248212,0.028653,0.995638,0.00174669,7.73098,1.06988,1.43639,0,0,3.29347,5
1774392248225,0.0101021,1.00945,0.00413849,7.86981,1.33508,1.73955,0,0,3.28508,5
1774392248238,0.00660917,1.0292,-0.0128549,9.64355,1.48809,1.90028,0,0,3.28641,5
1774392248252,0.00877827,1.00986,0.00528086,10.7296,1.70165,2.2813,0,0,3.29598,5
1774392248265,0.0168058,0.99762,-0.00434663,9.71296,1.58051,1.8334,0,0,3.28976,5
1774392248279,0.00469891,1.02793,-0.00512309,10.6004,1.67909,2.01472,0,0,3.27102,5
1774392248292,0.00633949,1.0271,-0.0114432,12.1709,2.56224,2.90573,0,0,3.24537,5
1774392248305,-0.0104147,1.01933,-0.016576,14.4664,3.43251,3.87496,0,0,3.26897,5
1774392248319,0.012095,1.01637,-0.0353072,16.5054,3.13828,5.00426,0,0,3.27017,5
1774392248332,-0.00212651,1.00785,-0.0125643,16.1689,3.08413,5.63171,0,0,3.26523,5
1774392248345,0.0354575,0.996638,-0.0374737,16.6322,2.8937,4.81161,0,0,3.27247,5
1774392248359,0.00624884,0.988323,-0.0307949,12.9423,2.5202,5.1136,0,0,3.27906,5
1774392248372,0.0150927,1.02545,-0.0259032,13.114,2.2451,5.3276,0,0,3.31263,5
1774392248386,0.00469043,1.01494,-0.0387544,13.6396,2.46499,5.47285,0,0,3.2843,5
1774392248399,-0.0077506,1.10939,-0.0373605,19.3341,3.62249,7.45971,0,0,3.25191,5
1774392248413,-0.00829806,1.02435,-0.0667483,26.9239,4.44791,6.20223,0,0,3.50231,5
1774392248426,0.0179359,1.04385,-0.0960456,28.5219,6.16281,8.20013,0,0,3.24352,5
1774392248439,-0.00112587,0.942399,-0.0393446,23.6634,5.03391,4.88777,0,0,3.30337,5
1774392248453,0.0318185,1.05,-0.0456231,20.8177,7.55734,2.02383,0,0,3.26252,5
1774392248466,-0.0447849,1.01288,-0.0728625,21.9813,11.4312,2.21317,0,0,3.26995,5
1774392248480,-0.161043,0.990104,-0.084901,21.0105,18.5969,-0.351109,0,0,3.26663,5
1774392248493,-0.401392,1.01428,-0.0485208,18.5037,33.4974,-7.06389,0,0,3.2503,5
1774392248506,-1.282,0.869616,-0.000240208,8.77718,82.449,-29.7566,0,0,3.27719,5
1774392248520,-1.307,0.933277,0.202361,-11.8619,153.048,-24.4738,0,0,3.2708,5
1774392248533,-0.610642,1.15247,0.343536,-7.06777,204.708,-24.3211,0,0,3.27406,5
1774392248546,-0.359404,1.0474,0.469102,-9.75532,238.251,-19.3888,0,0,3.25841,5
1774392248560,-0.314676,1.12632,0.523169,-3.89539,250.094,-30.4554,0,0,3.26524,5
1774392248573,0.00524426,1.08541,0.553803,-1.23696,250.13,-2.99816,0,0,3.25587,5
1774392248586,0.21162,1.04415,0.505854,4.6313,250.13,5.51652,0,0,3.24167,5
1774392248600,0.438325,1.17877,0.530638,14.4439,231.643,31.2208,0,0,3.25539,2
1774392248613,0.439448,0.819901,0.518857,5.8958,216.138,31.0615,0,0,3.58014,2
1774392248627,0.307298,0.880801,0.527059,3.44245,207.849,25.1931,0,0,3.25919,2
1774392248640,0.460663,0.865554,0.573985,-1.83155,197.854,24.5135,0,0,3.24482,2
1774392248653,0.526771,0.825638,0.55284,-6.82476,186.203,28.804,0,0,3.26932,2
1774392248667,0.6267,0.920427,0.471839,-9.29034,173.846,31.0467,0,0,3.2636,2
1774392248680,0.521762,0.827367,0.397829,-8.43005,163.641,28.93,0,0,3.24128,2
1774392248693,0.500108,1.00012,0.353249,-8.59493,154.866,20.3006,0,0,3.25713,2
1774392248707,0.462832,0.922019,0.276748,-10.5438,148.568,10.6244,0,0,3.24358,2
1774392248720,0.404587,1.00229,0.265437,-6.15816,143.953,-1.53615,0,0,3.28635,2
1774392248733,0.357655,0.964057,0.23963,-8.15433,140.217,-6.72494,0,0,3.24682,3
1774392248747,0.347463,0.922084,0.109048,-11.0296,137.763,-4.86815,0,0,3.30973,3
1774392248760,0.376078,0.955887,0.298132,-13.4584,138.159,-4.75606,0,0,3.25124,3
1774392248774,0.276861,0.939049,0.173715,-12.9481,142.019,-6.12567,0,0,3.2668,3
1774392248787,0.284872,1.05776,0.150992,-15.6484,145.478,-3.65624,0,0,3.25184,3
1774392248800,0.352447,0.940039,0.220115,-18.1985,147.688,2.76705,0,0,3.23587,3
1774392248814,0.2284,1.05485,0.236005,-13.0079,149.963,1.11182,0,0,3.25496,3
1774392248827,0.206408,1.07485,0.160775,-14.3015,154.528,-2.78225,0,0,3.26948,3
1774392248840,0.112042,1.30136,0.179837,-10.3629,162.046,9.23885,0,0,3.2828,3
1774392248854,0.031407,1.01923,-0.259047,-4.91705,168.789,6.86968,0,0,3.24506,3
1774392248867,0.277827,0.981875,0.0397731,-0.935573,173.855,2.1363,0,0,3.25519,3
1774392248880,0.118954,0.982419,0.0414953,4.94425,178.635,14.505,0,0,3.25458,3
1774392248894,0.100434,1.0847,0.135761,7.60274,181.739,13.7427,0,0,3.23641,5
1774392248907,0.134839,1.08083,-0.0549593,-0.753632,185.074,18.9843,0,0,3.25476,5
1774392248920,0.152014,0.894239,0.0990871,-3.57172,187.915,19.0685,0,0,3.26917,5
1774392248934,0.243927,1.09471,0.0983921,-0.140035,186.63,7.13493,0,0,3.26923,5
1774392248947,0.18535,1.09278,0.158879,-5.94447,189.115,15.0603,0,0,3.26145,5
1774392248960,0.260855,0.928309,-0.246518,-2.3923,187.478,13.3562,0,0,3.26224,5
1774392248974,0.179118,0.947901,-0.0425189,2.39028,189.521,10.6798,0,0,3.25267,5
1774392248987,0.171668,1.03642,0.185147,1.66629,191.384,9.74326,0,0,3.23722,5
1774392249000,0.202969,1.19817,-0.371984,5.81203,198.399,11.0647,0,0,3.25665,5
1774392249014,0.198994,0.76145,0.123997,-0.446928,205.247,14.0978,0,0,3.23937,5
1774392249027,0.0323234,0.967967,0.0873406,11.9477,212.924,6.95267,0,0,3.27608,5
1774392249040,0.15758,1.02243,0.337865,6.99192,220.413,13.0048,0,0,3.28789,5
1774392249054,0.0595697,1.09,0.280559,10.7673,227.163,13.822,0,0,3.25132,5
1774392249067,0.266305,0.955017,0.214197,4.25612,234.467,19.4488,0,0,3.23893,5
1774392249080,0.170156,0.987874,0.269014,6.65694,242.51,21.6803,0,0,3.26061,5
1774392249094,0.289446,1.01962,0.314228,6.35967,248.151,21.2456,0,0,3.2385,5
1774392249107,0.208411,0.992323,-0.0244381,7.04376,250.124,17.7129,0,0,3.26159,5
1774392249121,0.325832,1.06482,0.271963,9.55737,250.13,20.115,0,0,3.28258,5
1774392249134,0.325198,0.847274,0.0960899,6.47487,250.13,28.2657,0,0,3.23515,5
1774392249147,0.012056,1.06435,0.156438,14.3048,250.13,22.209,0,0,3.26363,5
1774392249161,0.300081,1.06324,-0.0533994,15.6448,250.13,6.80181,0,0,3.23704,5
1774392249174,0.104975,1.00712,0.198454,22.7345,250.13,-0.246095,0,0,3.27367,5
1774392249187,0.291795,0.894603,0.0510265,14.262,250.13,16.2332,0,0,3.23819,5
1774392249201,0.608775,0.83477,0.156215,12.9581,250.13,16.9749,0,0,3.25076,5
1774392249214,0.69124,0.958612,0.116652,5.62499,250.13,8.01915,0,0,3.24613,5
1774392249227,0.586459,0.878815,0.059367,5.52701,250.13,8.90575,0,0,3.27965,5
1774392249241,0.643515,0.854856,-0.042948,-4.78595,241.819,8.50502,0,0,3.25658,5
1774392249254,0.6042,0.932232,-0.154474,-2.99772,223.178,-0.583503,0,0,3.24978,5
1774392249267,0.805881,0.823296,-0.314147,-8.47218,197.946,-2.42198,0,0,3.25891,5
1774392249281,0.938306,0.981391,-0.178653,-7.27077,164.375,-8.08992,0,0,3.23446,5
1774392249294,0.971514,0.833257,-0.528533,-20.1447,134.304,-8.46453,0,0,3.25132,5
1774392249307,1.71481,1.64319,-0.527107,-8.7288,80.9382,7.30398,0,0,3.26352,5
1774392249321,2.51336,0.623481,0.165985,-13.893,-11.3271,-13.7538,0,0,3.6052,3
1774392249334,-0.51059,0.944691,0.146824,-29.0843,20.8275,-0.276951,0,0,3.26943,3
1774392249348,-0.055244,1.28469,-0.021137,-2.46892,-0.835967,-14.1874,0,0,3.24626,3
1774392249361,0.105402,0.832086,0.0200587,-13.9428,-6.92834,-10.6442,0,0,3.24395,3
1774392249374,0.0833616,1.25328,0.0246354,-3.73283,-1.6646,-9.09623,0,0,3.26347,3
1774392249388,-0.00857579,0.980848,0.0234434,-0.939652,1.98907,-4.75345,0,0,3.24347,3
1774392249401,0.0227932,1.1136,0.021737,3.84827,3.30142,-5.41025,0,0,3.29582,3
1774392249414,0.00715787,0.987687,0.000350544,5.35427,3.48038,-3.43339,0,0,3.25163,3
1774392249428,0.0255433,1.0014,-0.0255061,3.39517,2.46867,-0.192899,0,0,3.29236,3
1774392249441,0.0287924,0.980815,-0.0113011,1.45618,0.167189,3.18836,0,0,3.33241,3
1774392249455,0.0356106,1.00695,-0.0194905,-0.0641549,-3.59181,4.6445,0,0,3.2596,3
1774392249468,0.0628527,0.971126,0.00524801,-1.24837,-3.70957,4.42813,0,0,3.2583,3
1774392249481,0.0605583,1.03848,-0.00191747,0.30071,-3.45115,2.41061,0,0,3.27669,3
1774392249495,0.0576317,0.972739,0.0128659,2.28414,-2.40009,0.966153,0,0,3.28463,3
1774392249508,0.0430413,0.996464,-0.0186421,-0.00841002,-2.0773,1.31955,0,0,3.26287,3
1774392249521,0.0546298,1.02622,0.00646687,2.10817,-1.93934,0.719352,0,0,3.27608,5
1774392249535,0.0401113,0.997458,-0.0157586,2.44936,-1.15502,0.687119,0,0,3.2808,5
1774392249548,0.034452,0.997801,-0.0170833,1.09565,-1.17551,2.78,0,0,3.29034,5
1774392249562,0.0499716,1.01408,-0.0260783,1.02312,0.0573811,2.83191,0,0,3.26861,5
1774392249575,0.0252694,0.993268,-0.0202925,1.04573,1.4234,3.11366,0,0,3.26139,5
1774392249588,0.039723,0.979317,-0.0202638,-1.38205,1.92978,2.74157,0,0,3.27161,5
1774392249602,0.0529129,0.972203,-0.0192919,-3.73342,2.29661,3.51677,0,0,3.242,5
1774392249615,0.0532211,1.01784,-0.00179603,-3.51972,1.82584,3.30597,0,0,3.27645,5
1774392249628,0.100109,0.984298,0.00776493,-3.64847,0.796971,3.8381,0,0,3.26756,5
1774392249642,0.0653584,0.978544,0.00465415,-6.45725,-1.16969,4.63883,0,0,3.34578,5
1774392249655,0.0447801,1.01131,-0.00264921,-6.18402,-0.658019,3.75836,0,0,3.26358,5
1774392249669,0.0356898,0.999084,0.00217327,-5.30796,0.515574,2.94137,0,0,3.28858,5
1774392249682,0.0696552,1.02332,0.0352359,-4.4225,1.16599,1.97236,0,0,3.26548,5
1774392249695,0.035327,1.04433,0.0414729,-1.39836,2.41611,1.5661,0,0,3.24219,5
1774392249709,0.0548346,1.03617,0.0427184,0.962404,2.71666,0.408044,0,0,3.25746,5
1774392249722,0.0610045,1.03492,0.0160021,3.63323,1.92603,0.282817,0,0,3.23941,5
1774392249735,0.0510748,0.982439,-0.013282,3.58031,1.8019,0.487936,0,0,3.29917,5
1774392249749,0.0629293,0.991896,-0.00176628,2.10365,1.34488,0.557045,0,0,3.24417,5
1774392249762,0.0569147,1.00069,0.00144885,1.28489,0.848812,0.930182,0,0,3.27874,5
1774392249775,0.0546985,1.01531,0.00316529,2.5839,0.801668,0.642083,0,0,3.256,5
1774392249789,0.0614896,0.996918,-0.00800109,2.54972,0.702586,0.199796,0,0,3.25396,5
1774392249802,0.0620091,1.02088,0.00676249,2.7475,0.527242,-0.585438,0,0,3.25222,5
1774392249815,0.0593395,1.01687,0.0182534,4.08759,1.0747,-2.17083,0,0,3.24869,5
1774392249829,0.0532529,1.01757,0.0197679,4.96684,2.63655,-3.94127,0,0,3.90814,5
1774392249843,0.0520081,0.998872,-0.0132634,5.43372,3.12069,-4.30426,0,0,3.23933,5
1774392249856,0.0517591,0.978373,-0.0287316,3.23558,2.96992,-4.95226,0,0,3.28237,5
1774392249870,0.0483568,0.986532,-0.0164187,1.15127,3.98932,-5.41084,0,0,3.26482,5
1774392249883,0.0548991,0.980499,-0.00542579,-0.110729,3.35305,-5.1915,0,0,3.25145,5
1774392249896,0.0488582,0.975367,-0.0201902,-2.12375,1.19729,-3.11309,0,0,3.27437,5
1774392249910,0.0454272,0.96854,-0.028523,-5.47852,-1.96763,-0.610539,0,0,3.24448,5
1774392249923,0.0410375,0.989884,-0.0113161,-7.74132,-3.46118,2.10638,0,0,3.3041,5
1774392249936,0.0405299,0.9776,-0.0112309,-9.60511,-4.52354,4.09329,0,0,3.26647,5
1774392249950,0.0434425,0.994545,-0.00758649,-11.1024,-5.82055,5.48439,0,0,3.27389,5
1774392249963,0.0451575,0.999487,-0.00149515,-11.1677,-6.52461,6.39423,0,0,3.2663,5
1774392249976,0.0463806,0.995382,0.012868,-11.3049,-6.39733,6.86881,0,0,3.26159,5
1774392249990,0.0442003,1.01407,0.0250857,-9.5168,-5.68914,6.55818,0,0,3.27582,5
1774392250003,0.0505057,1.01295,0.018587,-7.9208,-5.5272,5.94078,0,0,3.24135,5
1774392250016,0.0602542,1.01464,0.0122386,-6.88858,-5.26034,4.70598,0,0,3.28263,5
1774392250030,0.0532575,1.01999,0.0275119,-4.95236,-4.81812,3.62156,0,0,3.60665,5
1774392250044,0.0580815,1.0154,0.0237006,-2.80794,-4.10138,2.04289,0,0,3.31873,5
1774392250057,0.0481451,1.00275,0.0278116,-2.18507,-3.60454,2.00013,0,0,3.26165,5
1774392250070,0.0556268,1.01848,0.0268602,-0.973091,-3.44323,1.94672,0,0,3.28552,3
1774392250084,0.0425456,0.998391,0.0198105,0.00470894,-3.07743,2.50977,0,0,3.26641,3
1774392250097,0.0483112,1.00995,0.0222049,0.205506,-3.20572,2.72455,0,0,3.23732,3
1774392250110,0.0502832,1.00831,0.0161434,1.43906,-2.58202,2.53492,0,0,3.27508,3
1774392250124,0.0551516,0.987166,-0.00647924,1.18397,-2.03218,2.20709,0,0,3.24146,3
1774392250137,0.0644071,0.958638,-0.00464778,-1.02393,-2.24364,2.45727,0,0,3.2985,3
1774392250150,0.0506058,1.01583,0.0230555,-1.43389,-2.3356,2.61023,0,0,3.23941,3
1774392250164,0.0553961,1.00299,0.0137183,-0.940407,-2.75447,2.49652,0,0,3.28695,3
1774392250177,0.0590638,0.986168,0.00662708,-1.60108,-2.61873,2.8615,0,0,3.26687,3
1774392250190,0.0673416,0.991429,0.0014904,-2.10536,-3.70667,2.81693,0,0,3.24024,3
1774392250204,0.0610664,0.996557,0.0116681,-2.73095,-4.02196,3.08317,0,0,3.27143,3
1774392250217,0.0617641,1.00338,0.00880332,-2.80132,-3.68041,2.91653,0,0,3.24535,3
1774392250231,0.0607958,0.996859,0.0175347,-2.90808,-3.55001,2.76382,0,0,3.29424,3
1774392250244,0.061034,0.986866,0.00713183,-3.54771,-3.6029,2.6492,0,0,3.27472,3
1774392250257,0.068566,0.993862,0.0187411,-4.54663,-4.02165,2.42814,0,0,3.32217,3
1774392250271,0.0671457,1.00361,0.0175839,-4.542,-4.13706,2.3666,0,0,3.2595,3
1774392250284,0.066167,0.99856,0.0272954,-4.74748,-4.40378,2.52624,0,0,3.24909,3
1774392250297,0.0617894,1.00995,0.0283152,-3.6293,-3.94032,2.07007,0,0,3.24728,3
1774392250311,0.0634682,0.993976,0.036337,-2.94099,-3.67256,2.38075,0,0,3.32539,3
1774392250324,0.0627477,0.989038,0.021072,-2.99982,-3.85442,2.4654,0,0,3.26672,3
1774392250338,0.070518,0.999703,0.0292562,-2.9315,-3.72558,2.61025,0,0,3.68268,3
1774392250351,0.0598674,1.00753,0.0356129,-2.16261,-3.88502,2.28342,0,0,3.28652,3
1774392250365,0.0654022,1.01534,0.0322433,-0.782753,-3.14724,1.88668,0,0,3.24532,3
1774392250378,0.0651866,0.999833,0.0356277,0.12705,-2.89389,1.70284,0,0,3.29804,3
1774392250391,0.063485,1.01215,0.0312717,1.21811,-2.55826,1.2837,0,0,3.26628,3
1774392250405,0.0659059,0.992529,0.0200752,1.49535,-2.44309,1.3205,0,0,3.26876,3
1774392250418,0.0661608,1.01357,0.0304659,2.06699,-2.51125,1.29778,0,0,3.26598,3
1774392250431,0.0634899,1.00371,0.0261445,2.94394,-1.97108,1.4347,0,0,3.28521,3
1774392250445,0.0695499,1.00633,0.0285525,3.00744,-1.96186,1.34378,0,0,3.27939,3
1774392250458,0.0654501,0.995659,0.0280785,3.4795,-1.40624,1.2674,0,0,3.24013,3
1774392250472,0.0634863,1.00557,0.0198165,3.36675,-1.25237,1.19868,0,0,3.32143,3
1774392250485,0.0761091,1.0095,0.0294929,4.47759,-0.894201,0.680938,0,0,3.25382,3
1774392250498,0.064025,1.01365,0.046546,5.69864,-0.459316,0.489123,0,0,3.24359,3
1774392250512,0.0659086,1.00177,0.0228231,6.92762,0.00624108,0.237394,0,0,3.27439,3
1774392250525,0.0627598,1.00098,0.0331517,7.40316,0.0989593,-0.250449,0,0,3.24072,3
1774392250539,0.0668741,1.02818,0.0497222,9.29967,0.563496,-0.898824,0,0,3.60642,3
1774392250552,0.0700525,1.03051,0.0624367,12.1442,0.884536,-2.8263,0,0,3.23807,3
1774392250565,0.0807573,1.06113,0.0481667,15.9733,1.26603,-6.05142,0,0,3.31713,3
1774392250579,0.105346,1.0484,0.00679762,20.7719,2.49251,-10.696,0,0,3.24878,5
1774392250592,0.0777739,1.02793,-0.022559,23.3739,6.6669,-15.3297,0,0,3.26682,5
1774392250605,0.107518,0.913169,-0.101657,20.7635,8.42223,-16.4775,0,0,3.25763,5
1774392250619,0.0413449,0.858427,-0.0575923,9.82661,5.99961,-12.0514,0,0,3.26882,5
1774392250632,0.0167241,0.995169,-0.0389113,5.05245,3.38188,-7.83703,0,0,3.25915,5
1774392250646,0.0190315,0.941672,-0.0332314,-0.159982,-0.789051,-3.24275,0,0,3.27587,5
1774392250659,0.0406639,0.989508,-0.0222713,-4.11793,-2.75747,-0.55765,0,0,3.27193,5
1774392250672,0.022794,1.01452,-0.0124998,-1.80843,-2.13925,0.942079,0,0,3.26884,5
1774392250686,0.0321799,1.01732,-0.0156095,-0.0662796,-3.2562,1.67719,0,0,3.23854,5
1774392250699,0.0400002,1.01466,-0.0141673,1.33931,-1.29594,1.30645,0,0,3.28011,5
1774392250712,0.0478127,1.01635,-0.011245,3.5963,-0.194135,0.171334,0,0,3.24985,5
1774392250726,0.0565969,0.993765,-0.00807243,4.13579,0.585454,-1.18678,0,0,3.28276,5
1774392250739,0.0561545,0.993653,-0.0170452,3.7873,0.739996,-2.06607,0,0,3.24635,5
1774392250752,0.0566382,0.991952,-0.0185472,2.68269,-0.294615,-2.45685,0,0,3.28606,5
1774392250766,0.0369631,0.955747,-0.0345882,0.114552,-1.09684,-1.5371,0,0,3.26171,5
1774392250779,0.039538,1.001,-0.0213063,-2.09263,-1.86792,-0.674336,0,0,3.26158,5
1774392250792,0.0482963,1.00875,-0.0103086,-1.32291,-2.18227,0.0740973,0,0,3.26882,5
1774392250806,0.0427522,1.00927,-0.0121976,-1.06185,-1.99293,0.723249,0,0,3.24356,5
1774392250819,0.0390808,1.0032,-0.0119641,-0.543535,-1.70316,0.938288,0,0,3.25067,5
1774392250833,0.0354186,0.995157,-0.0131776,-0.443049,-1.26848,0.969373,0,0,3.2635,5
1774392250846,0.0468183,1.00678,-0.0136694,-0.351419,-1.16824,1.2739,0,0,3.28565,5
1774392250859,0.0468747,1.00003,-0.00978495,0.0141737,-1.09183,1.14542,0,0,3.26711,5
1774392250873,0.0449315,1.00826,-0.00296363,-0.0456227,-1.23621,1.21354,0,0,3.29313,5
1774392250886,0.0456507,0.997612,-0.0077885,-0.373066,-1.32797,1.22135,0,0,3.26406,5
1774392250899,0.0444396,1.00679,-0.0107276,-0.0924424,-1.31302,0.734281,0,0,3.25587,5
1774392250913,0.0475917,0.998819,-0.00539761,0.281325,-1.13032,0.481672,0,0,3.26926,5
1774392250926,0.0539236,1.0119,-0.0158173,0.47271,-1.11455,0.229761,0,0,3.24774,5
1774392250940,0.0442376,1.00103,-0.015626,0.412394,-0.931844,0.32034,0,0,3.32886,5
1774392250953,0.0468619,0.993446,-0.00979464,-0.0748784,-0.976964,0.457605,0,0,3.27317,5
1774392250966,0.0449315,1.01187,-0.0189972,0.418372,-1.07604,0.534122,0,0,3.32549,5
1774392250980,0.0441931,0.992771,-0.014427,-0.204245,-1.06872,0.770286,0,0,3.26609,3
1774392250993,0.04589,1.00604,-0.0165908,-0.107161,-0.969762,0.885153,0,0,3.23465,3
1774392251006,0.0427403,0.985697,-0.0173303,-0.510245,-1.37284,1.23559,0,0,3.27178,1
1774392251020,0.0468545,1.01159,0.00112886,-0.511447,-1.22183,1.22903,0,0,3.25037,1
1774392251033,0.0352142,0.991555,-0.012141,-0.481007,-1.24421,1.09201,0,0,3.28717,1
1774392251046,0.0482749,1.00895,-0.0102632,-0.442862,-1.34322,0.855669,0,0,3.24161,1
1774392251060,0.050283,0.996643,-0.0104969,-0.252478,-1.14563,0.862575,0,0,3.31182,1
1774392251073,0.0461631,1.00776,-0.0138991,-0.206245,-1.07654,0.748433,0,0,3.26269,1
1774392251087,0.0476003,0.995909,-0.00614211,-0.13761,-0.985007,0.656763,0,0,3.25206,1
1774392251100,0.0546524,1.00994,-0.012177,0.433407,-0.999955,0.207451,0,0,3.27182,1
1774392251113,0.048857,0.999806,-0.0148791,0.655823,-1.03805,-0.014603,0,0,3.25554,1
1774392251127,0.0456702,1.00048,-0.0148925,0.709762,-0.855508,0.190227,0,0,3.29598,1
1774392251140,0.0429821,1.0017,-0.00736169,0.550096,-0.862574,0.0918972,0,0,3.24535,1
1774392251153,0.0483133,0.998308,-0.0155841,0.397403,-1.12136,0.312318,0,0,3.28202,1
1774392251167,0.0517408,0.99319,-0.00517872,0.130569,-1.11452,0.389083,0,0,3.26376,1
1774392251180,0.0478708,1.00215,-0.0136298,0.175438,-1.23628,0.960124,0,0,3.26528,1
1774392251193,0.039592,1.00341,-0.0102706,0.008134,-1.31275,0.855275,0,0,3.26628,1
1774392251207,0.0475677,0.999045,-0.0107399,0.182684,-1.22165,1.00718,0,0,3.24298,1
1774392251220,0.0490648,1.00121,-0.0177872,0.00815561,-0.871277,0.824972,0,0,3.2693,1
1774392251233,0.0415413,1.00122,-0.0129635,0.175073,-1.08334,0.64938,0,0,3.26371,1
1774392251247,0.0456339,1.00316,-0.00370816,0.16796,-1.04591,0.504251,0,0,3.32408,5
1774392251260,0.0471118,1.00463,-0.00463407,0.540869,-1.09147,0.328769,0,0,3.27172,5
1774392251274,0.0454186,1.00051,-0.017514,0.359322,-1.09921,0.701176,0,0,3.27713,5
1774392251287,0.0466249,0.999517,-0.0141768,0.366391,-1.04596,0.687065,0,0,3.26702,5
1774392251300,0.0412863,1.00121,-0.0119739,-0.135902,-1.03058,0.74791,0,0,3.23598,5
1774392251314,0.0458756,1.00219,-0.0175504,-0.0080161,-1.03815,1.25041,0,0,3.2756,5
1774392251327,0.0488135,1.00244,-0.0127193,-0.0913538,-1.09144,1.06163,0,0,3.23746,5
1774392251340,0.0468846,1.00244,-0.0102661,0.212831,-1.38081,1.00779,0,0,3.30504,5
1774392251354,0.050762,0.999769,-0.00490946,0.305068,-1.02397,0.863028,0,0,3.56083,5
1774392251368,0.0510241,0.998541,-0.015572,0.206402,-0.89352,1.01481,0,0,3.27904,5
1774392251381,0.0468955,0.996106,-0.0124666,-0.615861,-1.0834,1.39581,0,0,3.26026,5
1774392251394,0.0500332,1.00751,-0.0158523,-0.473708,-1.09158,1.14579,0,0,3.2445,5
1774392251408,0.0417891,0.999794,-0.0156261,-0.549392,-0.992662,1.33531,0,0,3.26997,5
1774392251421,0.04272,1.00632,-7.7359e-05,0.188632,-0.855372,1.06189,0,0,3.25124,5
1774392251434,0.0402953,1.0061,-0.011904,0.0690599,-0.832131,0.840357,0,0,3.30295,5
1774392251448,0.0397974,0.997844,-0.0126914,0.357915,-0.72551,0.717923,0,0,3.25189,5
1774392251461,0.0478117,0.998046,-0.010023,0.335944,-0.862187,1.08288,0,0,3.28128,5
1774392251474,0.045665,0.997318,-0.0117104,0.343489,-0.740821,0.672982,0,0,3.26289,5
1774392251488,0.0451685,1.00023,-0.0102611,0.252182,-0.793735,0.725035,0,0,3.24806,5
1774392251501,0.0492959,0.997572,-0.00879635,0.289963,-0.710174,0.527309,0,0,3.26883,5
1774392251514,0.0488304,1.00072,-0.0124331,-0.00674611,-0.687092,0.793098,0,0,3.24743,5
1774392251528,0.0515004,1.00146,-0.00492019,0.327245,-0.580472,0.474236,0,0,3.27658,5
1774392251541,0.0495702,1.00827,-0.00561179,0.480458,-0.108283,0.488507,0,0,3.23913,5
1774392251555,0.0473742,0.997126,-0.013389,0.351531,-0.084042,0.374387,0,0,3.68433,5
1774392251568,0.0437194,1.00897,-0.011727,0.29026,-0.000250624,0.320771,0,0,3.30617,5
1774392251582,0.0451589,0.995429,-0.00540256,0.602121,0.213102,0.594601,0,0,3.25815,5
1774392251597,0.0458948,1.00362,-0.00852937,-0.127588,0.472507,0.953126,0,0,5.31034,5
1774392251610,0.0390963,0.998317,-0.00538673,-0.335257,0.526556,1.29668,0,0,3.27296,5
1774392251624,0.0373621,1.00436,-0.0143597,-0.883855,0.732209,1.54886,0,0,3.26946,5
1774392251637,0.0424551,1.00925,-0.0129465,-0.603891,0.831763,1.73989,0,0,3.29437,5
1774392251651,0.0388364,1.01122,-0.0117248,-0.26818,1.34199,1.71762,0,0,3.26569,5
1774392251664,0.0543661,1.00686,-0.00758894,0.204692,2.02848,1.59578,0,0,3.30861,5
1774392251677,0.0522566,1.01607,-0.00270982,0.662752,2.79922,1.1616,0,0,3.27739,5
1774392251694,0.056376,1.01879,-0.000985143,1.81335,0.617214,0.376394,0,0,3.30573,5
1774392251707,0.0554247,1.06544,0.0301187,4.6404,0.899918,-0.995895,0,0,3.28847,5
1774392251720,0.0651372,1.0975,0.0305156,10.7223,1.20519,-3.53439,0,0,3.30841,5
1774392251734,0.0751455,1.12851,0.0820191,16.517,1.99763,-5.17068,0,0,3.27439,5
1774392251750,0.219011,1.3009,0.186978,28.3311,1.52812,-18.974,0,0,3.31641,5
1774392251763,0.218508,1.69385,0.213977,63.985,-0.551033,-61.9097,0,0,3.27665,5
1774392251782,0.0134713,1.32848,0.637055,79.1227,11.1254,-49.1603,0,0,3.32963,5
1774392251795,0.137809,0.831331,0.909776,76.1006,14.3263,-26.2213,0,0,3.27328,5
1774392251809,-0.0338141,0.787571,1.08992,58.0007,28.3778,-3.49546,0,0,3.93625,5
1774392251822,-0.203259,0.315095,1.21884,32.5951,51.511,20.2724,0,0,3.26502,5
1774392251836,-0.0862754,0.437623,1.29212,4.70936,70.7592,34.6516,0,0,3.28124,5
1774392251849,0.0289677,0.186795,1.31872,-28.4504,79.1809,50.799,0,0,3.28947,5
1774392251863,0.149061,0.35099,1.2569,-62.7295,78.0796,56.5325,0,0,3.4381,5
1774392251876,0.280839,0.549549,1.13683,-85.4511,68.3345,50.6664,0,0,3.27474,5
1774392251890,0.353399,0.702122,0.97687,-103.686,53.8144,39.9861,0,0,3.27389,5
1774392251903,0.383396,0.876816,0.813314,-115.872,35.7335,28.3858,0,0,3.27954,5
1774392251916,0.375527,0.97121,0.690309,-126.267,19.2021,15.5803,0,0,3.2683,5
1774392251930,0.326173,1.09169,0.558517,-133.056,4.9358,6.50044,0,0,3.29323,5
1774392251943,0.283173,1.18897,0.474053,-136.029,-5.36613,2.29502,0,0,3.307,5
1774392251957,0.235588,1.27569,0.395897,-134.295,-12.0259,1.26263,0,0,3.31704,5
1774392251970,0.191868,1.23409,0.328461,-133.377,-14.2757,4.85947,0,0,3.27434,5
1774392251984,0.14185,1.25162,0.26958,-133.633,-13.5518,9.32253,0,0,3.57983,5
1774392251997,0.107592,1.26167,0.236493,-131.914,-10.4444,13.1869,0,0,3.31102,5
1774392252011,0.0765704,1.24811,0.208635,-128.818,-5.73926,12.445,0,0,3.27046,5
1774392252024,0.0662136,1.19412,0.183232,-129.471,-0.351991,10.9054,0,0,3.3031,3
1774392252038,0.112562,1.29394,0.163914,-123.4,1.582,10.9312,0,0,3.3105,3
1774392252051,0.113035,1.24973,0.130537,-115.269,1.98353,13.3211,0,0,3.28485,3
1774392252065,0.101133,1.19874,0.128914,-108.608,2.44899,12.4606,0,0,3.34225,3
1774392252078,0.074352,1.11881,0.12842,-104.562,3.69094,9.01793,0,0,3.71235,3
1774392252092,0.110902,1.11938,0.12696,-99.3286,3.04773,3.93886,0,0,3.28067,3
1774392252105,0.146308,1.0329,0.112134,-96.3905,0.252635,1.73179,0,0,3.27024,3
1774392252119,0.177822,1.04608,0.109389,-92.6981,-3.78944,1.38272,0,0,3.28748,3
1774392252132,0.155142,0.972777,0.0855677,-89.5057,-7.05892,2.90385,0,0,3.27622,3
1774392252146,0.120048,0.942047,0.0713598,-88.9102,-8.11897,1.10462,0,0,3.31584,3
1774392252159,0.0571975,0.979307,0.0596287,-86.0924,-7.08706,-0.96328,0,0,3.26989,3
1774392252173,0.0823942,1.02638,0.0411078,-76.7607,-6.3229,-3.80067,0,0,3.62583,3
1774392252186,0.071587,0.89567,-0.00878497,-72.3034,-5.97813,1.69349,0,0,3.28234,3
1774392252200,0.058901,0.866114,-0.0250655,-72.4728,-4.36361,6.92329,0,0,3.26232,3
1774392252213,0.00903715,0.837059,-0.0632864,-73.7062,-1.2688,6.51268,0,0,3.31154,3
1774392252227,0.0294395,1.03928,-0.0865542,-66.6699,1.42705,5.10345,0,0,3.26813,3
1774392252240,0.0822568,1.03542,-0.148131,-53.33,1.11544,6.43875,0,0,3.31602,3
1774392252254,0.0980659,1.03176,-0.173458,-41.1433,-0.635983,7.78985,0,0,3.27085,3
1774392252267,0.0774949,0.994084,-0.210995,-30.5888,-1.66106,6.76642,0,0,3.28915,3
1774392252281,0.0591732,0.994869,-0.24179,-21.4624,-1.57278,3.44505,0,0,3.281,3
1774392252294,0.0522804,1.02111,-0.244858,-11.6629,-1.10826,1.67704,0,0,3.71591,3
1774392252308,0.0255237,1.06035,-0.283499,-0.658868,-0.269684,1.59566,0,0,3.28415,3
1774392252321,-0.0601208,1.07342,-0.292922,9.84644,5.37244,-0.345339,0,0,3.26272,3
1774392252335,-0.0974704,1.17212,-0.299042,23.6305,15.0017,-5.13072,0,0,3.27815,3
1774392252348,-0.114418,1.17115,-0.281338,39.0988,26.3782,-3.50867,0,0,3.26313,3
1774392252362,-0.144382,1.16191,-0.244082,52.3649,38.8101,0.765841,0,0,3.3086,3
1774392252375,-0.185829,1.10623,-0.186323,62.329,52.5163,3.16078,0,0,3.27415,5
1774392252389,-0.189192,1.13195,-0.138179,69.2465,66.934,5.1239,0,0,3.73815,5
1774392252402,-0.154955,1.13645,-0.0665186,78.5904,77.8909,9.77236,0,0,3.2753,5
1774392252416,1.13761,3.9857,1.26923,249.618,-14.2663,-53.8022,0,0,3.27617,5
1774392252429,0.576522,-0.209839,2.72178,250.128,-20.7135,-77.7528,0,0,3.28939,5
1774392252442,-1.02402,0.534626,-0.216582,235.007,6.65859,-54.3448,0,0,3.27522,5
1774392252456,-0.76569,0.980691,-0.432762,215.844,40.7986,48.0221,0,0,3.31143,5
1774392252470,0.853759,0.519385,0.310997,159.9,-2.85416,18.5995,0,0,3.46669,5
1774392252483,0.0396947,1.37927,0.133695,117.059,-28.9601,14.2953,0,0,3.27754,5
1774392252496,-0.00417626,1.73699,0.0402598,131.879,-39.6474,27.3655,0,0,3.28109,5
1774392252510,-0.0206699,1.1788,0.0818245,149.291,-19.6781,22.5107,0,0,3.71715,5
1774392252524,0.0193322,0.460119,0.108753,107.05,3.18353,13.4774,0,0,3.27913,5
1774392252537,0.0520831,0.771401,0.113259,71.4272,17.3317,4.99484,0,0,3.26415,5
1774392252550,0.0794537,1.08462,0.130286,70.5598,17.6631,4.50528,0,0,3.30047,5
1774392252564,0.189151,0.819435,0.130128,62.4061,4.74855,4.96047,0,0,3.28947,5
1774392252577,0.0512233,0.791885,0.0975741,40.356,-3.19761,9.98497,0,0,3.27359,5
1774392252591,0.00584102,0.989738,0.072148,31.9793,-0.146531,11.2329,0,0,3.28256,5
1774392252605,-0.0147899,1.05145,0.0705645,32.5099,7.23746,13.596,0,0,3.64822,5
1774392252618,0.0589593,0.968188,0.0936352,31.5068,9.88521,16.2212,0,0,3.28072,5
1774392252631,0.167915,0.945426,0.0548803,26.1915,5.34183,15.369,0,0,3.28171,5
1774392252645,0.137116,0.941669,0.0245649,21.4417,4.10294,9.96274,0,0,3.27672,5
1774392252658,0.115829,0.944323,0.0300022,15.2475,7.71439,2.02375,0,0,3.27582,5
1774392252672,0.111836,0.924415,-0.015885,9.12518,10.0312,-3.10679,0,0,3.44866,5
1774392252685,0.0841223,0.95687,0.0239716,5.17974,12.0398,-6.96556,0,0,3.26885,5
1774392252699,0.0696521,0.987397,0.0244119,4.59716,13.0961,-6.90857,0,0,3.33545,5
1774392252713,0.0501459,0.997508,0.0618256,3.8724,12.125,-4.32833,0,0,3.27119,5
1774392252726,0.0954776,0.983954,0.0590956,4.07573,11.6655,-3.27795,0,0,3.65692,5
1774392252740,0.0888999,0.99652,0.0588392,2.97276,11.2227,-2.72684,0,0,3.28021,5
1774392252753,0.075992,0.98152,0.0520358,3.56312,11.0996,-3.9962,0,0,3.29948,5
1774392252767,0.0973061,0.976344,0.052488,2.08838,10.224,-4.11415,0,0,3.28011,5
1774392252780,0.095954,1.00256,0.0653656,3.11905,9.82562,-4.12211,0,0,3.27891,5
1774392252794,0.0918175,0.995154,0.052554,4.31703,9.43628,-4.63967,0,0,3.34999,5
1774392252807,0.0820797,0.986615,0.0624508,4.06944,9.60256,-5.77523,0,0,3.26617,5
1774392252821,0.107782,1.01159,0.0836348,6.77055,7.1752,-6.47881,0,0,3.32073,5
1774392252834,-0.0713743,1.02411,0.0640622,10.7743,5.23481,-6.97561,0,0,3.28202,5
1774392252847,0.062566,0.977527,0.0513329,6.42522,4.70388,-5.44732,0,0,3.26428,5
1774392252861,0.0717317,1.03147,0.0687609,9.14454,4.17715,-5.23727,0,0,3.28145,5
1774392252874,0.0494274,0.968575,0.0501415,9.76151,4.1223,-4.00369,0,0,3.51316,5
1774392252888,0.0466447,1.00567,0.0478629,8.98705,4.95172,-3.46725,0,0,3.29154,5
1774392252901,0.0818561,1.00319,0.0650998,9.85237,2.22952,-3.88425,0,0,3.30741,5
1774392252915,0.0856744,1.00779,0.0508521,10.4029,1.85608,-4.10621,0,0,3.29074,5
1774392252928,0.0609142,1.01534,0.0663292,12.254,1.99196,-4.73857,0,0,3.27604,5
1774392252942,0.0612775,1.02145,0.0807389,13.9567,2.55557,-6.23217,0,0,3.27308,5
1774392252955,0.0807138,1.09145,0.0730364,20.2864,2.85407,-8.3981,0,0,3.2716,5
1774392252968,0.0557881,1.02037,0.0790715,24.9936,3.50949,-9.3483,0,0,3.26283,5
1774392252982,0.131945,1.08173,0.066226,28.2194,2.20999,-12.1063,0,0,3.29669,5
1774392252995,0.0431663,1.09078,0.00154252,35.1168,0.874224,-11.6274,0,0,3.28308,5
1774392253009,0.0449132,1.02377,0.0114254,35.3048,0.725635,-8.86323,0,0,3.27547,5
1774392253022,-0.0102237,1.10336,0.0134178,38.9966,0.572976,-3.44369,0,0,3.27252,5
1774392253035,-0.0131689,1.09914,0.0241167,41.9758,1.35644,0.400715,0,0,3.26795,5
1774392253049,-0.0282453,1.1635,0.0297571,47.2514,2.1503,6.32579,0,0,3.27372,5
1774392253062,0.0280403,1.16479,0.0105934,53.3862,0.988209,13.8097,0,0,3.25645,5
1774392253076,0.0266184,1.1303,-0.0123371,57.9025,0.49765,16.1533,0,0,3.36567,5
1774392253089,0.0232103,1.00842,-0.0231396,54.4987,0.450523,17.8271,0,0,3.28469,5
1774392253103,0.0428709,1.04644,-0.037769,50.158,0.100284,19.2477,0,0,3.35297,5
1774392253116,0.00774313,1.06631,-0.0555755,49.8178,0.571111,19.7238,0,0,3.27208,5
1774392253129,0.0802059,1.10309,-0.0495903,51.2781,0.359412,19.9459,0,0,3.30895,5
1774392253143,0.0594295,1.12902,-0.0466455,55.7348,0.252229,19.84,0,0,3.27419,5
1774392253156,0.114715,1.1204,-0.0381283,59.2947,-0.334124,18.348,0,0,3.32115,5
1774392253170,0.104543,1.12546,-0.0691814,61.893,-0.876241,16.5626,0,0,3.26902,5
1774392253183,0.127085,1.15245,-0.0727362,66.0639,-2.08798,15.3395,0,0,3.28513,5
1774392253197,0.0827402,1.12052,-0.0849004,68.7934,-2.36558,14.8488,0,0,3.30498,5
1774392253210,0.112401,1.18352,-0.0934633,72.9342,-3.42431,14.7408,0,0,3.27008,5
1774392253223,-0.001387,1.16635,-0.119256,77.8022,-4.05917,17.9751,0,0,3.26889,5
1774392253237,0.109555,1.21242,-0.0887747,84.6741,-5.81155,19.1187,0,0,3.2753,5
1774392253250,0.102574,1.2124,-0.102228,91.8944,-8.5719,20.9639,0,0,3.26845,5
1774392253264,0.105697,1.2418,-0.101566,98.2786,-10.2621,23.1918,0,0,3.27589,5
1774392253277,0.149441,1.26818,-0.0884442,107.278,-13.555,24.8043,0,0,3.39438,5
1774392253291,0.096455,1.34483,-0.0735604,117.169,-16.7614,27.4805,0,0,3.33176,5
1774392253304,0.232478,1.45818,-0.0431202,132.481,-20.2872,27.5494,0,0,3.34547,5
1774392253318,0.214202,1.48473,-0.00385745,148.19,-28.3956,32.7402,0,0,3.2913,5
1774392253331,0.240834,1.63718,0.0548835,166.883,-31.7685,31.6597,0,0,3.29713,5
1774392253344,0.271576,1.82524,0.180284,192.625,-40.1809,33.4983,0,0,3.31445,5
1774392253358,0.247192,2.1121,0.244796,229.949,-45.1531,26.7606,0,0,3.307,5
1774392253371,0.25363,2.1366,0.235398,250.07,-54.3161,23.5135,0,0,3.29571,5
1774392253385,-0.0113768,1.98319,-0.0862901,250.13,-51.1621,23.1385,0,0,3.29893,5
1774392253398,-0.345749,2.29144,-0.281985,250.13,-35.9919,11.9038,0,0,3.28941,5
1774392253412,0.0748119,1.97642,-0.205459,250.13,-25.5351,4.08446,0,0,3.29569,5
1774392253425,0.10969,1.30534,0.122878,250.13,-26.2802,8.86357,0,0,3.2936,5
1774392253438,0.328501,1.83258,-0.0465205,250.13,-23.6643,0.688574,0,0,3.31487,5
1774392253452,0.416554,1.017,-0.0650931,250.13,-28.9841,9.0361,0,0,3.29556,5
1774392253465,0.55449,1.01247,0.0545804,250.13,-37.6306,19.8075,0,0,3.2853,1
1774392253479,1.17489,-1.15596,0.309766,250.13,-57.7718,1.7715,0,0,3.34813,4
1774392253492,2.55393,-3.96843,0.946782,101.932,-129.747,62.2162,0,0,3.2995,4
1774392253506,0.137025,-1.65992,0.189558,-194.358,-161.942,66.0953,0,0,3.31145,1
1774392253519,-0.207028,0.944562,0.976067,-175.796,-143.795,-39.0976,0,0,3.27967,1
1774392253533,-0.767961,0.279918,0.491668,-201.884,-98.2507,-92.8469,0,0,3.32213,4
1774392253546,-0.667249,0.769537,0.457203,-180.415,-57.8232,-98.3804,0,0,3.27761,4
1774392253559,-0.637113,0.0871353,0.381966,-208.154,-19.0397,-61.5986,0,0,3.28489,4
1774392253573,-0.428042,0.512046,0.375277,-217.544,12.8436,-32.2861,0,0,3.32723,3
1774392253586,-0.420934,0.178904,0.411441,-247.209,45.6347,-16.8325,0,0,3.32006,3
1774392253600,-0.201045,0.552827,0.424739,-250.129,70.422,-22.1368,0,0,3.34225,3
1774392253613,0.104437,0.536215,0.453713,-250.137,73.1217,-17.2589,0,0,3.29578,3
1774392253627,0.407914,0.777365,0.469404,-250.137,53.1894,-1.96178,0,0,3.40962,3
1774392253640,0.464076,0.646161,0.44859,-250.137,28.098,18.5646,0,0,3.34799,2
1774392253654,0.434473,1.08643,0.43464,-250.137,6.50733,20.9623,0,0,3.33187,2
1774392253667,0.339583,1.38232,0.336426,-250.137,-10.6129,16.441,0,0,3.30004,2
1774392253680,0.219105,1.76154,0.157628,-250.137,-22.9402,25.7279,0,0,3.33328,2
1774392253694,0.053558,1.41165,0.10597,-250.137,-26.6987,43.466,0,0,3.31506,2
1774392253707,-0.0458919,1.32514,0.159402,-250.137,-22.6762,50.4143,0,0,3.31765,2
1774392253721,-0.0988576,1.4214,0.165983,-250.137,-9.79426,42.7253,0,0,3.31589,2
1774392253734,0.0291483,1.54771,0.19954,-250.137,1.30269,26.849,0,0,3.28943,2
1774392253748,0.205179,1.6132,0.200435,-250.137,2.80467,21.5121,0,0,3.28124,5
1774392253761,0.322901,1.79742,0.216473,-250.137,-5.34204,32.8668,0,0,3.29324,5
1774392253774,0.290931,1.94337,0.172096,-250.137,-14.8266,49.9946,0,0,3.30682,5
1774392253788,0.105415,2.00822,0.0713023,-250.137,-15.6921,58.448,0,0,3.31319,5
1774392253801,-0.121187,2.04328,-0.0506627,-250.137,-4.66657,52.4302,0,0,3.28773,5
1774392253815,-0.207335,2.12362,-0.228607,-250.137,13.8226,35.9424,0,0,3.3213,5
1774392253828,-0.0374662,2.20589,-0.416545,-250.137,28.5894,22.4145,0,0,3.28854,5
1774392253842,0.530621,2.28088,-0.705107,-240.297,26.0838,10.5698,0,0,3.29858,5
1774392253855,0.984558,2.35801,-0.945338,-202.708,-4.21472,18.4421,0,0,3.29271,5
1774392253868,0.69553,2.44051,-1.30169,-145.56,-44.0716,64.2523,0,0,3.31302,1
1774392253882,-0.0801253,2.44189,-1.54979,-74.9897,-56.8473,84.6033,0,0,3.33824,1
1774392253895,-0.938114,1.79108,-1.97153,-22.7973,-23.5728,34.1509,0,0,3.30397,3
1774392253909,-1.19841,1.44581,-2.14149,-9.48257,30.7764,-35.1058,0,0,3.31676,3
1774392253922,-0.69756,1.56071,-2.02038,-3.37704,66.7245,-61.0217,0,0,3.32136,3
1774392253936,0.730687,3.9878,-2.03435,216.975,42.1498,-27.619,0,0,3.32632,5
1774392253949,-0.0192183,-1.04624,0.172856,250.031,-14.9057,-70.8782,0,0,3.31754,5
1774392253963,0.591687,-0.0875335,1.46792,228.933,34.8512,-74.356,0,0,3.28545,5
1774392253976,-0.50577,1.0211,-0.125131,213.382,15.0973,-64.2288,0,0,3.28424,5
1774392253989,-0.228916,0.9401,-0.140548,173.212,31.3483,-3.81429,0,0,3.29137,5
1774392254003,0.0945819,1.40103,0.229118,139.414,33.9769,-14.0001,0,0,3.30345,5
1774392254016,0.0740766,1.95938,0.000648411,160.669,7.95569,13.2924,0,0,3.33412,5
1774392254030,0.00255311,0.703028,0.0634085,156.783,3.07567,20.4443,0,0,3.30561,5
1774392254043,0.0697341,0.289411,0.0403977,89.1489,11.5396,11.0662,0,0,3.36993,5
1774392254057,0.0569484,0.939393,0.0380974,59.5389,18.7342,2.71201,0,0,3.29596,5
1774392254070,0.0955113,1.10027,0.0973614,65.7981,19.9962,-1.58257,0,0,3.28806,5
1774392254083,0.039342,0.857652,0.102513,59.8651,17.907,-1.42033,0,0,3.31256,5
1774392254097,0.0638429,0.862282,0.109827,45.8054,15.2142,-2.62997,0,0,3.30598,5
1774392254110,0.025581,1.04548,0.0918861,42.605,15.5106,-1.81922,0,0,3.34267,5
1774392254124,-0.00546079,1.01237,0.0891251,45.5028,14.1187,-0.964389,0,0,3.34815,5
1774392254137,0.021351,0.892928,0.0509711,38.1594,15.5606,-0.299698,0,0,3.32586,5
1774392254151,0.0341162,0.957929,0.0456806,31.6683,14.8266,-1.07402,0,0,3.30795,5
1774392254164,0.0827658,0.995419,0.06849,28.871,11.7573,-1.51776,0,0,3.29726,5
1774392254177,0.0696454,0.997062,0.0341066,29.5476,8.87884,-3.16302,0,0,3.29415,5
1774392254191,0.0676369,0.994884,0.0215469,28.1492,7.38614,-3.51802,0,0,3.3028,5
1774392254204,0.0428479,1.00921,0.0627831,27.8254,8.39393,-5.96977,0,0,3.29621,5
1774392254218,0.0556006,1.07074,0.0277621,31.9419,7.02699,-8.2451,0,0,3.31169,5
1774392254231,0.0578501,1.09194,0.0523678,38.2711,6.79459,-12.377,0,0,3.30097,5
1774392254245,0.117623,1.10564,0.0410718,48.283,9.53379,-19.1934,0,0,3.29865,5
1774392254258,-0.0516481,1.01218,0.134302,53.4806,13.6746,-13.2772,0,0,3.29158,5
1774392254272,0.0740815,0.819805,-0.156269,44.7437,14.2426,-13.2215,0,0,3.3313,5
1774392254285,0.0188296,0.813508,-0.013649,28.4153,7.46303,-6.93483,0,0,3.31815,5
1774392254298,-0.0232283,0.987173,-0.0165869,20.7481,8.37133,-5.40914,0,0,3.32917,5
1774392254312,0.0270934,1.00042,-0.0248612,22.7726,5.91574,-2.41354,0,0,3.34697,5
1774392254325,-0.0584125,1.06414,-0.0244163,23.6843,7.64369,0.670166,0,0,3.30019,5
1774392254339,-0.0284693,1.1796,-0.0698424,37.3332,8.48603,6.18199,0,0,3.32282,5
1774392254352,-0.0346373,1.12187,-0.0523332,50.769,9.71388,11.7239,0,0,3.30654,5
1774392254366,0.0467144,0.900515,-0.104477,46.547,8.27149,9.79204,0,0,3.29213,5
1774392254379,0.108822,0.958938,-0.0150931,37.8809,7.04185,6.67345,0,0,3.30397,5
1774392254393,0.0190016,0.992752,-0.088502,36.272,3.90252,2.15093,0,0,3.7373,5
1774392254406,0.0474658,1.01041,-0.0563125,32.5912,2.55365,-1.7593,0,0,3.37445,5
1774392254420,0.0208842,1.09139,-0.0845762,37.7403,0.319659,-2.9963,0,0,3.30911,5
1774392254433,0.0380008,1.07042,-0.109252,37.9992,-0.706853,-4.17967,0,0,3.31728,5
1774392254447,0.0167075,1.08392,-0.102329,41.1889,-0.923018,-5.64447,0,0,3.30065,5
1774392254460,-0.0912597,1.07257,-0.104724,39.8361,2.23483,-8.03103,0,0,3.29165,5
