timestamp,ax,ay,az,gx,gy,gz,roll_k,pitch_k,delay_ms,classe_prevista
1777225951858,-0.017473,-0.65826,-0.0163299,0.0439054,-0.274673,0.243363,0,0,3.25833,-1
1777225951871,-0.0219971,-0.793569,-0.0176357,0.0330447,-0.176391,0.128038,0,0,3.2757,-1
1777225951885,-0.0285011,-0.854039,-0.0195938,0.0246653,-0.142844,0.0914846,0,0,3.26644,-1
1777225951898,-0.0357905,-0.888095,-0.0198152,0.0197804,-0.126443,0.0715435,0,0,3.27817,-1
1777225951912,-0.0392092,-0.910633,-0.0180317,0.014226,-0.118404,0.0549704,0,0,3.26463,-1
1777225951925,-0.0437562,-0.924856,-0.0190345,0.00933836,-0.113775,0.0429222,0,0,3.47733,-1
1777225951939,-0.0455364,-0.935002,-0.0184533,0.00743608,-0.10855,0.0333423,0,0,3.26148,-1
1777225951952,-0.0471568,-0.944894,-0.0201492,0.00400629,-0.105183,0.0248279,0,0,3.26148,-1
1777225951966,-0.0458849,-0.951885,-0.0193846,0.00134233,-0.102212,0.0175511,0,0,3.76159,-1
1777225951979,-0.0455635,-0.958677,-0.0179332,-0.00074136,-0.101101,0.0131192,0,0,3.26104,-1
1777225951993,-0.0448772,-0.96449,-0.0176376,-0.00277558,-0.101583,0.00891517,0,0,3.25665,-1
1777225952006,-0.0460482,-0.968137,-0.0180403,-0.00591395,-0.103686,0.00577485,0,0,3.262,-1
1777225952019,-0.0466684,-0.97092,-0.0180439,-0.0068786,-0.105896,0.00176689,0,0,3.25848,-1
1777225952033,-0.0472301,-0.973791,-0.0167467,-0.00676131,-0.107631,-0.00207194,0,0,3.26291,-1
1777225952046,-0.048537,-0.976909,-0.0162974,-0.00692073,-0.109004,-0.00368653,0,0,3.37111,-1
1777225952060,-0.0490358,-0.97834,-0.0160428,-0.00716819,-0.107917,-0.0063188,0,0,3.8448,-1
1777225952073,-0.0493347,-0.97771,-0.0164769,-0.00448694,-0.106439,-0.00734355,0,0,3.26,-1
1777225952087,-0.0497879,-0.978241,-0.0142154,0.00122586,-0.104495,-0.00805545,0,0,3.25994,-1
1777225952100,-0.0531652,-0.983632,-0.0157982,0.00711433,-0.0981358,-0.00649357,0,0,3.26285,-1
1777225952114,-0.0512622,-0.982306,-0.0179773,0.00763414,-0.0904209,-0.00637808,0,0,3.26139,-1
1777225952127,-0.0470278,-0.978797,-0.019444,0.0172486,-0.0859445,-0.00600174,0,0,3.26393,-1
1777225952140,-0.0385795,-0.978437,-0.0195201,0.0309858,-0.0865699,-0.00301478,0,0,3.25917,-1
1777225952154,-0.0344815,-0.980028,-0.0189731,0.0433079,-0.0940152,0.00781061,0,0,3.31563,-1
1777225952167,-0.0363438,-0.982923,-0.0167578,0.0558521,-0.0998491,0.020355,0,0,3.2588,-1
1777225952180,-0.0413105,-0.982986,-0.0142238,0.0652223,-0.101236,0.0301326,0,0,3.2588,-1
1777225952194,-0.0443316,-0.983137,-0.014924,0.0774454,-0.0952656,0.0356584,0,0,3.26067,-1
1777225952207,-0.0418656,-0.983139,-0.0134709,0.0875287,-0.0913087,0.0408609,0,0,3.25498,-1
1777225952221,-0.0378581,-0.983592,-0.0118877,0.0967835,-0.0943351,0.0487587,0,0,3.26043,-1
1777225952234,-0.0420404,-0.983373,-0.00858224,0.10531,-0.100814,0.05819,0,0,3.25817,-1
1777225952261,-0.050241,-0.983055,-0.00696812,0.112288,-0.101722,0.058797,0,0,16.7969,0
1777225952274,-0.0510523,-0.982682,-0.00505202,0.120723,-0.0984066,0.0506258,0,0,3.38128,0
1777225952288,-0.0508879,-0.983999,-0.00194057,0.127817,-0.0987612,0.0451906,0,0,3.4442,0
1777225952301,-0.0528688,-0.985303,0.00166158,0.133804,-0.100469,0.0417682,0,0,3.36785,0
1777225952315,-0.0558756,-0.987015,0.00324443,0.138208,-0.101269,0.0329747,0,0,3.42854,0
1777225952328,-0.0617035,-0.988405,0.00214119,0.144296,-0.0978893,0.0206723,0,0,3.38519,0
1777225952343,-0.0632241,-0.988034,0.00356423,0.154445,-0.0942716,0.00347363,0,0,4.16195,0
1777225952356,-0.06152,-0.991735,0.00550752,0.164442,-0.0894502,-0.0165456,0,0,3.45763,0
1777225952370,-0.0584319,-0.995205,0.00687297,0.172989,-0.0825953,-0.0314216,0,0,3.42283,0
1777225952383,-0.051697,-0.998121,0.000690976,0.182237,-0.0774681,-0.0414518,0,0,3.41272,0
1777225952397,-0.0466861,-0.998272,-0.000140041,0.20437,-0.0774193,-0.0511463,0,0,3.34117,0
1777225952410,-0.0481266,-1.01076,-0.00330662,0.228693,-0.0740199,-0.0636015,0,0,3.40948,0
1777225952424,-0.0372484,-1.03112,-0.0193107,0.234381,-0.0756909,-0.087327,0,0,3.35328,0
1777225952437,-0.020919,-1.03725,-0.0127767,0.251997,-0.100595,-0.103803,0,0,3.40491,0
1777225952451,-0.0209613,-1.04309,-0.00980621,0.262835,-0.139185,-0.0932964,0,0,3.47255,0
1777225952465,0.0052862,-1.04967,-0.0305838,0.264691,-0.193481,-0.0976707,0,0,4.51783,0
1777225952479,0.0797747,-1.01282,0.0280738,0.301682,-0.38757,-0.128949,0,0,3.49276,0
1777225952493,0.11752,-1.31618,-0.039454,0.327687,-0.599298,-0.250308,0,0,3.3867,0
1777225952506,0.167632,-1.19885,-0.0810968,0.0715585,-0.831222,-0.322852,0,0,3.49168,0
1777225952520,0.217413,-1.08572,-0.117252,0.0317822,-1.0816,-0.175468,0,0,3.40533,0
1777225952534,0.271251,-1.10267,-0.0963643,0.0783045,-1.31823,-0.00371713,0,0,4.43254,0
1777225952548,0.269963,-1.13029,-0.0712155,-0.0392119,-1.51542,0.0917879,0,0,3.43211,0
1777225952563,0.20344,-1.12393,-0.0495416,-0.133809,-1.67975,0.156274,0,0,4.64987,0
1777225952576,0.177179,-1.09048,-0.022713,-0.228759,-1.81669,0.175292,0,0,3.40672,0
1777225952591,0.176705,-1.05144,0.00518071,-0.2695,-1.9308,0.212743,0,0,4.44565,0
1777225952605,0.160208,-1.04427,0.046128,-0.308528,-2.0259,0.301701,0,0,3.46274,0
1777225952618,0.112877,-1.02663,0.0818081,-0.358188,-2.08972,0.393389,0,0,3.37141,0
1777225952632,0.0443404,-0.990179,0.1124,-0.378592,-2.06996,0.433957,0,0,3.4565,0
1777225952645,-0.0262316,-0.966766,0.136677,-0.379717,-1.96402,0.411516,0,0,3.41607,0
1777225952660,-0.0678472,-0.953515,0.150613,-0.370438,-1.79155,0.356696,0,0,4.43795,0
1777225952673,-0.0770514,-0.94378,0.159399,-0.354602,-1.6,0.303582,0,0,3.41135,0
1777225952688,-0.0697613,-0.938449,0.166737,-0.331494,-1.41264,0.255873,0,0,4.62628,0
1777225952702,-0.0635604,-0.940447,0.172176,-0.309375,-1.23155,0.208101,0,0,3.39698,0
1777225952716,-0.0515816,-0.937678,0.173198,-0.288728,-1.05666,0.158265,0,0,4.29309,0
1777225952730,-0.0124521,-0.935628,0.17534,-0.260213,-0.910601,0.107625,0,0,3.46757,0
1777225952743,0.0435908,-0.944142,0.176299,-0.234528,-0.811289,0.0707689,0,0,3.40189,0
1777225952757,0.104506,-0.955106,0.174075,-0.216445,-0.760311,0.0584525,0,0,3.48196,0
1777225952770,0.156751,-0.960379,0.170021,-0.204481,-0.752677,0.061942,0,0,3.36661,0
1777225952784,0.189982,-0.965407,0.165086,-0.194688,-0.773923,0.0712621,0,0,3.45818,0
1777225952798,0.204937,-0.967874,0.158742,-0.19098,-0.806869,0.0827184,0,0,3.38878,0
1777225952813,0.20769,-0.96548,0.150113,-0.188578,-0.841221,0.0929269,0,0,4.53241,0
1777225952826,0.202134,-0.959959,0.139501,-0.183713,-0.866628,0.0984696,0,0,3.3745,0
1777225952841,0.199079,-0.953332,0.127199,-0.176542,-0.883869,0.0951369,0,0,4.17322,0
1777225952854,0.198294,-0.952501,0.1087,-0.168467,-0.894446,0.0832248,0,0,3.44394,0
1777225952868,0.203724,-0.951232,0.0822474,-0.16175,-0.902076,0.0667586,0,0,3.427,0
1777225952881,0.215259,-0.948393,0.0533289,-0.148405,-0.917824,0.0475914,0,0,3.46359,0
1777225952895,0.220255,-0.955933,0.0221085,-0.13516,-0.944281,0.0301811,0,0,3.38157,0
1777225952909,0.214974,-0.968432,-0.00715326,-0.129414,-0.982384,0.0167794,0,0,4.45839,0
1777225952923,0.196233,-0.981246,-0.038543,-0.131764,-1.02566,0.0116801,0,0,3.38939,0
1777225952938,0.166803,-0.987127,-0.0657642,-0.136622,-1.06519,0.015942,0,0,4.56243,0
1777225952951,0.134721,-0.995226,-0.0900096,-0.147453,-1.09636,0.0230942,0,0,3.422,0
1777225952966,0.10944,-0.999715,-0.10498,-0.166503,-1.11888,0.0283673,0,0,4.33589,0
1777225952979,0.0881339,-1.00149,-0.113248,-0.191373,-1.13438,0.0364766,0,0,3.48344,0
1777225952993,0.0664826,-0.992318,-0.112705,-0.218524,-1.14022,0.0481198,0,0,3.36509,0
1777225953006,0.0398989,-0.971808,-0.0981754,-0.23181,-1.13169,0.0554433,0,0,3.48045,0
1777225953020,-0.00338548,-0.942997,-0.0626861,-0.218862,-1.09276,0.058442,0,0,3.38514,0
1777225953034,-0.0554433,-0.917147,-0.00327302,-0.187487,-1.00917,0.0507373,0,0,3.51926,0
1777225953047,-0.101606,-0.889588,0.0592815,-0.146926,-0.8845,0.0274592,0,0,3.40716,0
1777225953061,-0.123702,-0.90774,0.0503115,-0.125225,-0.742032,-0.0189621,0,0,4.24035,0
1777225953075,-0.11078,-0.913206,0.0127649,-0.111059,-0.622101,-0.0618323,0,0,3.46956,0
1777225953089,-0.0942835,-0.92326,-0.0325739,-0.0809333,-0.530313,-0.0718577,0,0,3.43575,0
1777225953103,-0.0780309,-0.951356,-0.076024,-0.0589329,-0.459714,-0.0623624,0,0,3.48204,0
1777225953117,-0.0589335,-0.974656,-0.0988531,-0.0487927,-0.406046,-0.060531,0,0,3.37653,0
1777225953130,-0.0394249,-0.982339,-0.0894622,-0.03477,-0.357749,-0.0661041,0,0,3.47723,0
1777225953144,-0.0214255,-0.987337,-0.0703382,-0.0173338,-0.31348,-0.0755956,0,0,3.4054,0
1777225953157,-0.0175083,-1.01046,-0.0661204,-0.0108189,-0.276653,-0.0829455,0,0,3.41525,0
1777225953171,-0.0211529,-1.04074,-0.072528,-0.0234432,-0.239068,-0.0912332,0,0,3.47708,0
1777225953186,-0.023706,-1.06873,-0.0707562,-0.0451594,-0.200178,-0.105671,0,0,4.58384,0
1777225953200,-0.0203569,-1.09577,-0.0653894,-0.0742486,-0.16296,-0.119421,0,0,3.47697,0
1777225953215,-0.0131382,-1.13279,-0.0590248,-0.112485,-0.128688,-0.134581,0,0,4.21515,0
1777225953228,0.00014264,-1.17153,-0.050539,-0.172783,-0.10112,-0.156387,0,0,3.47269,0
1777225953242,0.0192337,-1.20491,-0.0438471,-0.250818,-0.0793561,-0.181455,0,0,3.3949,0
1777225953255,0.0427581,-1.23613,-0.0403212,-0.337577,-0.0670207,-0.201314,0,0,3.50065,0
1777225953269,0.0762442,-1.26418,-0.031662,-0.429406,-0.0698709,-0.217342,0,0,3.45501,0
1777225953283,0.108503,-1.29522,-0.0219885,-0.526566,-0.0884548,-0.224986,0,0,3.48165,0
1777225953296,0.140467,-1.32816,-0.00834566,-0.631451,-0.117834,-0.228036,0,0,3.41788,0
1777225953310,0.166161,-1.36084,0.00793903,-0.743385,-0.155371,-0.227498,0,0,3.45434,0
1777225953323,0.178753,-1.39481,0.0284799,-0.861472,-0.198293,-0.224607,0,0,3.46706,0
1777225953337,0.171734,-1.42322,0.0559977,-0.986252,-0.246363,-0.218216,0,0,3.87558,0
1777225953351,0.141737,-1.43678,0.0826561,-1.11538,-0.292186,-0.203488,0,0,3.47797,0
1777225953365,0.0918209,-1.42684,0.100236,-1.24412,-0.322801,-0.180629,0,0,3.63253,0
1777225953378,0.0351959,-1.38552,0.102405,-1.36597,-0.334421,-0.163107,0,0,3.46699,0
1777225953392,-0.0117797,-1.31834,0.0988841,-1.4686,-0.325987,-0.166991,0,0,3.38548,0
1777225953405,-0.036029,-1.23492,0.0249531,-1.5456,-0.312801,-0.20594,0,0,3.46545,0
1777225953419,-0.0139408,-1.08339,-0.0763939,-1.56766,-0.304599,-0.262775,0,0,3.43597,0
1777225953433,0.0151776,-0.982222,-0.214187,-1.48174,-0.331059,-0.281345,0,0,3.83555,0
1777225953450,0.0120194,-0.938849,-0.265137,-1.34245,-0.359419,-0.21962,0,0,3.45162,0
1777225953463,-0.0263686,-0.876001,-0.297984,-1.21925,-0.35673,-0.132075,0,0,3.43193,0
1777225953477,-0.0901002,-0.771054,-0.267018,-1.06615,-0.321753,-0.0742356,0,0,3.50704,0
1777225953490,-0.154377,-0.656162,-0.220861,-0.859567,-0.21015,-0.0702854,0,0,3.41806,0
1777225953504,-0.173959,-0.566029,-0.140733,-0.650034,-0.0998073,-0.119004,0,0,3.50595,0
1777225953518,-0.171818,-0.485907,-0.0962901,-0.413743,0.036929,-0.152758,0,0,3.4161,0
1777225953531,-0.148727,-0.448547,-0.0654889,-0.152203,0.13599,-0.139881,0,0,3.44934,0
1777225953545,-0.103263,-0.423799,-0.0379423,0.0818791,0.182689,-0.128565,0,0,3.5088,0
1777225953558,-0.068808,-0.384972,-0.0105833,0.332469,0.187954,-0.0880151,0,0,3.52496,0
1777225953572,-0.0600304,-0.373621,0.0289345,0.610213,0.173918,0.0136515,0,0,3.51532,0
1777225953586,-0.0426937,-0.423636,0.0751484,0.849681,0.139843,0.0943916,0,0,3.39342,0
1777225953602,-0.0311482,-0.486203,0.107262,1.00792,0.0888256,0.136637,0,0,3.46808,0
1777225953616,-0.0215102,-0.506037,0.123208,1.14924,0.032062,0.186663,0,0,3.37294,0
1777225953629,0.0020106,-0.523225,0.136345,1.31915,-0.0488414,0.241545,0,0,3.5749,0
1777225953643,0.0157081,-0.57135,0.157112,1.49875,-0.152622,0.300957,0,0,3.46384,0
1777225953656,0.0147642,-0.653604,0.174468,1.65402,-0.261613,0.369932,0,0,3.47449,0
1777225953670,0.00635215,-0.74236,0.183038,1.77166,-0.370924,0.42446,0,0,3.49758,0
1777225953684,-0.00773956,-0.824761,0.185299,1.86839,-0.47521,0.459989,0,0,3.44043,0
1777225953697,-0.0215507,-0.910973,0.189063,1.94996,-0.56536,0.493197,0,0,3.46136,0
1777225953711,-0.0268181,-1.0069,0.190691,2.00206,-0.64383,0.524763,0,0,3.4009,0
1777225953724,-0.0262761,-1.09227,0.182356,2.03129,-0.711551,0.548308,0,0,3.46839,0
1777225953738,-0.0193391,-1.16112,0.169007,2.06153,-0.773315,0.5556,0,0,3.38807,0
1777225953751,-0.021906,-1.23525,0.155938,2.08751,-0.835485,0.553114,0,0,3.46945,0
1777225953765,-0.0521238,-1.31357,0.135711,2.08267,-0.882523,0.553079,0,0,3.38118,0
1777225953778,-0.111689,-1.37201,0.0988785,2.03724,-0.896008,0.558774,0,0,3.51289,0
1777225953792,-0.183963,-1.40419,0.0496237,1.97168,-0.861203,0.554806,0,0,3.42331,0
1777225953805,-0.243464,-1.42322,-0.00597697,1.89012,-0.77618,0.535964,0,0,3.45078,0
1777225953819,-0.271993,-1.43974,-0.069082,1.78658,-0.65772,0.509067,0,0,3.37511,0
1777225953832,-0.254296,-1.46003,-0.134874,1.65273,-0.533495,0.476461,0,0,3.32576,0
1777225953846,-0.185172,-1.47366,-0.201551,1.48259,-0.433854,0.432051,0,0,3.36662,0
1777225953859,-0.099935,-1.47305,-0.268643,1.28253,-0.380362,0.383732,0,0,3.32179,0
1777225953873,-0.0371255,-1.46203,-0.328985,1.06688,-0.368367,0.349153,0,0,3.50128,0
1777225953886,-0.0128982,-1.45645,-0.372175,0.83694,-0.368945,0.322602,0,0,3.35279,0
1777225953900,-0.00930044,-1.44816,-0.396643,0.592882,-0.360075,0.280833,0,0,3.37618,0
1777225953913,0.00569452,-1.48462,-0.394435,0.34945,-0.347187,0.20334,0,0,3.36474,0
1777225953927,0.031936,-1.41761,-0.337504,0.0869718,-0.348979,0.134527,0,0,3.33796,0
1777225953940,0.0312344,-1.38812,-0.0739095,-0.00560234,-0.344531,0.144014,0,0,3.36003,0
1777225953954,0.0300782,-1.47831,0.0272613,-0.209809,-0.335888,0.144261,0,0,3.37736,0
1777225953967,0.000924416,-1.41405,0.00610332,-0.540731,-0.298125,0.132622,0,0,3.41153,0
1777225953981,-0.034007,-1.27086,-0.0626472,-0.608319,-0.217305,0.129335,0,0,3.4776,0
1777225953994,-0.0491503,-1.19692,-0.0218343,-0.587645,-0.150999,0.0966597,0,0,3.54557,0
1777225954008,-0.0457942,-1.20903,0.0246675,-0.606956,-0.0846364,0.0648882,0,0,3.36684,0
1777225954021,-0.0179152,-1.19959,0.0460603,-0.692794,-0.0265354,0.0620633,0,0,3.37149,0
1777225954035,0.00789855,-1.13633,0.0556582,-0.748779,-0.00193473,0.0837169,0,0,3.43958,0
1777225954048,0.0242947,-1.07506,0.0671442,-0.72696,-0.0219812,0.106062,0,0,3.39284,0
1777225954062,0.00259464,-1.07131,0.0597441,-0.708242,-0.0725416,0.123665,0,0,3.43875,0
1777225954075,-0.043849,-1.06697,0.0499089,-0.705927,-0.0899552,0.127074,0,0,3.4958,0
1777225954089,-0.0686338,-1.03324,0.0487048,-0.680728,-0.0836395,0.0984143,0,0,3.44439,0
1777225954102,-0.0544422,-1.025,0.0502009,-0.644322,-0.0991525,0.0551163,0,0,3.35629,0
1777225954116,-0.0362011,-1.02737,0.0518216,-0.626286,-0.139332,0.04663,0,0,3.52978,0
1777225954130,-0.0364494,-1.01617,0.0417757,-0.605658,-0.176911,0.0626369,0,0,3.47534,0
1777225954143,-0.0604077,-0.995412,0.0364316,-0.562934,-0.180276,0.0568412,0,0,3.52657,0
1777225954157,-0.0837825,-0.988199,0.0301831,-0.5049,-0.142164,0.025701,0,0,3.48719,0
1777225954170,-0.0763453,-0.994322,0.0323183,-0.456514,-0.0924139,-0.00531278,0,0,3.49148,0
1777225954184,-0.0530625,-1.00089,0.0326601,-0.424436,-0.0614137,-0.00653927,0,0,3.49896,0
1777225954198,-0.0358075,-0.998813,0.0308336,-0.402501,-0.0567124,0.0139272,0,0,3.50333,0
1777225954211,-0.0396466,-0.991988,0.0263523,-0.378394,-0.0641942,0.0318604,0,0,3.49209,0
1777225954225,-0.0581648,-0.990856,0.02481,-0.36015,-0.0689786,0.0307997,0,0,3.50139,0
1777225954238,-0.0719263,-0.990131,0.0210903,-0.348204,-0.0682837,0.014127,0,0,3.38112,0
1777225954252,-0.0765072,-0.989726,0.0178607,-0.337257,-0.0667631,-0.00404174,0,0,3.48678,0
1777225954266,-0.0750797,-0.987541,0.0128047,-0.327485,-0.0659031,-0.0181646,0,0,3.40119,0
1777225954279,-0.0743871,-0.980658,0.00609863,-0.309329,-0.0596266,-0.0262186,0,0,3.50474,0
1777225954293,-0.0726277,-0.979217,0.000919663,-0.283639,-0.0446507,-0.0341389,0,0,3.3816,0
1777225954306,-0.0687837,-0.98009,-0.00496022,-0.257651,-0.0237102,-0.0401284,0,0,3.48245,0
1777225954320,-0.0629691,-0.982392,-0.00984009,-0.234238,-0.00241753,-0.0414684,0,0,3.4738,0
1777225954333,-0.0593684,-0.982685,-0.0134335,-0.214346,0.0159243,-0.0384628,0,0,3.37947,0
1777225954347,-0.0568535,-0.981557,-0.0170681,-0.196586,0.0269344,-0.0369124,0,0,3.45347,0
1777225954360,-0.058434,-0.980223,-0.0184543,-0.180349,0.0312112,-0.038254,0,0,3.38581,0
1777225954374,-0.0594846,-0.983537,-0.0218777,-0.171792,0.0327905,-0.0425144,0,0,3.42712,0
1777225954387,-0.0603645,-0.985256,-0.0221155,-0.169165,0.0331651,-0.0492328,0,0,3.4301,0
1777225954401,-0.0565279,-0.986748,-0.0250886,-0.167828,0.0306529,-0.0570451,0,0,3.41397,0
1777225954414,-0.0522318,-0.988205,-0.0282169,-0.169284,0.0232285,-0.0650058,0,0,3.33211,0
1777225954428,-0.0473436,-0.989952,-0.0300964,-0.172381,0.011978,-0.0706219,0,0,3.3155,0
1777225954441,-0.0404615,-0.991662,-0.0368114,-0.179172,-0.00393692,-0.0764724,0,0,3.37218,0
1777225954455,-0.0350332,-0.989576,-0.0412904,-0.182046,-0.0234334,-0.0776583,0,0,3.32618,0
1777225954468,-0.0322505,-0.993427,-0.0448895,-0.183893,-0.0441844,-0.0776288,0,0,3.37547,0
1777225954482,-0.0311857,-0.995387,-0.0458589,-0.188244,-0.0623165,-0.0794998,0,0,3.43834,0
1777225954495,-0.0293926,-0.99281,-0.0521376,-0.188842,-0.0727446,-0.0787944,0,0,3.45778,0
1777225954509,-0.0265489,-0.994948,-0.0563985,-0.187038,-0.0751752,-0.0768579,0,0,3.35903,0
1777225954522,-0.0235008,-1.00054,-0.0569452,-0.185725,-0.0697834,-0.0760711,0,0,3.36805,0
1777225954536,-0.020211,-1.00262,-0.0614091,-0.18103,-0.0579875,-0.0728583,0,0,3.3639,0
1777225954549,-0.0167434,-1.00665,-0.0630649,-0.175337,-0.0442389,-0.0656516,0,0,3.37258,0
1777225954563,-0.0148909,-1.01269,-0.0663363,-0.175707,-0.031166,-0.0562618,0,0,3.39414,0
1777225954576,-0.0140869,-1.01694,-0.0693053,-0.179552,-0.0197121,-0.0483734,0,0,3.35201,0
1777225954590,-0.0162842,-1.02014,-0.0731699,-0.186217,-0.00842424,-0.0402221,0,0,3.51052,0
1777225954603,-0.0204439,-1.02299,-0.0759783,-0.19443,0.00464646,-0.035325,0,0,3.37423,0
1777225954617,-0.0242808,-1.02427,-0.0799609,-0.201707,0.0204242,-0.0365877,0,0,3.41451,0
1777225954630,-0.0274511,-1.02529,-0.0845447,-0.209018,0.0363968,-0.0420801,0,0,3.37875,0
1777225954644,-0.0282413,-1.02652,-0.0896183,-0.215441,0.0524935,-0.0517843,0,0,3.38632,0
1777225954657,-0.0378066,-1.02837,-0.0955032,-0.220883,0.0678031,-0.0624411,0,0,3.40038,0
1777225954671,-0.0436021,-1.03232,-0.0975886,-0.22566,0.0880547,-0.0799477,0,0,3.41621,0
1777225954684,-0.046028,-1.04157,-0.101715,-0.236663,0.106013,-0.101318,0,0,3.54061,0
1777225954698,-0.0443059,-1.05073,-0.105138,-0.252575,0.121054,-0.119253,0,0,3.46376,0
1777225954712,-0.0401404,-1.05962,-0.107079,-0.272222,0.133537,-0.129543,0,0,3.56188,0
1777225954725,-0.035044,-1.06762,-0.106996,-0.291203,0.146281,-0.138411,0,0,3.43728,0
1777225954739,-0.0231553,-1.08947,-0.114709,-0.306855,0.167003,-0.154681,0,0,3.54846,0
1777225954753,0.0342336,-1.16335,-0.105577,-0.323232,0.189919,-0.208061,0,0,3.51307,0
1777225954766,0.0485428,-1.1988,-0.0658631,-0.374016,0.144666,-0.216208,0,0,3.47761,0
1777225954780,0.0769557,-1.26661,-0.0654521,-0.463576,0.118914,-0.186192,0,0,3.42838,0
1777225954793,0.0715119,-1.29701,-0.051165,-0.558501,0.0907994,-0.182412,0,0,3.43797,0
1777225954807,0.0535952,-1.32353,-0.0351895,-0.653548,0.0815695,-0.182887,0,0,3.51104,0
1777225954820,0.0357231,-1.36953,-0.0108313,-0.746531,0.0906082,-0.178475,0,0,3.45071,0
1777225954834,0.00991122,-1.42626,0.0192608,-0.874883,0.114107,-0.168576,0,0,3.48752,0
1777225954848,-0.0252071,-1.48639,0.0623097,-1.02168,0.153944,-0.159246,0,0,3.42084,0
1777225954862,-0.0666038,-1.53493,0.119986,-1.18527,0.202409,-0.159334,0,0,3.42667,0
1777225954875,-0.105377,-1.56662,0.194416,-1.37334,0.256371,-0.184954,0,0,3.43101,0
1777225954889,-0.145635,-1.57656,0.250513,-1.56135,0.312332,-0.229548,0,0,3.48493,0
1777225954902,-0.168074,-1.51751,0.267979,-1.71802,0.350608,-0.297499,0,0,3.44364,5
1777225954916,-0.148468,-1.41052,0.215197,-1.84858,0.348344,-0.376491,0,0,3.43826,5
1777225954930,-0.106126,-1.33519,0.122882,-1.95401,0.308378,-0.428882,0,0,3.51628,5
1777225954943,-0.0559163,-1.31534,0.0250383,-2.01698,0.21029,-0.480035,0,0,3.41975,5
1777225954957,-0.0301137,-1.27105,-0.0304755,-2.05363,0.075941,-0.504406,0,0,3.36403,5
1777225954970,-0.0384994,-1.19094,-0.0636177,-2.0384,-0.0478863,-0.449702,0,0,3.42471,5
1777225954984,-0.0710346,-1.08213,-0.0788805,-1.97078,-0.135249,-0.334281,0,0,3.39627,5
1777225954997,-0.105749,-0.960799,-0.0967648,-1.8532,-0.175417,-0.241545,0,0,3.47721,5
1777225955011,-0.122699,-0.828367,-0.132689,-1.68943,-0.179031,-0.234519,0,0,3.4068,5
1777225955024,-0.107334,-0.695692,-0.163751,-1.47009,-0.182844,-0.29318,0,0,3.42173,5
1777225955038,-0.0699305,-0.582366,-0.178687,-1.18986,-0.207459,-0.340844,0,0,3.45085,5
1777225955051,-0.0339487,-0.504917,-0.181457,-0.885758,-0.253798,-0.319723,0,0,3.37227,5
1777225955065,-0.0163492,-0.464216,-0.167744,-0.599951,-0.30917,-0.239222,0,0,3.45591,5
1777225955078,-0.0339481,-0.421768,-0.146798,-0.355506,-0.346484,-0.135637,0,0,3.35334,5
1777225955092,-0.0741286,-0.358018,-0.137652,-0.128443,-0.329309,-0.0379291,0,0,3.46409,5
1777225955105,-0.108146,-0.286422,-0.136339,0.130827,-0.255035,0.0202499,0,0,3.37967,5
1777225955119,-0.116286,-0.231306,-0.122845,0.426427,-0.157313,0.0388342,0,0,3.43854,5
1777225955132,-0.104566,-0.212633,-0.106271,0.728562,-0.0537278,0.0580362,0,0,3.425,0
1777225955146,-0.0817466,-0.225343,-0.0802027,1.01467,0.0436619,0.109279,0,0,3.41912,0
1777225955159,-0.0524115,-0.260088,-0.0533231,1.26244,0.123103,0.175952,0,0,3.45306,0
1777225955173,-0.0239823,-0.31123,-0.0350686,1.46891,0.186606,0.230736,0,0,3.38664,0
1777225955186,-0.000200121,-0.373649,-0.0313804,1.64098,0.240365,0.269799,0,0,3.47596,0
1777225955200,0.0299709,-0.431511,-0.0374437,1.78437,0.277709,0.299731,0,0,3.4758,0
1777225955214,0.0661394,-0.495356,-0.0384613,1.90385,0.28351,0.332193,0,0,3.58103,0
1777225955227,0.106099,-0.586885,-0.0325244,2.00343,0.25678,0.37455,0,0,3.40636,0
1777225955241,0.150413,-0.6881,-0.0288498,2.08641,0.198627,0.419975,0,0,3.44565,0
1777225955255,0.193745,-0.761083,-0.0268497,2.15555,0.111757,0.467524,0,0,3.44848,0
1777225955268,0.235324,-0.819365,-0.0156226,2.21318,-0.000380723,0.51286,0,0,3.38982,0
1777225955282,0.267274,-0.889077,0.00612499,2.2612,-0.138269,0.552943,0,0,3.47083,0
1777225955295,0.277673,-0.977977,0.0364599,2.30122,-0.287909,0.588458,0,0,3.45667,0
1777225955309,0.256075,-1.06826,0.0632156,2.33456,-0.426222,0.619402,0,0,3.45056,0
1777225955322,0.203414,-1.15658,0.0754752,2.36235,-0.528696,0.635659,0,0,3.37684,0
1777225955336,0.138583,-1.25379,0.0798136,2.38551,-0.587934,0.622668,0,0,3.49424,0
1777225955349,0.076632,-1.37078,0.0725456,2.40481,-0.606382,0.583203,0,0,3.47296,0
1777225955363,0.0156707,-1.46245,0.0510503,2.37729,-0.597558,0.543738,0,0,3.3754,0
1777225955376,-0.0614182,-1.5272,0.0194224,2.3227,-0.559657,0.522975,0,0,3.47632,0
1777225955390,-0.15711,-1.5759,-0.0303004,2.23336,-0.455757,0.517466,0,0,3.85679,0
1777225955404,-0.20934,-1.60569,-0.0972779,2.10333,-0.27518,0.479555,0,0,3.47767,0
1777225955417,-0.168146,-1.61165,-0.171258,1.94439,-0.0908939,0.374184,0,0,3.4031,0
1777225955431,-0.0724765,-1.61173,-0.250417,1.76219,0.0435935,0.261947,0,0,3.42032,0
1777225955445,0.0215886,-1.61358,-0.325579,1.54685,0.106366,0.2032,0,0,3.44578,0
1777225955458,0.0597303,-1.60591,-0.384338,1.29199,0.124491,0.180046,0,0,3.3856,0
1777225955472,0.0433661,-1.5706,-0.407558,1.02749,0.143386,0.138384,0,0,3.46119,0
1777225955485,0.0123326,-1.50757,-0.387407,0.78648,0.179119,0.0644298,0,0,3.40541,0
1777225955499,-0.00450967,-1.4375,-0.336517,0.579115,0.207345,-0.00774617,0,0,3.51665,0
1777225955512,-0.0151754,-1.37184,-0.26769,0.406489,0.220892,-0.0415824,0,0,3.42861,0
1777225955526,-0.026366,-1.31148,-0.202239,0.254631,0.227117,-0.04254,0,0,3.48007,0
1777225955539,-0.0373045,-1.25213,-0.152329,0.12489,0.228425,-0.0433381,0,0,3.44982,0
1777225955553,-0.0561634,-1.23219,-0.146443,0.00122509,0.230443,-0.0456952,0,0,3.44108,0
1777225955567,-0.16265,-1.27257,0.035288,-0.106473,0.236374,0.0346688,0,0,3.48602,0
1777225955580,-0.167758,-1.50705,0.135517,-0.33486,0.321253,-0.00631293,0,0,3.41326,0
1777225955594,-0.174445,-1.38657,0.0821741,-0.695945,0.353627,-0.166266,0,0,3.96478,0
1777225955608,-0.154997,-1.18208,0.0376943,-0.699331,0.412845,-0.20054,0,0,3.41643,0
1777225955621,-0.0869261,-1.15213,0.0660568,-0.640715,0.397816,-0.234292,0,0,3.50317,0
1777225955635,-0.0511177,-1.19765,0.0933843,-0.688242,0.360088,-0.226554,0,0,3.42804,0
1777225955649,-0.0222155,-1.16363,0.101154,-0.771207,0.334514,-0.154787,0,0,3.57086,0
1777225955662,0.00818639,-1.0976,0.115942,-0.789975,0.292476,-0.102246,0,0,3.51052,0
1777225955676,0.0291773,-1.05502,0.116106,-0.742918,0.23429,-0.0502943,0,0,3.39401,0
1777225955689,0.0312198,-1.06781,0.130372,-0.719162,0.176158,0.0284571,0,0,3.50268,0
1777225955703,0.00172256,-1.0656,0.13449,-0.746783,0.104635,0.106411,0,0,3.4777,0
1777225955717,-0.0496571,-1.0244,0.107373,-0.748388,0.0363055,0.138193,0,0,3.50841,0
1777225955730,-0.105012,-0.98679,0.096345,-0.701722,-0.0163612,0.114995,0,0,3.42286,0
1777225955744,-0.142712,-0.99104,0.099381,-0.667148,-0.0531254,0.0579286,0,0,3.47496,0
1777225955757,-0.16914,-0.994247,0.100666,-0.662789,-0.0761796,0.00258679,0,0,3.4795,0
1777225955771,-0.183077,-0.984357,0.0901352,-0.65497,-0.0730631,-0.057539,0,0,3.45432,0
1777225955784,-0.178415,-0.974675,0.0769065,-0.624931,-0.0486976,-0.121626,0,0,3.46661,0
1777225955798,-0.152267,-0.980136,0.0692815,-0.59173,-0.0137366,-0.164994,0,0,3.82464,0
1777225955812,-0.102122,-0.987354,0.0562271,-0.56419,0.0108048,-0.163894,0,0,3.46222,0
1777225955825,-0.0553671,-0.985932,0.046598,-0.533224,0.00648488,-0.124746,0,0,3.4026,0
1777225955839,-0.0362963,-0.985759,0.042227,-0.500486,-0.0231201,-0.0702404,0,0,3.49728,0
1777225955853,-0.0495294,-0.9877,0.037885,-0.478802,-0.0595848,-0.0267398,0,0,3.41551,0
1777225955866,-0.081705,-0.985621,0.0293539,-0.46465,-0.0833945,-0.0107182,0,0,3.54761,0
1777225955880,-0.110059,-0.982368,0.0228156,-0.448252,-0.0881341,-0.0234866,0,0,3.49183,0
1777225955893,-0.120296,-0.980863,0.0148868,-0.431877,-0.0834196,-0.0478928,0,0,3.36923,0
1777225955907,-0.114256,-0.981262,0.00465704,-0.416106,-0.0771754,-0.0602541,0,0,3.4693,0
1777225955920,-0.100809,-0.980964,-0.00647672,-0.397187,-0.06944,-0.0627054,0,0,3.41371,0
1777225955934,-0.0899376,-0.979869,-0.0150817,-0.374412,-0.0630703,-0.0590102,0,0,3.47852,0
1777225955948,-0.0824936,-0.981621,-0.0239361,-0.35201,-0.0555484,-0.0509691,0,0,3.42056,0
1777225955961,-0.0760949,-0.983207,-0.0295326,-0.331968,-0.0501198,-0.0426778,0,0,3.47422,0
1777225955975,-0.0749469,-0.985001,-0.0345846,-0.314375,-0.050736,-0.0330966,0,0,3.46165,0
1777225955988,-0.0787115,-0.988072,-0.037491,-0.301623,-0.0541121,-0.0257485,0,0,3.4355,0
1777225956002,-0.08835,-0.991799,-0.0421056,-0.296327,-0.0579433,-0.0248286,0,0,3.45167,0
1777225956015,-0.0971366,-0.992333,-0.0481389,-0.29685,-0.0562504,-0.0332859,0,0,3.3858,0
1777225956029,-0.0991032,-0.99241,-0.0546962,-0.295009,-0.0495217,-0.0464533,0,0,3.47514,0
1777225956043,-0.0932825,-0.993249,-0.0599712,-0.292126,-0.0440161,-0.0534184,0,0,3.38811,0
1777225956056,-0.0838214,-0.999061,-0.0667065,-0.290893,-0.0402297,-0.0547444,0,0,3.48498,0
1777225956070,-0.0787919,-1.0024,-0.0724578,-0.289714,-0.035624,-0.0470198,0,0,3.40606,0
1777225956083,-0.0764199,-1.00823,-0.0764861,-0.287115,-0.0271422,-0.0376819,0,0,3.56984,0
1777225956097,-0.0796365,-1.01538,-0.0812704,-0.2857,-0.016219,-0.0282336,0,0,3.50538,0
1777225956111,-0.0870298,-1.02326,-0.085746,-0.287715,0.00181498,-0.0183499,0,0,3.48052,0
1777225956124,-0.0909717,-1.03104,-0.0904361,-0.290564,0.029197,-0.0127343,0,0,3.48666,0
1777225956138,-0.093075,-1.04017,-0.0926744,-0.295762,0.0542036,-0.00693511,0,0,3.41019,0
1777225956151,-0.0960594,-1.051,-0.0965159,-0.306354,0.0756531,0.00172711,0,0,3.5009,0
1777225956165,-0.099294,-1.06027,-0.10043,-0.321033,0.0984895,0.00892017,0,0,3.4288,0
1777225956179,-0.096054,-1.06728,-0.104279,-0.33637,0.122151,0.00843856,0,0,3.48266,0
1777225956192,-0.0912464,-1.07923,-0.102956,-0.351949,0.14178,0.00596344,0,0,3.4884,0
1777225956206,-0.0912868,-1.13626,-0.111813,-0.375123,0.162934,0.00204332,0,0,3.50201,0
1777225956219,-0.090228,-1.10009,-0.0715987,-0.430376,0.177419,-0.00133795,0,0,3.5062,0
1777225956233,-0.0976411,-1.13149,-0.107333,-0.464372,0.202404,0.000704384,0,0,3.40267,0
1777225956246,-0.0960989,-1.1325,-0.0983363,-0.496875,0.219039,-0.0186369,0,0,3.5017,0
1777225956260,-0.0993604,-1.15207,-0.106708,-0.541073,0.238601,-0.0263069,0,0,3.4167,0
1777225956274,-0.0671895,-1.19068,-0.10336,-0.587001,0.268198,-0.0440725,0,0,3.52407,0
1777225956287,-0.0808236,-1.24714,-0.0895142,-0.641012,0.258498,-0.0421724,0,0,3.41672,0
1777225956301,-0.102795,-1.2868,-0.074244,-0.715309,0.274614,-0.00107241,0,0,3.56457,0
1777225956314,-0.142461,-1.33256,-0.0500799,-0.799361,0.327051,0.0256458,0,0,3.48626,0
1777225956328,-0.196814,-1.37981,-0.0235343,-0.900256,0.415443,0.0412697,0,0,3.39808,0
1777225956342,-0.25504,-1.42068,0.0227732,-1.01369,0.540185,0.0680046,0,0,3.49677,0
1777225956355,-0.309517,-1.47337,0.0880402,-1.14102,0.6999,0.0974593,0,0,3.39761,0
1777225956369,-0.358779,-1.54531,0.181929,-1.29244,0.891736,0.116496,0,0,3.50649,0
1777225956382,-0.39489,-1.6005,0.297773,-1.49374,1.10007,0.119764,0,0,3.40978,0
1777225956396,-0.400312,-1.59864,0.386255,-1.66168,1.29649,0.0896511,0,0,3.48066,0
1777225956409,-0.367314,-1.54385,0.405168,-1.80163,1.45637,0.0198237,0,0,3.46789,0
1777225956423,-0.291019,-1.48177,0.349622,-1.91825,1.55813,-0.105567,0,0,3.4515,0
1777225956437,-0.185528,-1.49187,0.225857,-2.01544,1.54609,-0.260517,0,0,3.47644,0
1777225956450,-0.0997934,-1.4562,0.160738,-2.09643,1.40287,-0.341054,0,0,3.39222,0
1777225956464,-0.0930453,-1.3034,0.102527,-2.16392,1.25657,-0.228995,0,0,3.4709,0
1777225956477,-0.100538,-1.15532,0.0581002,-2.17558,1.18223,-0.0327379,0,0,3.44787,0
1777225956491,-0.0869676,-1.00575,0.0125139,-2.08259,1.12179,0.0864079,0,0,3.60695,0
1777225956505,-0.0469392,-0.829753,-0.0472691,-1.93647,1.04978,0.130251,0,0,3.88536,0
1777225956519,0.0207903,-0.684606,-0.102005,-1.69368,0.957003,0.0971175,0,0,3.54438,0
1777225956532,0.114211,-0.586993,-0.138655,-1.39587,0.820887,0.0462366,0,0,3.4964,0
1777225956546,0.199826,-0.498285,-0.14715,-1.09113,0.636541,0.0480852,0,0,3.38754,0
1777225956559,0.246555,-0.414608,-0.13992,-0.776679,0.433987,0.118799,0,0,3.49713,0
1777225956573,0.258141,-0.342215,-0.130265,-0.447551,0.242916,0.225029,0,0,3.42063,0
1777225956586,0.249443,-0.274793,-0.119823,-0.120733,0.0711957,0.316927,0,0,3.52138,0
1777225956600,0.23105,-0.197177,-0.114103,0.20327,-0.0870443,0.359182,0,0,3.41532,0
1777225956614,0.195295,-0.103795,-0.114735,0.563577,-0.224407,0.365794,0,0,3.49176,0
1777225956627,0.149357,-0.0355546,-0.0767741,0.886531,-0.318024,0.361164,0,0,3.48824,0
1777225956641,0.0828014,-0.0579256,-0.00443757,1.15566,-0.353888,0.388833,0,0,3.46215,0
1777225956654,0.00642129,-0.204748,0.0750961,1.37993,-0.296598,0.465783,0,0,3.49598,0
1777225956668,-0.0356687,-0.34033,0.115034,1.56683,-0.142572,0.546168,0,0,3.40843,0
1777225956682,-0.00542433,-0.388877,0.115832,1.72257,0.00903951,0.540178,0,0,3.50144,0
1777225956695,0.0753975,-0.404904,0.102531,1.85236,0.0847721,0.429283,0,0,3.43176,0
1777225956709,0.163424,-0.445038,0.0892776,1.96052,0.0883279,0.349886,0,0,4.08077,0
1777225956723,0.219487,-0.558736,0.0975559,2.05065,0.0512275,0.39488,0,0,3.46141,0
1777225956736,0.253942,-0.702942,0.10632,2.12575,-0.0151603,0.476496,0,0,3.47335,0
1777225956750,0.267417,-0.805497,0.0916661,2.18835,-0.108817,0.502653,0,0,3.49114,0
1777225956764,0.266216,-0.875621,0.0652705,2.2405,-0.205452,0.475633,0,0,3.41694,0
1777225956777,0.266234,-0.966938,0.0431254,2.28397,-0.306451,0.450369,0,0,3.51207,0
1777225956791,0.258722,-1.07933,0.0218715,2.32019,-0.430643,0.465116,0,0,3.4065,0
1777225956804,0.215621,-1.18604,0.00190635,2.35038,-0.559137,0.517877,0,0,3.49555,0
1777225956818,0.131037,-1.29546,-0.0273636,2.37553,-0.648479,0.568409,0,0,3.45472,0
1777225956832,0.050874,-1.40139,-0.0724976,2.37269,-0.686735,0.567084,0,0,3.56216,0
1777225956845,0.0142828,-1.49748,-0.12674,2.31644,-0.694455,0.514682,0,0,3.41878,0
1777225956860,0.0169369,-1.584,-0.186575,2.20753,-0.702084,0.464347,0,0,4.1486,0
1777225956873,0.0287318,-1.63686,-0.254032,2.05387,-0.723785,0.44263,0,0,3.46503,0
1777225956887,0.00522457,-1.64456,-0.333929,1.88576,-0.736755,0.441861,0,0,3.36202,0
1777225956900,-0.0649222,-1.64118,-0.41977,1.72172,-0.701927,0.432772,0,0,3.49679,0
1777225956914,-0.132195,-1.66314,-0.511672,1.52174,-0.595333,0.380351,0,0,3.729,0
1777225956928,-0.149328,-1.68492,-0.603914,1.25679,-0.459851,0.282328,0,0,3.53405,0
1777225956942,-0.121092,-1.67895,-0.673545,0.965506,-0.337383,0.175006,0,0,3.4157,0
1777225956955,-0.0865404,-1.70382,-0.757389,0.640682,-0.254842,0.109286,0,0,3.45913,0
1777225956969,-0.191662,-1.73465,-0.524845,0.335925,-0.206757,0.234787,0,0,3.46863,0
1777225956983,-0.202695,-1.83907,-0.252553,0.0673039,-0.0452368,0.2082,0,0,3.89169,0
1777225956996,-0.23325,-1.6483,-0.248485,-0.360809,0.0679897,-0.0275049,0,0,3.48468,0
1777225957010,-0.229281,-1.40388,-0.332298,-0.449453,0.243732,-0.136928,0,0,3.38142,0
1777225957024,-0.105159,-1.30694,-0.248746,-0.381071,0.277639,-0.195952,0,0,3.49227,0
1777225957037,-0.00263674,-1.33476,-0.14445,-0.447406,0.188809,-0.214464,0,0,3.40337,0
1777225957051,0.0489921,-1.3289,-0.111195,-0.589569,0.104465,-0.0964423,0,0,3.45285,0
1777225957065,0.0803377,-1.24898,-0.0895936,-0.724195,-0.00160972,0.0122268,0,0,3.45983,0
1777225957079,0.0203036,-1.14871,-0.0999215,-0.709921,-0.0971684,0.0841839,0,0,4.09266,0
1777225957093,-0.050125,-1.12293,-0.107151,-0.657644,-0.100045,0.0905222,0,0,3.45827,0
1777225957106,-0.0604742,-1.12636,-0.0757552,-0.642452,-0.0922893,0.044252,0,0,3.36372,0
1777225957120,-0.0432077,-1.1082,-0.061912,-0.649295,-0.119669,0.0463805,0,0,3.5726,0
1777225957134,-0.0374175,-1.07065,-0.0627938,-0.631639,-0.173846,0.0992611,0,0,3.4075,0
1777225957147,-0.076594,-1.0485,-0.0518168,-0.590335,-0.213167,0.108379,0,0,3.49642,0
1777225957161,-0.140688,-1.03764,-0.0485275,-0.559401,-0.183517,0.0580132,0,0,3.40614,0
1777225957174,-0.153613,-1.02396,-0.0467334,-0.519539,-0.108465,-0.00878039,0,0,3.47529,0
1777225957188,-0.114583,-1.01929,-0.0417333,-0.475201,-0.0508837,-0.0549251,0,0,3.46514,0
1777225957202,-0.0683414,-1.02363,-0.0340141,-0.444487,-0.0372504,-0.0490916,0,0,3.84047,0
1777225957216,-0.0476897,-1.02724,-0.0284702,-0.43262,-0.0514873,-0.0117366,0,0,3.47714,0
1777225957229,-0.0558826,-1.02272,-0.0250725,-0.426216,-0.0688985,0.0125223,0,0,3.46066,0
1777225957243,-0.0721326,-1.01937,-0.0266908,-0.421083,-0.079591,0.0102444,0,0,3.47647,0
1777225957256,-0.077941,-1.01836,-0.0270664,-0.417519,-0.0856006,-0.000979532,0,0,3.39963,0
1777225957270,-0.0709197,-1.01826,-0.0300949,-0.417067,-0.0930896,-0.00712671,0,0,3.50143,0
1777225957284,-0.0624107,-1.01714,-0.0370674,-0.415737,-0.101226,-0.00499745,0,0,3.40844,0
1777225957298,-0.0578863,-1.01205,-0.0420274,-0.404068,-0.104317,-0.000118739,0,0,4.16182,0
1777225957312,-0.0578187,-1.01516,-0.0449825,-0.384917,-0.0998951,-0.000417015,0,0,3.46705,0
1777225957325,-0.0593364,-1.02452,-0.0470335,-0.371718,-0.0932332,-0.00335006,0,0,3.45499,0
1777225957339,-0.0593994,-1.03509,-0.0480421,-0.368773,-0.0890429,-0.00833879,0,0,3.4829,0
1777225957352,-0.0576203,-1.04372,-0.0522636,-0.37371,-0.090551,-0.0140991,0,0,3.40027,0
1777225957366,-0.0572982,-1.04925,-0.0560576,-0.381807,-0.098589,-0.0149681,0,0,3.48629,0
1777225957380,-0.05956,-1.05859,-0.0608314,-0.395272,-0.112297,-0.0116592,0,0,3.40261,0
1777225957393,-0.0703067,-1.06766,-0.0650727,-0.414139,-0.126864,-0.0053521,0,0,3.45022,0
1777225957407,-0.08842,-1.06946,-0.0703959,-0.431769,-0.12633,0.0024992,0,0,3.46203,0
1777225957421,-0.108329,-1.07218,-0.0747924,-0.441347,-0.104525,0.00322771,0,0,3.89136,0
1777225957434,-0.118794,-1.08715,-0.0799286,-0.450665,-0.0595212,-0.0102492,0,0,3.48123,0
1777225957448,-0.123118,-1.13509,-0.0815569,-0.472386,0.000780677,-0.0409964,0,0,3.41926,0
1777225957462,-0.102165,-1.07997,-0.076858,-0.514876,0.0467956,-0.057497,0,0,3.4942,0
1777225957475,-0.0551475,-1.09777,-0.101604,-0.513606,0.0780167,-0.00988621,0,0,3.43096,0
1777225957489,-0.0419287,-1.08457,-0.105716,-0.508017,0.069047,0.0231483,0,0,3.56658,0
1777225957503,-0.0428057,-1.08829,-0.111764,-0.52406,0.061674,0.0464531,0,0,3.40648,0
1777225957517,-0.0584947,-1.08891,-0.122774,-0.538345,0.0732016,0.0664081,0,0,4.16021,0
1777225957530,-0.0581217,-1.08096,-0.131657,-0.560072,0.0938767,0.0729228,0,0,3.48395,0
1777225957544,-0.0515244,-1.07045,-0.145386,-0.576052,0.104134,0.0773339,0,0,3.40996,0
1777225957558,-0.0521343,-1.05422,-0.158785,-0.586977,0.110213,0.0995721,0,0,3.48788,0
1777225957571,-0.0597093,-1.04521,-0.171834,-0.594415,0.117939,0.121984,0,0,3.40414,0
1777225957585,-0.0805381,-1.03893,-0.183807,-0.603666,0.126806,0.127417,0,0,3.49223,0
1777225957598,-0.10496,-1.03245,-0.194428,-0.617139,0.146677,0.122428,0,0,3.43822,0
1777225957612,-0.121274,-1.02997,-0.207638,-0.631509,0.175628,0.109911,0,0,3.46709,0
1777225957626,-0.127395,-1.02898,-0.217178,-0.649171,0.203278,0.0945442,0,0,3.57488,0
1777225957639,-0.128881,-1.03546,-0.227197,-0.66861,0.225479,0.0843085,0,0,3.40755,0
1777225957653,-0.128369,-1.04333,-0.23432,-0.691475,0.244719,0.078883,0,0,3.49803,0
1777225957666,-0.129791,-1.05403,-0.240536,-0.718863,0.265586,0.0742728,0,0,3.40689,0
1777225957680,-0.134533,-1.05965,-0.244261,-0.745503,0.294464,0.0696293,0,0,3.51455,0
1777225957693,-0.14074,-1.06804,-0.24447,-0.770069,0.333975,0.0649837,0,0,3.42027,0
1777225957707,-0.146773,-1.08018,-0.244587,-0.798314,0.382205,0.0608579,0,0,3.44192,0
1777225957721,-0.128108,-1.10146,-0.236486,-0.830516,0.44624,0.0456513,0,0,3.48536,0
1777225957734,-0.122744,-1.14651,-0.206642,-0.861016,0.484195,0.0241624,0,0,3.47525,0
1777225957748,-0.147202,-1.18032,-0.17909,-0.914638,0.511765,0.0409114,0,0,3.49153,0
1777225957761,-0.211515,-1.20147,-0.147126,-0.982961,0.583011,0.0921208,0,0,3.40207,0
1777225957775,-0.286688,-1.21427,-0.0995885,-1.04481,0.714392,0.128256,0,0,3.4734,0
1777225957788,-0.331526,-1.23185,-0.0484707,-1.12299,0.88567,0.117974,0,0,3.44355,0
1777225957802,-0.342081,-1.27777,-0.00560104,-1.22953,1.06737,0.0614542,0,0,3.5646,0
1777225957816,-0.287931,-1.30068,-0.0199836,-1.38356,1.24792,-0.0237882,0,0,3.42674,0
1777225957830,-0.163094,-1.35072,-0.117532,-1.56986,1.33205,-0.15878,0,0,3.88284,0
1777225957843,-0.0744601,-1.44548,-0.25383,-1.72512,1.27666,-0.226159,0,0,3.48025,0
1777225957857,-0.0744283,-1.29593,-0.280993,-1.85449,1.22953,-0.0857178,0,0,3.38135,0
1777225957870,-0.0965025,-1.15157,-0.293927,-1.86267,1.16943,0.0501588,0,0,3.50238,0
1777225957884,-0.133909,-1.0946,-0.3086,-1.78182,1.09704,0.0816336,0,0,3.41775,0
1777225957898,-0.158279,-1.0425,-0.316127,-1.69852,1.05612,0.0424173,0,0,3.52232,0
1777225957911,-0.151192,-0.957691,-0.333118,-1.60628,1.04228,-0.0274512,0,0,3.42557,0
1777225957925,-0.108041,-0.831974,-0.347388,-1.45904,1.00626,-0.0837793,0,0,3.46927,0
1777225957938,-0.0264686,-0.719414,-0.339573,-1.21481,0.917039,-0.143875,0,0,3.64321,0
1777225957952,0.0613086,-0.644688,-0.313293,-0.89995,0.761578,-0.22884,0,0,3.39329,0
1777225957966,0.127482,-0.590619,-0.280566,-0.578266,0.550157,-0.301934,0,0,3.50979,0
1777225957979,0.147583,-0.503719,-0.247842,-0.249433,0.348757,-0.304652,0,0,3.42824,0
1777225957993,0.134184,-0.415336,-0.204115,0.136656,0.214244,-0.225683,0,0,3.44698,0
1777225958006,0.104438,-0.389946,-0.116478,0.530763,0.139046,-0.0993672,0,0,3.49945,0
1777225958020,0.0761339,-0.415965,-0.0412905,0.859185,0.0981614,0.0292423,0,0,3.48691,0
1777225958033,0.0685786,-0.424819,0.0149172,1.12132,0.0704907,0.110119,0,0,3.50782,0
1777225958047,0.0674237,-0.414651,0.0429996,1.35132,0.0425972,0.148738,0,0,3.50602,0
1777225958061,0.0668392,-0.392729,0.0742019,1.54298,0.016859,0.191022,0,0,3.50656,0
1777225958074,0.0566481,-0.41243,0.112906,1.7027,0.00105936,0.278295,0,0,3.42317,0
1777225958088,0.0416552,-0.500795,0.146993,1.8358,-0.00466427,0.393655,0,0,3.53924,0
1777225958101,0.0398659,-0.585044,0.161146,1.94672,-0.00701666,0.47344,0,0,3.44127,4
1777225958115,0.0537224,-0.641012,0.159439,2.03915,-0.0172467,0.504737,0,0,3.53224,4
1777225958129,0.0926163,-0.700156,0.157957,2.11617,-0.0500466,0.530805,0,0,3.42849,4
1777225958142,0.153763,-0.79362,0.15844,2.18036,-0.132723,0.575595,0,0,3.60324,4
1777225958156,0.206176,-0.912826,0.158184,2.23385,-0.27176,0.64185,0,0,3.49558,4
1777225958170,0.217613,-1.01314,0.14654,2.27842,-0.440131,0.715766,0,0,3.39749,4
1777225958183,0.180122,-1.09113,0.124141,2.31557,-0.5996,0.772324,0,0,3.42929,4
1777225958197,0.114274,-1.18503,0.0950428,2.34652,-0.721397,0.796848,0,0,3.4988,4
1777225958210,0.0505726,-1.29467,0.0569423,2.37232,-0.796152,0.797538,0,0,3.49258,4
1777225958224,0.0135385,-1.39981,0.00507424,2.39382,-0.84374,0.776257,0,0,3.49041,4
1777225958237,-0.00278701,-1.50869,-0.0519589,2.41173,-0.892239,0.743738,0,0,3.47971,4
1777225958251,-0.0354277,-1.61953,-0.120586,2.37003,-0.937692,0.727644,0,0,3.4926,4
1777225958265,-0.0883462,-1.70815,-0.202787,2.25907,-0.955291,0.715531,0,0,3.4878,4
1777225958278,-0.144136,-1.73892,-0.297512,2.11098,-0.920961,0.685767,0,0,3.50243,4
1777225958292,-0.201453,-1.73626,-0.396613,1.96304,-0.82715,0.647999,0,0,3.42494,4
1777225958306,-0.22384,-1.75515,-0.495684,1.78684,-0.69279,0.592823,0,0,3.47108,4
1777225958319,-0.203577,-1.77217,-0.585272,1.54745,-0.54819,0.510902,0,0,3.39268,4
1777225958333,-0.156225,-1.76178,-0.663729,1.26633,-0.405807,0.420078,0,0,3.48782,4
1777225958346,-0.0873491,-1.72545,-0.719655,0.979406,-0.300399,0.32336,0,0,3.45358,4
1777225958360,-0.0320855,-1.69594,-0.744018,0.698055,-0.236872,0.238627,0,0,3.5168,0
1777225958373,-0.00279583,-1.67913,-0.734093,0.404142,-0.201745,0.174288,0,0,3.46517,0
1777225958387,-0.019607,-1.6469,-0.686742,0.115475,-0.171263,0.147403,0,0,3.37801,0
1777225958401,-0.134578,-1.51533,-0.295218,-0.0427405,-0.161879,0.264414,0,0,3.48726,0
1777225958414,-0.143643,-1.74732,-0.0819785,-0.139014,-0.00262219,0.242546,0,0,3.40231,0
1777225958428,-0.162355,-1.7877,-0.148066,-0.532741,0.0418861,-0.0514791,0,0,3.50867,0
1777225958441,-0.1574,-1.44744,-0.218795,-0.706152,0.116826,-0.100736,0,0,3.5101,0
1777225958455,-0.0230937,-1.26976,-0.0971169,-0.608536,0.0626605,-0.0433618,0,0,3.47208,0
1777225958468,0.121794,-1.35952,-0.0761478,-0.727266,-0.117897,-0.0643409,0,0,3.46773,0
1777225958482,0.0960607,-1.30948,-0.0587462,-0.829274,-0.269686,0.117159,0,0,3.4444,0
1777225958496,0.018995,-1.23331,-0.0357878,-0.933568,-0.363606,0.281105,0,0,3.49038,0
1777225958509,-0.103379,-1.1406,-0.0585464,-0.927579,-0.356173,0.225361,0,0,3.39097,0
1777225958523,-0.178839,-1.06584,-0.0670137,-0.817804,-0.259508,0.113246,0,0,3.50513,0
1777225958536,-0.145847,-1.10558,-0.0564458,-0.752903,-0.179742,0.0324128,0,0,3.42605,0
1777225958550,-0.0935232,-1.09202,-0.0460157,-0.733679,-0.158818,0.0379267,0,0,3.5577,0
1777225958564,-0.0867327,-1.04225,-0.0419145,-0.678765,-0.170746,0.0815165,0,0,3.44573,0
1777225958577,-0.129706,-1.02459,-0.0445949,-0.606528,-0.151448,0.061989,0,0,3.46938,0
1777225958591,-0.161193,-1.01569,-0.0398766,-0.544194,-0.0894003,0.00206459,0,0,3.49556,0
1777225958604,-0.13252,-1.01356,-0.0397372,-0.489347,-0.0284443,-0.0425543,0,0,3.4219,0
1777225958618,-0.0754219,-1.01212,-0.036592,-0.439965,-0.00933972,-0.0360217,0,0,3.43332,0
1777225958632,-0.0349203,-1.01503,-0.0326066,-0.398164,-0.0364599,0.0163687,0,0,3.48647,0
1777225958645,-0.0326029,-1.01997,-0.0265726,-0.375238,-0.0774952,0.0732589,0,0,3.76847,0
1777225958659,-0.0621189,-1.01245,-0.0249691,-0.358004,-0.0965005,0.106189,0,0,3.46169,0
1777225958673,-0.0910913,-0.997905,-0.0272767,-0.328566,-0.0837504,0.11045,0,0,3.46749,0
1777225958686,-0.103377,-0.992969,-0.0294732,-0.288372,-0.0550337,0.101164,0,0,3.50219,0
1777225958700,-0.100983,-0.994571,-0.0297395,-0.254878,-0.0276426,0.0958936,0,0,3.38779,0
1777225958713,-0.105306,-0.991941,-0.0295846,-0.225897,-0.00368437,0.0985627,0,0,3.4936,0
1777225958727,-0.120995,-0.988724,-0.0276164,-0.198158,0.0259628,0.091614,0,0,3.3797,0
1777225958741,-0.132043,-0.990403,-0.0253928,-0.179483,0.0618901,0.0653526,0,0,3.4981,0
1777225958754,-0.130503,-0.995721,-0.0235909,-0.174798,0.0897303,0.0366743,0,0,3.45569,0
1777225958768,-0.117199,-1.00105,-0.0233777,-0.184342,0.09933,0.0211853,0,0,3.48847,0
1777225958781,-0.103235,-1.00358,-0.0222917,-0.200094,0.0846197,0.0173872,0,0,3.46921,0
1777225958795,-0.0999262,-1.00501,-0.0237618,-0.220129,0.0573867,0.0180899,0,0,3.46473,0
1777225958808,-0.105032,-1.00509,-0.0277405,-0.239548,0.0351123,0.0141334,0,0,3.47334,0
1777225958822,-0.110945,-1.00692,-0.030648,-0.252079,0.0244257,0.000963595,0,0,3.39216,0
1777225958836,-0.114952,-1.01206,-0.0359713,-0.266796,0.0238534,-0.0151894,0,0,3.47732,0
1777225958849,-0.115279,-1.01102,-0.0413008,-0.276821,0.0318626,-0.0235229,0,0,3.47612,0
1777225958863,-0.116657,-1.00802,-0.0480514,-0.276511,0.0436132,-0.0283684,0,0,3.50362,0
1777225958877,-0.120137,-1.00687,-0.0544594,-0.272016,0.0626548,-0.0336021,0,0,3.46427,0
1777225958890,-0.120038,-1.00905,-0.0615028,-0.268487,0.0846678,-0.0384725,0,0,3.47473,0
1777225958904,-0.115287,-1.01297,-0.0670069,-0.26781,0.102758,-0.0420732,0,0,3.48467,0
1777225958917,-0.10936,-1.0178,-0.0744237,-0.267972,0.115199,-0.0390431,0,0,3.38931,0
1777225958931,-0.0981665,-1.02446,-0.0781286,-0.268412,0.125923,-0.034368,0,0,3.47508,0
1777225958944,-0.0872896,-1.03105,-0.0838546,-0.273765,0.128383,-0.0318716,0,0,3.41714,0
1777225958958,-0.0751758,-1.03564,-0.0888583,-0.281268,0.123487,-0.0300456,0,0,3.49887,0
1777225958972,-0.069291,-1.04053,-0.0945538,-0.291476,0.109306,-0.0266538,0,0,3.4199,0
1777225958985,-0.0638921,-1.04581,-0.0991128,-0.30679,0.0896249,-0.0276568,0,0,3.46564,0
1777225958999,-0.0578535,-1.05206,-0.10587,-0.327261,0.0676009,-0.0354519,0,0,3.46002,0
1777225959012,-0.0811788,-1.06364,-0.114986,-0.342005,0.0210924,-0.0031056,0,0,3.4308,0
1777225959026,-0.063436,-1.08665,-0.127662,-0.370055,0.0179841,-0.00359309,0,0,3.50618,0
1777225959040,-0.0930713,-1.09955,-0.11277,-0.394524,0.0168697,-0.0317093,0,0,3.404,0
1777225959053,-0.0899114,-1.12208,-0.113995,-0.430017,0.0398342,-0.0522768,0,0,3.49331,0
1777225959067,-0.0660312,-1.14994,-0.115188,-0.466681,0.065816,-0.061452,0,0,3.42306,0
1777225959080,-0.0335874,-1.18954,-0.103709,-0.503685,0.0734726,-0.0756121,0,0,3.43561,0
1777225959094,-0.0309631,-1.23299,-0.0876299,-0.55377,0.062245,-0.0668396,0,0,3.36176,0
1777225959107,-0.0434191,-1.27239,-0.0724793,-0.621552,0.0681304,-0.0462722,0,0,3.51674,0
1777225959121,-0.0696117,-1.29556,-0.0542099,-0.706115,0.105859,-0.0316772,0,0,3.40571,0
1777225959135,-0.100042,-1.3114,-0.0387984,-0.802526,0.171091,-0.0261305,0,0,3.50111,0
1777225959148,-0.121701,-1.32522,-0.0197876,-0.906138,0.244523,-0.0303632,0,0,3.46443,0
1777225959162,-0.144398,-1.3348,-0.00305684,-1.02126,0.31812,-0.0305444,0,0,3.49866,0
1777225959175,-0.180898,-1.32981,0.0177105,-1.13211,0.404057,-0.010072,0,0,3.45215,0
1777225959189,-0.218733,-1.32646,0.0476769,-1.23522,0.512363,0.00812068,0,0,3.48629,0
1777225959203,-0.235722,-1.34837,0.0941556,-1.34241,0.635124,-0.00365261,0,0,3.4905,0
1777225959216,-0.228081,-1.38694,0.152075,-1.48033,0.741102,-0.0309955,0,0,3.45976,0
1777225959230,-0.208352,-1.40811,0.20648,-1.643,0.802076,-0.0506896,0,0,3.44291,0
1777225959243,-0.18791,-1.40861,0.24577,-1.78606,0.828957,-0.0707655,0,0,3.47976,0
1777225959257,-0.158194,-1.42039,0.236612,-1.90528,0.836802,-0.144213,0,0,3.45911,0
1777225959271,-0.11071,-1.44581,0.152028,-2.00463,0.789333,-0.291692,0,0,3.472,0
1777225959284,-0.0579982,-1.4506,0.0576459,-2.08742,0.665958,-0.434756,0,0,3.43559,0
1777225959298,-0.0647361,-1.37083,0.0272722,-2.15641,0.498744,-0.437385,0,0,3.49783,0
1777225959311,-0.0993797,-1.23845,-0.00965124,-2.21391,0.3909,-0.326231,0,0,3.41345,0
1777225959325,-0.130423,-1.11466,-0.0568297,-2.2061,0.338816,-0.258704,0,0,3.42715,0
1777225959338,-0.12839,-0.980903,-0.117352,-2.11192,0.294128,-0.296872,0,0,3.4837,0
1777225959352,-0.0984417,-0.859752,-0.191196,-1.94304,0.235195,-0.406871,0,0,3.58788,0
1777225959366,-0.0401078,-0.757204,-0.247041,-1.72233,0.150411,-0.495472,0,0,3.46513,0
1777225959379,0.013499,-0.655268,-0.284171,-1.47217,0.0374672,-0.512969,0,0,3.40361,0
1777225959393,0.0325673,-0.55113,-0.300129,-1.18748,-0.075355,-0.480197,0,0,3.49217,0
1777225959406,0.0229675,-0.460425,-0.296451,-0.877087,-0.165938,-0.443307,0,0,3.41119,0
1777225959420,0.000670216,-0.394927,-0.283188,-0.56985,-0.224618,-0.418099,0,0,3.48676,0
1777225959433,-0.0242545,-0.343754,-0.267812,-0.287063,-0.248556,-0.397436,0,0,3.458,0
1777225959447,-0.0412943,-0.29199,-0.258387,-0.0175907,-0.247486,-0.381846,0,0,3.44787,0
1777225959461,-0.0420297,-0.227969,-0.260917,0.254272,-0.241658,-0.38066,0,0,3.47937,0
1777225959474,-0.0273545,-0.138861,-0.270127,0.552861,-0.24983,-0.395639,0,0,3.38719,0
1777225959488,-0.00917619,-0.0499143,-0.262006,0.8776,-0.273573,-0.407231,0,0,3.47915,0
1777225959501,0.0009445,-0.0135461,-0.200649,1.14822,-0.313067,-0.389474,0,0,3.39498,0
1777225959515,-0.027137,-0.0730799,-0.127174,1.37373,-0.335482,-0.313353,0,0,3.41343,0
1777225959528,-0.0880005,-0.191911,-0.0599386,1.56166,-0.302151,-0.17712,0,0,3.34628,0
1777225959542,-0.128168,-0.279994,-0.0283942,1.71826,-0.223459,-0.0811622,0,0,3.38397,0
1777225959555,-0.129231,-0.33128,-0.0269689,1.84877,-0.162094,-0.0965537,0,0,3.3388,0
1777225959569,-0.107987,-0.36947,-0.0255706,1.95752,-0.131617,-0.152688,0,0,3.43552,0
1777225959582,-0.0930492,-0.461855,-0.0127426,2.04815,-0.113536,-0.129734,0,0,3.40478,0
1777225959596,-0.0766054,-0.621273,0.0123252,2.12368,-0.113583,-0.0216863,0,0,3.39648,0
1777225959609,-0.049106,-0.759072,0.0179075,2.18661,-0.155187,0.06418,0,0,3.42076,0
1777225959623,-0.0258737,-0.832997,0.0071188,2.23906,-0.229399,0.10529,0,0,3.38813,0
1777225959636,-0.0123302,-0.906639,-0.00125089,2.28277,-0.312769,0.145986,0,0,3.42013,0
1777225959650,-0.0018904,-1.00461,0.00299972,2.31919,-0.410768,0.215434,0,0,3.37526,0
1777225959663,-0.0101024,-1.14328,0.00607896,2.34954,-0.52064,0.29594,0,0,3.45733,0
1777225959677,-0.0519131,-1.27142,-0.0145397,2.37483,-0.60365,0.368729,0,0,3.44172,0
1777225959690,-0.0995708,-1.37338,-0.052806,2.39591,-0.647571,0.401053,0,0,3.37236,0
1777225959704,-0.12853,-1.48581,-0.100796,2.41348,-0.659388,0.389898,0,0,3.43735,0
1777225959717,-0.13273,-1.60877,-0.162055,2.37519,-0.657594,0.370563,0,0,3.44285,0
1777225959731,-0.133577,-1.6952,-0.242298,2.26164,-0.659433,0.365482,0,0,3.52013,0
1777225959745,-0.168704,-1.7444,-0.344492,2.10022,-0.647848,0.379938,0,0,3.52024,0
1777225959758,-0.224489,-1.75528,-0.469027,1.90526,-0.587723,0.391945,0,0,3.49111,0
1777225959772,-0.234832,-1.76034,-0.587768,1.68803,-0.489464,0.354229,0,0,3.53688,0
1777225959786,-0.182236,-1.78935,-0.689382,1.41234,-0.403765,0.276209,0,0,3.507,0
1777225959799,-0.097482,-1.7943,-0.764897,1.08071,-0.370949,0.2131,0,0,3.57329,0
1777225959813,-0.0450011,-1.75819,-0.799256,0.750398,-0.386898,0.199327,0,0,3.435,0
1777225959827,-0.0651622,-1.72397,-0.76661,0.45411,-0.395952,0.215711,0,0,3.49909,0
1777225959840,-0.137358,-1.62175,-0.563092,0.196148,-0.35781,0.251986,0,0,3.40343,0
1777225959854,-0.207183,-1.52409,0.0381911,0.172935,-0.215999,0.277329,0,0,3.43282,0
1777225959867,-0.221157,-1.75268,-0.163249,-0.272783,-0.0872893,0.069021,0,0,3.46852,0
1777225959881,-0.18069,-1.58413,-0.281297,-0.644215,0.0895363,-0.0649125,0,0,3.45839,0
1777225959895,-0.135775,-1.34784,-0.209033,-0.575306,0.169601,0.0133872,0,0,3.51083,0
1777225959908,-0.0354279,-1.31507,-0.116437,-0.581076,0.166932,0.0264868,0,0,3.40515,0
1777225959922,0.0126721,-1.34829,-0.10785,-0.696876,0.13939,0.0454692,0,0,3.49633,0
1777225959935,0.0165358,-1.25925,-0.0733377,-0.774674,0.127329,0.181784,0,0,3.42071,0
1777225959949,0.0315685,-1.20813,-0.0463976,-0.813908,0.0880539,0.23636,0,0,3.45587,0
1777225959963,0.0137035,-1.14052,-0.0560798,-0.79402,0.00755124,0.240745,0,0,3.80191,0
1777225959976,-0.0373246,-1.11419,-0.0602395,-0.737434,-0.045603,0.277784,0,0,3.44606,0
1777225959990,-0.083398,-1.11333,-0.0367626,-0.713587,-0.0712595,0.273395,0,0,3.47211,0
1777225960003,-0.114617,-1.08282,-0.029055,-0.705305,-0.114243,0.213999,0,0,3.38114,0
1777225960017,-0.146934,-1.04772,-0.0206901,-0.674726,-0.147582,0.145394,0,0,3.4699,0
1777225960030,-0.173256,-1.03561,-0.0185427,-0.636763,-0.14343,0.0768359,0,0,3.40059,0
1777225960044,-0.177513,-1.0266,-0.0213432,-0.60248,-0.112006,0.00074749,0,0,3.4999,0
1777225960058,-0.151258,-1.01271,-0.0276996,-0.561927,-0.059725,-0.0508911,0,0,3.40629,0
1777225960071,-0.0968386,-1.01068,-0.0312238,-0.511911,-0.0300126,-0.0545339,0,0,3.51721,0
1777225960085,-0.0482065,-1.01783,-0.0254685,-0.473297,-0.0396542,-0.0164627,0,0,3.46788,0
1777225960098,-0.0400847,-1.02413,-0.0199569,-0.45042,-0.0668238,0.0420953,0,0,3.40185,0
1777225960112,-0.0624701,-1.01896,-0.0188713,-0.440019,-0.084656,0.0791507,0,0,3.4831,0
1777225960125,-0.0943881,-1.00433,-0.0221111,-0.41896,-0.0792871,0.0780708,0,0,3.42686,0
1777225960139,-0.108846,-0.997519,-0.0239588,-0.38954,-0.0571286,0.0569674,0,0,3.49716,0
1777225960153,-0.103961,-0.998683,-0.0283941,-0.365266,-0.0362585,0.0424601,0,0,3.4195,0
1777225960167,-0.0950873,-0.998824,-0.0311833,-0.343358,-0.0217676,0.044989,0,0,4.02089,0
1777225960180,-0.0957475,-0.996309,-0.0352135,-0.319808,-0.00778345,0.050468,0,0,3.46759,0
1777225960194,-0.100728,-0.994768,-0.0388735,-0.294637,0.0112237,0.0479091,0,0,3.46601,0
1777225960208,-0.101289,-0.998257,-0.040507,-0.274131,0.0330427,0.0399497,0,0,3.4916,0
1777225960221,-0.096692,-1.00219,-0.0420539,-0.262196,0.0497111,0.0379606,0,0,3.40339,0
1777225960235,-0.0881006,-1.00499,-0.0452629,-0.25487,0.0573292,0.0432751,0,0,3.51119,0
1777225960248,-0.0842445,-1.00414,-0.0491108,-0.250891,0.0529907,0.0533272,0,0,3.41125,0
1777225960262,-0.0870091,-0.999731,-0.0542531,-0.248808,0.041907,0.0603808,0,0,3.49601,0
1777225960275,-0.0928196,-0.999026,-0.0589752,-0.246106,0.0305459,0.0562206,0,0,3.45812,0
1777225960289,-0.102755,-0.995937,-0.0612735,-0.244961,0.0236228,0.0481228,0,0,3.45779,0
1777225960303,-0.109482,-0.99866,-0.0670651,-0.242252,0.0269249,0.0396061,0,0,3.48188,0
1777225960316,-0.106508,-1.00353,-0.0701311,-0.238657,0.0312033,0.0282087,0,0,3.39637,0
1777225960330,-0.103605,-1.01044,-0.0732756,-0.237418,0.0328603,0.0219169,0,0,3.46781,0
1777225960343,-0.106231,-1.01604,-0.0761988,-0.240355,0.0356914,0.0254397,0,0,3.43201,0
1777225960357,-0.114849,-1.02168,-0.0791872,-0.249774,0.0402136,0.0279936,0,0,3.50792,0
1777225960371,-0.125388,-1.02497,-0.0809454,-0.263043,0.0495673,0.0228954,0,0,3.4834,0
1777225960384,-0.1365,-1.02728,-0.0846273,-0.277142,0.0666114,0.0128709,0,0,3.51429,0
1777225960398,-0.142963,-1.03391,-0.0866338,-0.293649,0.0906877,-0.000444751,0,0,3.47401,0
1777225960411,-0.138473,-1.0499,-0.0883114,-0.314936,0.118372,-0.0184622,0,0,3.3892,0
1777225960425,-0.1237,-1.06614,-0.0926635,-0.345309,0.139979,-0.0296727,0,0,3.47786,0
1777225960439,-0.096976,-1.08248,-0.10175,-0.379323,0.150708,-0.0280988,0,0,3.384,0
1777225960452,-0.096004,-1.07464,-0.0947122,-0.40469,0.140475,0.00683881,0,0,3.47242,0
1777225960466,-0.0891762,-1.08713,-0.106907,-0.439875,0.129722,0.00632242,0,0,3.40653,0
1777225960479,-0.0857575,-1.08916,-0.113506,-0.472212,0.12543,-0.0010163,0,0,3.49603,0
1777225960493,-0.086875,-1.10029,-0.119106,-0.504566,0.126281,-0.00512173,0,0,3.4574,0
1777225960506,-0.0876523,-1.1129,-0.122778,-0.538779,0.126201,-0.00453528,0,0,3.44796,0
1777225960520,-0.0934102,-1.12753,-0.12706,-0.57626,0.129531,-0.00198551,0,0,3.49158,0
1777225960533,-0.0937445,-1.14328,-0.130489,-0.614148,0.147306,-0.00559861,0,0,3.39439,0
1777225960547,-0.064244,-1.18913,-0.121819,-0.651408,0.163824,-0.0414212,0,0,3.48455,0
1777225960561,-0.0734082,-1.23662,-0.107343,-0.703565,0.146088,-0.0354973,0,0,3.40401,0
1777225960574,-0.0893434,-1.27844,-0.0886937,-0.778556,0.153801,-0.000217249,0,0,3.48453,0
1777225960588,-0.127404,-1.30841,-0.0690276,-0.863962,0.194452,0.0246663,0,0,3.4902,0
1777225960601,-0.180041,-1.32886,-0.0490254,-0.955427,0.275084,0.0472092,0,0,3.46946,0
1777225960615,-0.2297,-1.34508,-0.0129351,-1.04792,0.394059,0.0760967,0,0,3.36285,0
1777225960628,-0.268696,-1.35993,0.0289194,-1.15692,0.541932,0.100564,0,0,3.49405,0
1777225960642,-0.293965,-1.38099,0.079961,-1.2764,0.711101,0.112747,0,0,3.47016,0
1777225960656,-0.28415,-1.40137,0.138464,-1.40231,0.876134,0.103943,0,0,3.5157,0
1777225960669,-0.244068,-1.41604,0.196947,-1.54472,1.00252,0.0721921,0,0,3.45094,0
1777225960683,-0.188067,-1.42237,0.232893,-1.70401,1.06878,0.0237733,0,0,3.51451,0
1777225960697,-0.124357,-1.44177,0.212949,-1.8369,1.0809,-0.0445782,0,0,3.48647,0
1777225960710,-0.0572355,-1.46582,0.114593,-1.94765,1.02637,-0.114324,0,0,3.50449,0
1777225960724,-0.0309052,-1.47048,-0.00152626,-2.03994,0.908073,-0.146848,0,0,3.43218,0
1777225960737,-0.0440444,-1.32577,-0.0847137,-2.11684,0.786015,-0.121266,0,0,3.51888,0
1777225960751,-0.0854039,-1.14998,-0.153079,-2.16961,0.697671,-0.0652409,0,0,3.43888,0
1777225960764,-0.109281,-1.04206,-0.204167,-2.06532,0.642614,-0.0577644,0,0,3.49345,0
1777225960778,-0.106012,-0.982216,-0.261037,-1.94882,0.590283,-0.113493,0,0,3.48142,0
1777225960792,-0.0722568,-0.912688,-0.312923,-1.83224,0.545337,-0.188942,0,0,3.54817,0
1777225960805,-0.00910535,-0.828001,-0.34742,-1.67751,0.48698,-0.248685,0,0,3.40968,0
1777225960819,0.0594938,-0.734334,-0.361767,-1.49088,0.394506,-0.284719,0,0,3.46392,0
1777225960833,0.106957,-0.641042,-0.360326,-1.26981,0.278399,-0.295357,0,0,3.47022,0
1777225960846,0.126064,-0.569856,-0.337938,-1.03086,0.158895,-0.287861,0,0,3.39592,0
1777225960860,0.117688,-0.512908,-0.305792,-0.802685,0.0528829,-0.264554,0,0,3.42038,0
1777225960873,0.0910802,-0.451979,-0.272639,-0.583472,-0.021109,-0.22994,0,0,3.60893,0
1777225960887,0.0601935,-0.391101,-0.245366,-0.366748,-0.0523237,-0.200395,0,0,3.46318,0
1777225960900,0.0423527,-0.330749,-0.228926,-0.146234,-0.0533104,-0.187098,0,0,3.39757,0
1777225960914,0.0433669,-0.263165,-0.228743,0.0894997,-0.0497434,-0.189706,0,0,3.52595,0
1777225960928,0.0570195,-0.17521,-0.237946,0.356301,-0.0644554,-0.205735,0,0,3.40663,0
1777225960941,0.0700312,-0.0686691,-0.251342,0.679055,-0.101283,-0.228774,0,0,3.51897,0
1777225960955,0.0695857,0.0311034,-0.242639,0.982762,-0.142621,-0.241446,0,0,3.47422,0
1777225960968,0.0541426,0.0627473,-0.184961,1.23585,-0.172731,-0.221931,0,0,3.4979,0
1777225960982,0.0202091,-0.0139178,-0.101231,1.44676,-0.176436,-0.164662,0,0,3.4996,0
1777225960996,-0.0297139,-0.192373,-0.0303367,1.62252,-0.124053,-0.0743432,0,0,3.50199,0
1777225961009,-0.0603827,-0.369511,-0.0829931,1.76898,0.000311835,0.027055,0,0,3.45452,4
1777225961023,0.104378,-0.587745,-0.488324,1.89103,0.131061,-0.0812837,0,0,3.47726,4
1777225961036,0.325122,-0.865533,-0.874698,1.96007,-0.0849806,-0.325574,0,0,3.48054,4
1777225961050,0.413378,-0.980604,-1.11647,2.00179,-0.362026,-0.278321,0,0,3.48,4
1777225961064,0.338702,-1.11741,-1.22914,1.90736,-0.518877,0.108651,0,0,3.38436,4
1777225961078,0.264986,-1.17519,-1.26702,1.6617,-0.620171,0.413456,0,0,3.93744,4
1777225961091,0.151634,-1.05601,-1.17617,1.43905,-0.69929,0.404343,0,0,3.39878,4
1777225961105,-0.0114787,-0.795988,-1.06867,1.35162,-0.57367,0.263174,0,0,3.49513,4
1777225961118,-0.107735,-0.605907,-0.930517,1.54323,-0.351519,0.159159,0,0,3.41145,4
1777225961132,-0.0484341,-0.623061,-0.73844,1.70291,-0.189574,0.0231921,0,0,3.51235,4
1777225961146,0.0292082,-0.820785,-0.594387,1.76488,-0.152342,-0.0924544,0,0,3.46934,4
1777225961159,0.00612071,-0.846846,-0.428395,1.65658,-0.120908,0.0540615,0,0,3.39791,4
1777225961173,-0.0420423,-0.793387,-0.2633,1.5924,-0.0720675,0.215662,0,0,3.4783,4
1777225961186,-0.110786,-0.710909,-0.10513,1.63039,0.0137733,0.183662,0,0,3.47126,4
1777225961200,-0.195276,-0.677293,0.0549754,1.77554,0.172432,0.0909909,0,0,3.4781,4
1777225961213,-0.204739,-0.775346,0.185682,1.89015,0.364889,0.0101387,0,0,3.4143,4
1777225961227,-0.138478,-0.921636,0.271788,1.88037,0.513756,-0.0594646,0,0,3.53645,4
1777225961241,-0.0327559,-0.964809,0.29282,1.82843,0.596667,-0.0631798,0,0,3.41706,4
1777225961254,0.0969971,-0.978036,0.279842,1.83682,0.599882,-0.0161104,0,0,3.49613,4
1777225961268,0.223518,-1.04434,0.245186,1.86319,0.503782,0.0427706,0,0,3.50143,0
1777225961282,0.294568,-1.15065,0.176684,1.82409,0.340874,0.134777,0,0,3.46673,0
1777225961295,0.311215,-1.21171,0.0915035,1.75476,0.153375,0.239757,0,0,3.49293,0
1777225961309,0.281883,-1.25356,0.00715631,1.68943,-0.0363735,0.297507,0,0,3.38814,0
1777225961323,0.208288,-1.30559,-0.0810358,1.59719,-0.185311,0.318419,0,0,3.4786,0
1777225961336,0.111608,-1.36547,-0.173692,1.46085,-0.267339,0.329357,0,0,3.39217,0
1777225961350,0.0292761,-1.41158,-0.265142,1.28421,-0.290429,0.321029,0,0,3.4631,0
1777225961363,-0.0256701,-1.43468,-0.353773,1.07829,-0.280778,0.297104,0,0,3.45493,0
1777225961377,-0.052786,-1.4365,-0.428699,0.851579,-0.262149,0.266645,0,0,3.39177,0
1777225961390,-0.0619159,-1.40922,-0.465987,0.625998,-0.25015,0.231912,0,0,3.47223,0
1777225961404,-0.0656282,-1.41018,-0.475778,0.41323,-0.240379,0.191784,0,0,3.40286,0
1777225961418,-0.0506102,-1.36076,-0.142423,0.213442,-0.235749,0.166665,0,0,3.49996,0
1777225961431,0.0160588,-1.6195,0.209062,0.111202,-0.222131,0.0857321,0,0,3.41493,0
1777225961445,0.0279051,-1.66481,0.0821673,-0.324227,-0.279855,0.0217361,0,0,3.47521,0
1777225961458,-0.0244797,-1.34866,-0.0506224,-0.537658,-0.251737,0.173953,0,0,3.47545,0
1777225961472,-0.0174899,-1.17754,0.0531741,-0.408252,-0.212961,0.258574,0,0,3.46156,0
1777225961485,0.0101982,-1.27996,0.0358723,-0.57096,-0.165114,0.161649,0,0,3.49302,0
1777225961499,0.0154495,-1.23175,0.0445929,-0.678447,-0.146539,0.223537,0,0,3.40499,0
1777225961513,0.0624752,-1.1783,0.0619123,-0.781555,-0.181938,0.343825,0,0,3.48554,0
1777225961526,0.0348753,-1.11865,0.0474804,-0.823115,-0.276297,0.383302,0,0,3.39852,0
1777225961540,-0.0942241,-1.03304,0.0324731,-0.734034,-0.288988,0.388757,0,0,3.4856,0
1777225961553,-0.221303,-1.05497,0.0253307,-0.68387,-0.185989,0.296458,0,0,3.42138,0
1777225961567,-0.233707,-1.04403,0.0292957,-0.666775,-0.0809701,0.118829,0,0,3.44025,0
1777225961580,-0.177688,-1.01168,0.0204165,-0.632389,-0.0240272,0.00525854,0,0,3.47297,0
1777225961594,-0.103989,-1.01108,0.0274098,-0.576202,-0.0383815,-0.0181751,0,0,3.45495,0
1777225961608,-0.0695031,-1.02927,0.0202912,-0.554278,-0.0866029,-0.00682533,0,0,3.50171,0
1777225961621,-0.0802264,-1.02342,0.0130811,-0.54901,-0.118505,0.00798907,0,0,3.3854,0
1777225961635,-0.0744481,-1.00444,0.00553432,-0.526045,-0.132545,-0.00816433,0,0,3.51069,0
1777225961648,-0.0536673,-0.997551,0.000429711,-0.489949,-0.155582,-0.017427,0,0,3.40653,0
1777225961662,-0.0349492,-1.00608,-0.000592059,-0.46581,-0.191853,0.00561744,0,0,3.46886,0
1777225961676,-0.0370998,-1.0073,-0.00482502,-0.456483,-0.229088,0.0354191,0,0,3.47656,0
1777225961689,-0.0605219,-0.990545,-0.0127147,-0.432171,-0.240742,0.0376584,0,0,3.49978,0
1777225961703,-0.0877101,-0.979727,-0.01757,-0.390308,-0.215007,0.0193209,0,0,3.51513,0
1777225961716,-0.0978358,-0.986484,-0.0210456,-0.355345,-0.170547,-0.00249972,0,0,3.42425,0
1777225961730,-0.0922786,-0.989874,-0.0222294,-0.336248,-0.12987,-0.0196912,0,0,3.5078,0
1777225961744,-0.0824028,-0.990822,-0.0266031,-0.319316,-0.0976401,-0.0260659,0,0,3.42799,0
1777225961757,-0.0702252,-0.994026,-0.0273441,-0.308044,-0.0826899,-0.0291389,0,0,3.4183,0
1777225961771,-0.0618721,-0.999575,-0.0296604,-0.306627,-0.0821907,-0.0272722,0,0,3.48206,0
1777225961785,-0.0588021,-1.00092,-0.0363363,-0.313321,-0.0872709,-0.0219635,0,0,3.93891,0
1777225961798,-0.0566835,-1.0006,-0.0391406,-0.317119,-0.0962244,-0.0202622,0,0,3.46641,0
1777225961812,-0.0605062,-0.99943,-0.0510981,-0.320703,-0.105123,-0.024277,0,0,3.41017,0
1777225961825,-0.0667207,-0.996031,-0.0557856,-0.318932,-0.105656,-0.0335515,0,0,3.46224,0
1777225961839,-0.0740465,-0.996843,-0.0624934,-0.31654,-0.100948,-0.047387,0,0,3.40177,0
1777225961853,-0.0816617,-0.995651,-0.0698937,-0.312702,-0.0884233,-0.0644765,0,0,3.4683,0
1777225961866,-0.0818391,-0.99616,-0.0786352,-0.304631,-0.0673884,-0.0809823,0,0,3.41165,0
1777225961880,-0.0722451,-0.999368,-0.0847771,-0.296951,-0.0466786,-0.092956,0,0,3.50039,0
1777225961893,-0.0538779,-1.00289,-0.0919434,-0.292052,-0.0304637,-0.0964201,0,0,3.45389,0
1777225961907,-0.0372232,-1.00615,-0.0978115,-0.287219,-0.0232999,-0.087691,0,0,3.48717,0
1777225961921,-0.0273959,-1.00923,-0.103003,-0.283153,-0.0244675,-0.0751624,0,0,3.47971,0
1777225961934,-0.0267778,-1.01101,-0.108186,-0.27736,-0.0250206,-0.0664267,0,0,3.38616,0
1777225961948,-0.0313564,-1.01387,-0.114455,-0.271719,-0.0213721,-0.0614879,0,0,3.50245,0
1777225961961,-0.0382271,-1.01908,-0.120928,-0.266445,-0.0127465,-0.0581737,0,0,3.40473,0
1777225961975,-0.0465731,-1.0249,-0.124649,-0.260218,0.00260946,-0.0564425,0,0,3.49459,0
1777225961989,-0.0545592,-1.0333,-0.127945,-0.256391,0.0275435,-0.0604705,0,0,3.48634,0
1777225962002,-0.0577611,-1.04056,-0.132575,-0.256699,0.057126,-0.0679621,0,0,3.4923,0
1777225962016,-0.0544285,-1.0475,-0.13576,-0.261308,0.0824777,-0.0759989,0,0,3.46705,0
1777225962029,-0.05398,-1.0564,-0.139167,-0.269716,0.102675,-0.0826072,0,0,3.38763,0
1777225962043,-0.055521,-1.07383,-0.139713,-0.282842,0.126174,-0.0946536,0,0,3.49831,0
1777225962056,-0.0526122,-1.09286,-0.138611,-0.306516,0.151404,-0.114209,0,0,3.41742,0
1777225962070,-0.0305265,-1.09993,-0.136013,-0.343471,0.172621,-0.152719,0,0,3.49499,0
1777225962084,-0.0296567,-1.11221,-0.142862,-0.371582,0.185008,-0.133029,0,0,3.41037,0
1777225962097,-0.0247835,-1.12084,-0.141441,-0.399295,0.195217,-0.128847,0,0,3.4952,0
1777225962111,-0.0237054,-1.11998,-0.1478,-0.430151,0.214691,-0.134154,0,0,3.45929,0
1777225962124,-0.00472106,-1.14425,-0.142576,-0.447823,0.252611,-0.153576,0,0,3.4497,0
1777225962138,-0.00255471,-1.19612,-0.129096,-0.472053,0.255535,-0.168463,0,0,3.48142,0
1777225962152,-0.0280518,-1.23748,-0.117168,-0.528441,0.266712,-0.139597,0,0,3.39461,0
1777225962165,-0.0778565,-1.24547,-0.109288,-0.597989,0.326496,-0.0965602,0,0,3.49048,0
1777225962179,-0.112508,-1.23381,-0.0994875,-0.667026,0.427068,-0.0975406,0,0,3.43003,0
1777225962192,-0.118787,-1.22188,-0.0939057,-0.73013,0.536666,-0.129477,0,0,3.54492,0
1777225962206,-0.103713,-1.21745,-0.0929844,-0.796355,0.628837,-0.143674,0,0,3.41091,0
1777225962219,-0.0899499,-1.22444,-0.0850746,-0.866874,0.689425,-0.126815,0,0,3.43583,0
1777225962233,-0.0882308,-1.23119,-0.0774671,-0.94401,0.724992,-0.09774,0,0,3.46999,0
1777225962247,-0.106459,-1.22466,-0.0756235,-1.02609,0.753473,-0.0713227,0,0,3.3697,0
1777225962260,-0.132838,-1.2012,-0.0695189,-1.0978,0.789166,-0.0590285,0,0,3.47775,0
1777225962274,-0.15854,-1.16967,-0.0690765,-1.15487,0.827651,-0.05788,0,0,3.3915,0
1777225962287,-0.17323,-1.14975,-0.0730356,-1.20164,0.861809,-0.0688567,0,0,3.5059,0
1777225962301,-0.181255,-1.14003,-0.095036,-1.25189,0.881329,-0.0794289,0,0,3.45742,0
1777225962314,-0.195558,-1.1338,-0.145183,-1.30647,0.898868,-0.071458,0,0,3.45603,0
1777225962328,-0.234324,-1.14657,-0.231703,-1.37827,0.938459,-0.0396246,0,0,3.47901,0
1777225962341,-0.281012,-1.1436,-0.314864,-1.45241,1.02674,0.0118904,0,0,3.39494,0
1777225962355,-0.332357,-1.1101,-0.354188,-1.49837,1.15038,0.106079,0,0,3.48622,0
1777225962369,-0.359209,-1.03193,-0.373531,-1.47805,1.30179,0.266427,0,0,3.40209,0
1777225962382,-0.369687,-0.980331,-0.389167,-1.4036,1.47876,0.458715,0,0,3.49947,0
1777225962396,-0.327535,-0.951716,-0.400651,-1.31333,1.64918,0.578128,0,0,3.43341,0
1777225962410,-0.22846,-0.913425,-0.423555,-1.24012,1.7817,0.59961,0,0,3.52736,0
1777225962423,-0.108725,-0.872458,-0.45068,-1.15639,1.84336,0.605273,0,0,3.47468,0
1777225962437,0.0157575,-0.863302,-0.468632,-1.07041,1.83188,0.645654,0,0,3.46007,0
1777225962450,0.124094,-0.869444,-0.47521,-1.02658,1.76897,0.746849,0,0,3.4899,0
1777225962464,0.200363,-0.866187,-0.483882,-1.03293,1.67944,0.898417,0,0,3.40513,0
1777225962477,0.24062,-0.841547,-0.492537,-1.05415,1.585,1.04929,0,0,3.49666,0
1777225962491,0.254564,-0.79847,-0.510442,-1.07292,1.52101,1.16329,0,0,3.41802,0
1777225962505,0.266284,-0.755472,-0.52631,-1.06961,1.49399,1.24188,0,0,3.52388,0
1777225962518,0.303934,-0.729367,-0.531336,-1.05948,1.4839,1.30337,0,0,3.42279,0
1777225962532,0.370725,-0.708279,-0.534381,-1.05933,1.46168,1.36467,0,0,3.45203,0
1777225962545,0.450237,-0.674689,-0.536124,-1.04992,1.40055,1.42753,0,0,3.51048,0
1777225962559,0.520591,-0.632012,-0.536351,-1.01188,1.29854,1.48589,0,0,3.38687,0
1777225962572,0.559733,-0.593737,-0.532558,-0.940793,1.17998,1.53524,0,0,3.49264,0
1777225962586,0.564859,-0.56916,-0.528235,-0.854745,1.07397,1.58093,0,0,3.44694,0
1777225962600,0.548752,-0.557087,-0.517115,-0.771435,0.999368,1.61686,0,0,3.4939,0
1777225962613,0.523411,-0.551366,-0.505659,-0.69098,0.964499,1.64066,0,0,3.45474,0
1777225962627,0.497484,-0.544436,-0.490114,-0.605562,0.959105,1.64872,0,0,3.48912,0
1777225962640,0.473719,-0.538452,-0.473787,-0.517103,0.974585,1.6441,0,0,3.47007,0
1777225962654,0.455788,-0.530393,-0.459289,-0.426555,1.01074,1.62802,0,0,3.45435,0
1777225962668,0.445078,-0.521401,-0.44281,-0.327727,1.05566,1.59592,0,0,3.49281,0
1777225962681,0.440605,-0.509348,-0.426732,-0.221656,1.09653,1.55371,0,0,3.38881,0
1777225962695,0.433954,-0.497435,-0.411743,-0.102359,1.13175,1.51416,0,0,3.50161,0
1777225962708,0.422936,-0.490052,-0.397025,0.0282882,1.16285,1.4764,0,0,3.4947,0
1777225962722,0.403815,-0.495288,-0.380675,0.164171,1.1934,1.43761,0,0,3.54571,0
1777225962736,0.381809,-0.516852,-0.358179,0.297904,1.23495,1.39932,0,0,3.43183,0
1777225962749,0.35807,-0.547414,-0.336975,0.413266,1.29005,1.36694,0,0,3.46452,0
1777225962763,0.34428,-0.573692,-0.317278,0.510317,1.34679,1.33387,0,0,3.50857,0
1777225962776,0.335845,-0.592485,-0.307319,0.603916,1.40354,1.30024,0,0,3.38833,0
1777225962790,0.330806,-0.600759,-0.29954,0.710426,1.45504,1.27843,0,0,3.50438,0
1777225962803,0.328105,-0.613444,-0.280401,0.838854,1.49453,1.26443,0,0,3.44561,0
1777225962817,0.315753,-0.643889,-0.255258,0.967811,1.53575,1.25907,0,0,3.51594,0
1777225962831,0.303003,-0.695416,-0.222683,1.07922,1.59172,1.25134,0,0,3.45664,0
1777225962844,0.301616,-0.755885,-0.195366,1.1511,1.65376,1.22606,0,0,3.51901,0
1777225962858,0.319329,-0.805908,-0.172099,1.19472,1.7051,1.18016,0,0,3.49618,0
1777225962871,0.347802,-0.847216,-0.163801,1.22792,1.73647,1.13699,0,0,3.47522,0
1777225962885,0.385874,-0.87195,-0.145498,1.26816,1.73734,1.11251,0,0,3.51259,0
1777225962899,0.420795,-0.895386,-0.132406,1.31184,1.70339,1.10244,0,0,3.42026,0
1777225962912,0.442589,-0.922877,-0.124963,1.35581,1.64341,1.09543,0,0,3.50675,0
1777225962926,0.450958,-0.943721,-0.10766,1.4031,1.57161,1.08366,0,0,3.40966,0
1777225962939,0.449024,-0.97578,-0.0862988,1.44394,1.50192,1.06389,0,0,3.48681,0
1777225962953,0.446315,-1.00908,-0.0682351,1.46217,1.43512,1.03295,0,0,3.49581,0
1777225962967,0.448371,-1.0224,-0.0531309,1.47514,1.3697,0.993259,0,0,3.47246,0
1777225962980,0.445876,-1.0243,-0.0369607,1.508,1.30032,0.950349,0,0,3.51433,0
1777225962994,0.44281,-1.0377,-0.019479,1.55121,1.22804,0.899477,0,0,3.4327,0
1777225963007,0.437059,-1.07153,-0.00574866,1.58411,1.15119,0.836612,0,0,3.52185,0
1777225963021,0.425085,-1.10094,0.00408123,1.60049,1.07744,0.769632,0,0,3.4793,0
1777225963035,0.40967,-1.12943,0.00721098,1.61006,1.00921,0.704401,0,0,3.48499,0
1777225963048,0.392297,-1.15902,0.00741893,1.61237,0.942774,0.636161,0,0,3.48895,0
1777225963062,0.371745,-1.18809,0.0055405,1.59941,0.875886,0.559905,0,0,3.50221,0
1777225963075,0.342898,-1.20712,-1.53187e-05,1.58064,0.821928,0.482275,0,0,3.48693,0
1777225963089,0.319718,-1.2286,-0.00249051,1.55862,0.774482,0.39598,0,0,3.4558,0
1777225963103,0.298756,-1.24828,-0.00904702,1.51703,0.723888,0.306192,0,0,3.52611,0
1777225963116,0.270615,-1.2599,-0.025324,1.46377,0.668431,0.233608,0,0,3.4533,0
1777225963130,0.237046,-1.27117,-0.0350486,1.40211,0.614048,0.17952,0,0,3.50165,0
1777225963143,0.19841,-1.2735,-0.0488,1.31722,0.560613,0.132425,0,0,3.4141,0
1777225963157,0.153702,-1.26561,-0.0660476,1.22194,0.514467,0.0880893,0,0,3.51537,0
1777225963171,0.110735,-1.25946,-0.0754568,1.12053,0.475237,0.0463339,0,0,3.41356,0
1777225963184,0.0670276,-1.25735,-0.0827574,1.00058,0.443219,0.011805,0,0,3.43775,0
1777225963198,0.021037,-1.2382,-0.0838521,0.869527,0.424171,-0.00682918,0,0,3.48161,0
1777225963211,-0.0215635,-1.21415,-0.0723843,0.746145,0.416797,-0.0244951,0,0,3.50389,0
1777225963225,-0.0595476,-1.18564,-0.0573446,0.62418,0.420549,-0.0478807,0,0,3.49613,0
1777225963239,-0.0874111,-1.15281,-0.0341848,0.517084,0.43271,-0.0668345,0,0,3.41877,0
1777225963252,-0.101598,-1.12351,-0.0114067,0.421437,0.44035,-0.0852374,0,0,3.50036,4
1777225963266,-0.120896,-1.11209,0.013099,0.337152,0.443472,-0.0904586,0,0,3.42767,4
1777225963279,-0.192922,-1.10182,0.0371101,0.242843,0.454891,-0.000382183,0,0,3.49126,4
1777225963293,-0.326234,-1.10053,0.155791,0.175155,0.485908,0.160521,0,0,3.47882,4
1777225963306,-0.405271,-1.19323,0.249309,0.0625913,0.600381,0.128132,0,0,3.45015,4
1777225963320,-0.393657,-1.20508,0.207706,-0.181683,0.708816,-0.10657,0,0,3.4911,4
1777225963334,-0.300668,-1.12131,0.157204,-0.297891,0.735299,-0.238363,0,0,3.39016,4
1777225963347,-0.13722,-1.06929,0.174001,-0.314438,0.620573,-0.243725,0,0,3.48212,4
1777225963361,-0.0210468,-1.07956,0.183469,-0.345823,0.377704,-0.187646,0,0,3.4139,4
1777225963374,-0.0143484,-1.0923,0.190981,-0.418453,0.156611,-0.0809391,0,0,3.50732,4
1777225963388,-0.0589133,-1.07049,0.209311,-0.504563,0.0274557,-0.0199429,0,0,3.41749,4
1777225963401,-0.0928765,-1.04402,0.215798,-0.561144,-0.0186469,-0.0323315,0,0,3.44045,4
1777225963415,-0.0879407,-1.04169,0.221689,-0.611348,-0.0159844,-0.0368793,0,0,3.61331,4
1777225963429,-0.0482023,-1.04711,0.217923,-0.68854,-0.0237784,0.00545044,0,0,3.37838,4
1777225963442,-0.0250247,-1.02559,0.169325,-0.739598,-0.101024,0.0698474,0,0,3.49139,4
1777225963456,-0.0418986,-0.977688,0.134948,-0.725823,-0.202202,0.101018,0,0,3.4126,4
1777225963469,-0.0970851,-0.958076,0.112372,-0.658554,-0.253578,0.0981383,0,0,3.49206,4
1777225963483,-0.161085,-0.979236,0.101167,-0.624482,-0.218096,0.0630923,0,0,3.41478,4
1777225963496,-0.189949,-0.975184,0.0905382,-0.605491,-0.140424,0.00657186,0,0,3.46476,0
1777225963510,-0.176951,-0.95661,0.0679588,-0.5631,-0.0569306,-0.0526023,0,0,3.46558,0
1777225963524,-0.139639,-0.946467,0.0547569,-0.490166,0.01897,-0.0841915,0,0,3.49213,0
1777225963537,-0.0957581,-0.961532,0.0443886,-0.426207,0.0731112,-0.0813301,0,0,3.46943,0
1777225963551,-0.0545713,-0.973389,0.0414025,-0.38203,0.101677,-0.0483985,0,0,3.38055,0
1777225963564,-0.0222864,-0.974354,0.0347886,-0.343231,0.100761,0.00663995,0,0,3.46358,0
1777225963578,-0.00905477,-0.973616,0.0320059,-0.304703,0.0739675,0.0660168,0,0,3.40312,0
1777225963591,-0.0247516,-0.980728,0.0324854,-0.280115,0.0372885,0.117508,0,0,3.49006,0
1777225963605,-0.0571038,-0.983493,0.0286229,-0.273874,0.0102722,0.145811,0,0,3.40412,0
1777225963619,-0.0883457,-0.971384,0.0232104,-0.257758,0.00637187,0.145746,0,0,3.51004,0
1777225963632,-0.103278,-0.965632,0.0189293,-0.230155,0.0148264,0.127765,0,0,3.46889,0
1777225963646,-0.10643,-0.971737,0.0139255,-0.207266,0.0278261,0.111369,0,0,3.37751,0
1777225963659,-0.109584,-0.974915,0.0102246,-0.190063,0.0441299,0.10207,0,0,3.40173,0
1777225963673,-0.114415,-0.974263,0.00907026,-0.17476,0.0612914,0.0880099,0,0,3.48602,0
1777225963686,-0.11922,-0.973183,0.00452919,-0.160646,0.077552,0.0676927,0,0,3.4625,0
1777225963700,-0.116668,-0.97691,0.00570179,-0.151314,0.0855046,0.0471994,0,0,3.47724,0
1777225963713,-0.109015,-0.98095,0.00321318,-0.152787,0.0793708,0.0359486,0,0,3.45578,0
1777225963727,-0.10176,-0.979825,-0.0014247,-0.156458,0.063038,0.0332014,0,0,3.46939,0
1777225963741,-0.0984522,-0.978301,-0.00393937,-0.158549,0.0413994,0.0336984,0,0,3.45243,0
1777225963754,-0.0997307,-0.976946,-0.0101119,-0.161654,0.017184,0.0325095,0,0,3.50224,0
1777225963768,-0.103511,-0.973453,-0.0169188,-0.161582,-0.00126527,0.0260989,0,0,3.39556,0
1777225963781,-0.108273,-0.969552,-0.0203837,-0.154868,-0.0143241,0.0165709,0,0,3.47776,0
1777225963795,-0.113759,-0.969189,-0.0257405,-0.146232,-0.0219622,0.00393634,0,0,3.39673,0
1777225963809,-0.119229,-0.971061,-0.0273995,-0.138756,-0.0227548,-0.0117197,0,0,3.49173,0
1777225963822,-0.119797,-0.97407,-0.0314458,-0.136329,-0.0214432,-0.0285451,0,0,3.47315,0
1777225963836,-0.116236,-0.975171,-0.0347336,-0.135096,-0.0196378,-0.0421336,0,0,3.47152,0
1777225963849,-0.11012,-0.977928,-0.0375561,-0.131792,-0.016403,-0.0473505,0,0,3.4756,0
1777225963863,-0.104263,-0.984858,-0.0382372,-0.129674,-0.0100432,-0.0440389,0,0,3.38418,0
1777225963876,-0.0949313,-0.990006,-0.0397615,-0.135466,-0.00516324,-0.039778,0,0,3.49463,0
1777225963890,-0.0891134,-0.996728,-0.0418249,-0.139848,-0.00609659,-0.0364817,0,0,3.41562,0
1777225963904,-0.0895957,-0.995647,-0.0474769,-0.153079,-0.00728151,-0.0343581,0,0,3.49139,0
1777225963917,-0.093296,-0.984639,-0.052545,-0.155339,-0.0059407,-0.0301585,0,0,3.41882,0
1777225963931,-0.0967016,-0.981194,-0.056141,-0.145951,-0.00525592,-0.0335545,0,0,3.5573,0
1777225963944,-0.102393,-0.982836,-0.0613221,-0.138979,-0.00516874,-0.0426185,0,0,3.4591,0
1777225963958,-0.106273,-0.983231,-0.0658527,-0.133348,0.00143063,-0.0509862,0,0,3.37527,0
1777225963971,-0.101985,-0.982739,-0.0686602,-0.12639,0.00929652,-0.0608982,0,0,3.47628,0
1777225963985,-0.0913124,-0.982214,-0.0730924,-0.1153,0.0137904,-0.0693108,0,0,3.39147,0
1777225963999,-0.0805666,-0.982242,-0.0757824,-0.10163,0.0159449,-0.0670847,0,0,3.48682,0
1777225964012,-0.0745827,-0.985225,-0.0778283,-0.0845393,0.0205139,-0.0576342,0,0,3.41776,0
1777225964026,-0.0730549,-0.988041,-0.0792186,-0.0710601,0.0248048,-0.0470997,0,0,3.50401,0
1777225964039,-0.0760071,-0.990743,-0.0792032,-0.0563287,0.0356707,-0.0369088,0,0,3.48553,0
1777225964053,-0.0775409,-0.993121,-0.0782247,-0.0457828,0.0508197,-0.0305665,0,0,3.46383,0
1777225964067,-0.080642,-0.994381,-0.081686,-0.0365493,0.0669172,-0.0252558,0,0,3.49968,0
1777225964080,-0.0824336,-0.995475,-0.0825358,-0.0289692,0.0838814,-0.0221152,0,0,3.38926,0
1777225964094,-0.0865951,-0.995074,-0.084657,-0.0238611,0.104418,-0.0203505,0,0,3.42853,0
1777225964107,-0.0854146,-0.996238,-0.0836354,-0.0220217,0.1226,-0.0236508,0,0,3.49816,0
1777225964121,-0.0809473,-0.998375,-0.0860299,-0.0234023,0.132905,-0.0282332,0,0,3.46694,0
1777225964134,-0.0764253,-1.00033,-0.0869829,-0.028166,0.139303,-0.0290493,0,0,3.50975,0
1777225964148,-0.0718557,-1.00311,-0.0858478,-0.0370213,0.137893,-0.0300729,0,0,3.47124,0
1777225964162,-0.0686926,-1.00544,-0.0863422,-0.0485737,0.127799,-0.0345646,0,0,3.48788,0
1777225964175,-0.0710294,-1.00675,-0.0883157,-0.060758,0.115379,-0.0407122,0,0,3.4102,0
1777225964189,-0.0743451,-1.00702,-0.0892248,-0.0718276,0.107434,-0.0486469,0,0,3.49148,0
1777225964202,-0.0754223,-1.00812,-0.0897246,-0.0812558,0.101005,-0.0612389,0,0,3.4008,0
1777225964216,-0.0755532,-1.01088,-0.0926679,-0.0917972,0.0948956,-0.0756634,0,0,3.54072,0
1777225964229,-0.0763103,-1.01257,-0.0943226,-0.0995892,0.0936853,-0.0867551,0,0,3.46768,0
1777225964243,-0.0793806,-1.01409,-0.0975286,-0.106134,0.0974222,-0.0961509,0,0,3.45072,0
1777225964257,-0.0828505,-1.01719,-0.0978671,-0.111002,0.104989,-0.108128,0,0,3.45775,0
1777225964270,-0.0884369,-1.022,-0.0999305,-0.117044,0.117707,-0.122244,0,0,3.38187,0
1777225964284,-0.0912282,-1.03262,-0.0971858,-0.120424,0.140227,-0.138524,0,0,3.46935,0
1777225964297,-0.0994425,-1.04891,-0.0899127,-0.121231,0.151563,-0.152129,0,0,3.38176,0
1777225964311,-0.109309,-1.07177,-0.0888741,-0.137617,0.161977,-0.166087,0,0,3.48716,0
1777225964324,-0.123023,-1.09445,-0.0817311,-0.163777,0.188734,-0.180734,0,0,3.49098,1
1777225964338,-0.12457,-1.12064,-0.0743069,-0.200514,0.239416,-0.195014,0,0,3.49692,1
1777225964352,-0.103168,-1.15156,-0.0658342,-0.242286,0.299335,-0.211125,0,0,3.45572,1
1777225964365,-0.0611338,-1.2023,-0.0927406,-0.288444,0.349357,-0.226955,0,0,3.44053,1
1777225964379,-0.0751798,-1.22023,0.00122805,-0.348691,0.35711,-0.150389,0,0,3.48113,1
1777225964392,-0.0543347,-1.27138,-0.0454538,-0.458413,0.412261,-0.191444,0,0,3.37794,1
1777225964406,-0.0364295,-1.28014,-0.0158502,-0.563194,0.43934,-0.225707,0,0,3.48424,1
1777225964419,-0.00618135,-1.30699,-0.0101584,-0.66616,0.460162,-0.230723,0,0,3.41929,1
1777225964433,0.0341398,-1.34491,0.0113839,-0.772093,0.440479,-0.225462,0,0,3.52392,1
1777225964447,0.0390351,-1.38616,0.0334977,-0.902482,0.399407,-0.202669,0,0,3.44042,1
1777225964460,0.027264,-1.41381,0.0546921,-1.05012,0.365625,-0.177822,0,0,3.46164,1
1777225964474,0.00835763,-1.425,0.0795279,-1.20219,0.336545,-0.167689,0,0,3.47735,1
1777225964488,-0.00995544,-1.4124,0.108169,-1.35223,0.30338,-0.162425,0,0,3.38061,1
1777225964501,-0.0354103,-1.38305,0.121968,-1.49111,0.264827,-0.14898,0,0,3.47386,1
1777225964515,-0.0777467,-1.34811,0.119601,-1.60889,0.237102,-0.118909,0,0,3.43542,1
1777225964528,-0.134772,-1.3126,0.112752,-1.70454,0.243335,-0.074981,0,0,3.55881,1
1777225964542,-0.189431,-1.29814,0.0807148,-1.80108,0.291469,-0.0598633,0,0,3.43513,1
1777225964556,-0.231289,-1.27989,0.0127169,-1.90829,0.36144,-0.102405,0,0,3.44111,1
1777225964569,-0.254955,-1.24385,-0.0634359,-1.98267,0.44003,-0.16773,0,0,3.3528,1
1777225964583,-0.250924,-1.18749,-0.11543,-1.99628,0.519859,-0.213082,0,0,3.54129,1
1777225964596,-0.227736,-1.12205,-0.156198,-1.97221,0.593547,-0.208039,0,0,3.44887,1
1777225964610,-0.189747,-1.04147,-0.188087,-1.90964,0.657994,-0.144244,0,0,3.48214,1
1777225964624,-0.149398,-0.960432,-0.222851,-1.80604,0.710962,-0.0481678,0,0,3.56653,1
1777225964637,-0.0883384,-0.886858,-0.253646,-1.66768,0.761769,0.0104073,0,0,3.4847,1
1777225964651,-0.0198828,-0.798239,-0.278838,-1.50063,0.772593,0.0204539,0,0,3.52718,1
1777225964664,0.0525494,-0.702542,-0.30232,-1.30522,0.742174,0.0133808,0,0,3.41785,1
1777225964678,0.134032,-0.612603,-0.312251,-1.06905,0.668338,-0.00951093,0,0,3.45318,1
1777225964692,0.209281,-0.539599,-0.3063,-0.804129,0.541185,-0.0205975,0,0,3.48918,1
1777225964705,0.257596,-0.492236,-0.2845,-0.53353,0.380695,0.0261051,0,0,3.39418,1
1777225964719,0.26689,-0.470031,-0.25663,-0.28868,0.234905,0.144693,0,0,3.52312,1
1777225964732,0.249576,-0.446184,-0.230308,-0.0880727,0.126021,0.283924,0,0,3.53423,1
1777225964746,0.225117,-0.395238,-0.214437,0.091059,0.0467098,0.378168,0,0,3.52151,1
1777225964760,0.203302,-0.322952,-0.204775,0.302829,-0.00583341,0.414148,0,0,3.40755,1
1777225964773,0.185938,-0.265146,-0.186959,0.5669,-0.0218205,0.435123,0,0,3.45814,0
1777225964787,0.178133,-0.257842,-0.150709,0.845495,-0.00649161,0.475631,0,0,3.46316,0
1777225964800,0.186478,-0.289527,-0.109809,1.07735,0.0225038,0.528433,0,0,3.45079,0
1777225964814,0.20421,-0.317519,-0.077098,1.2575,0.0529898,0.573414,0,0,3.47994,0
1777225964827,0.225719,-0.335904,-0.0532012,1.431,0.071919,0.587807,0,0,3.39391,0
1777225964841,0.247127,-0.351543,-0.0340942,1.60938,0.0766501,0.572053,0,0,3.49514,0
1777225964855,0.268643,-0.38198,-0.0171832,1.75803,0.0817758,0.545413,0,0,3.42914,0
1777225964868,0.291891,-0.435559,-0.00028088,1.88191,0.0858692,0.520058,0,0,3.51253,0
1777225964882,0.319218,-0.504694,0.0236917,1.98514,0.0759088,0.492046,0,0,3.42379,0
1777225964895,0.343233,-0.593962,0.041063,2.07117,0.0489189,0.45472,0,0,3.44037,0
1777225964909,0.358197,-0.673205,0.0492283,2.14286,0.00493877,0.411452,0,0,3.50136,0
1777225964922,0.35861,-0.742842,0.0546126,2.2026,-0.0500319,0.362533,0,0,3.40133,0
1777225964936,0.347836,-0.827946,0.0671372,2.25238,-0.107088,0.308027,0,0,3.58071,0
1777225964950,0.319727,-0.933782,0.081132,2.29387,-0.165703,0.257682,0,0,3.40413,0
1777225964963,0.265145,-1.05237,0.0879743,2.32844,-0.21633,0.219315,0,0,3.48788,0
1777225964977,0.175128,-1.16705,0.0866121,2.35725,-0.241814,0.198602,0,0,3.39779,0
1777225964990,0.0682437,-1.28665,0.0736224,2.38126,-0.218331,0.1861,0,0,3.47388,0
1777225965004,-0.0252958,-1.3996,0.0469665,2.39129,-0.149538,0.170032,0,0,3.48248,0
1777225965018,-0.0763323,-1.49876,0.0112762,2.35559,-0.0515999,0.149925,0,0,3.4613,0
1777225965031,-0.0746704,-1.58341,-0.0296519,2.27043,0.0450026,0.138309,0,0,3.49347,0
1777225965045,-0.0356834,-1.64246,-0.0792136,2.1303,0.11081,0.14368,0,0,3.48452,0
1777225965058,0.0042144,-1.65795,-0.149043,1.95445,0.140993,0.170853,0,0,3.47347,0
1777225965072,0.0239914,-1.63253,-0.223505,1.77972,0.146209,0.199095,0,0,3.40828,0
1777225965086,0.00628846,-1.62633,-0.295489,1.60159,0.15805,0.209119,0,0,3.51159,0
1777225965099,-0.0269691,-1.63143,-0.3549,1.36776,0.202561,0.197599,0,0,3.43241,0
1777225965113,-0.0375707,-1.61874,-0.395414,1.09037,0.262897,0.151968,0,0,3.44649,0
1777225965126,-0.0163089,-1.58997,-0.406847,0.810846,0.306562,0.0842231,0,0,3.49654,0
1777225965140,0.0327784,-1.54694,-0.381514,0.540718,0.292873,0.0191299,0,0,3.46961,0
1777225965153,0.0599228,-1.4943,-0.333524,0.293944,0.231173,-0.00150114,0,0,3.48428,0
1777225965167,0.0624822,-1.43148,-0.269339,0.0819765,0.15398,0.0243597,0,0,3.40419,0
1777225965181,0.0499699,-1.34081,-0.199423,-0.0817371,0.0749068,0.060427,0,0,3.49624,0
1777225965194,0.034731,-1.2414,-0.134635,-0.192071,0.00698974,0.0849487,0,0,3.41169,0
1777225965208,0.0386476,-1.14634,-0.0106632,-0.241357,-0.0579157,0.0771901,0,0,3.48152,0
1777225965221,0.0660159,-1.16206,0.40643,-0.174019,-0.0942682,0.0423149,0,0,3.47256,0
1777225965235,0.0397189,-1.53603,0.219425,-0.474176,-0.131229,0.0146008,0,0,3.42773,0
1777225965248,0.0181418,-1.36843,0.150715,-0.812042,-0.0839754,0.111366,0,0,3.49919,0
1777225965262,-0.0184471,-1.08692,0.107144,-0.741664,-0.0164808,0.243263,0,0,3.39656,0
1777225965276,-0.0411422,-1.06669,0.141765,-0.629593,0.06264,0.198508,0,0,3.48576,0
1777225965289,-0.0366537,-1.15782,0.124339,-0.705157,0.169058,0.131912,0,0,3.41219,0
1777225965303,0.027951,-1.11592,0.133595,-0.765111,0.225372,0.202471,0,0,3.54063,0
1777225965316,0.0917957,-1.07047,0.120784,-0.806295,0.146398,0.283739,0,0,3.40801,0
1777225965330,0.0593348,-1.00842,0.0932858,-0.745424,0.0110824,0.347708,0,0,3.44095,0
1777225965343,-0.0579314,-0.995281,0.0880387,-0.656594,-0.0397214,0.375011,0,0,3.49154,0
1777225965357,-0.154405,-1.03428,0.0988288,-0.652251,-0.0297424,0.290194,0,0,3.4013,0
1777225965371,-0.180256,-1.01085,0.099736,-0.669624,-0.0149253,0.156459,0,0,3.48158,0
1777225965384,-0.153511,-0.976411,0.0834727,-0.64933,-0.0220688,0.0786144,0,0,3.4238,0
1777225965398,-0.119449,-0.973986,0.0755616,-0.604633,-0.0611896,0.0437053,0,0,3.47808,0
1777225965411,-0.118121,-0.985167,0.0697224,-0.577512,-0.0892993,0.0297926,0,0,3.40462,0
1777225965425,-0.126491,-0.984548,0.0514624,-0.558372,-0.0736527,0.0157814,0,0,3.47065,0
1777225965438,-0.113008,-0.9723,0.0440054,-0.518618,-0.0468225,-0.00181068,0,0,3.46365,0
1777225965452,-0.0881433,-0.977559,0.0414238,-0.477245,-0.0375811,-0.00589821,0,0,3.51311,0
1777225965466,-0.077236,-0.990103,0.0364799,-0.455312,-0.0460504,0.0171459,0,0,3.49748,0
1777225965479,-0.0869724,-0.988608,0.0316728,-0.440674,-0.0517977,0.0442119,0,0,3.38171,0
1777225965493,-0.105206,-0.975986,0.0238316,-0.415791,-0.0430757,0.0463725,0,0,3.48582,0
1777225965506,-0.118656,-0.967279,0.0136135,-0.381886,-0.0225122,0.030743,0,0,3.39669,0
1777225965520,-0.119106,-0.968824,0.00651125,-0.345987,0.00321183,0.0167515,0,0,3.49502,0
1777225965533,-0.110135,-0.974059,0.000216249,-0.317483,0.0268877,0.01284,0,0,3.40756,0
1777225965547,-0.101606,-0.970978,-0.00679346,-0.289289,0.042152,0.0199366,0,0,3.47499,0
1777225965560,-0.0992515,-0.969687,-0.0124291,-0.258097,0.0547831,0.0302398,0,0,3.48339,0
1777225965574,-0.0997812,-0.973489,-0.0145875,-0.228758,0.0683753,0.0363067,0,0,3.38136,0
1777225965588,-0.102622,-0.977433,-0.0174909,-0.206433,0.0818267,0.0435508,0,0,3.50533,0
1777225965601,-0.103254,-0.977543,-0.0194006,-0.189419,0.0936342,0.0525773,0,0,3.39869,0
1777225965615,-0.106699,-0.978443,-0.0250156,-0.172799,0.10285,0.059336,0,0,3.55574,0
1777225965628,-0.110816,-0.977391,-0.0264162,-0.155246,0.108253,0.0620039,0,0,3.40406,0
1777225965642,-0.11809,-0.982011,-0.0286939,-0.141305,0.115923,0.0604231,0,0,3.45686,0
1777225965656,-0.121831,-0.984189,-0.0290629,-0.132195,0.131539,0.0538259,0,0,3.47269,0
1777225965670,-0.119257,-0.982733,-0.0347881,-0.126523,0.142135,0.0446386,0,0,3.45028,0
1777225965683,-0.113547,-0.980826,-0.0382146,-0.119558,0.144947,0.0368808,0,0,3.37106,0
1777225965697,-0.108622,-0.98287,-0.040514,-0.114148,0.142011,0.03408,0,0,3.46397,0
1777225965710,-0.105247,-0.986961,-0.0457919,-0.113928,0.133368,0.0339726,0,0,3.44586,0
1777225965724,-0.101737,-0.988004,-0.0499882,-0.11583,0.120389,0.0337685,0,0,3.50932,0
1777225965738,-0.102486,-0.98952,-0.0531812,-0.116093,0.106838,0.0339165,0,0,3.47193,0
1777225965751,-0.109024,-0.992606,-0.0546344,-0.120014,0.0981286,0.0346251,0,0,3.4868,0
1777225965765,-0.123387,-0.99268,-0.0581159,-0.125024,0.0993056,0.0345412,0,0,3.46608,0
1777225965779,-0.135792,-0.98988,-0.0612352,-0.123754,0.11292,0.0275121,0,0,3.47774,0
1777225965792,-0.142188,-0.991664,-0.0642329,-0.121424,0.131886,0.0130794,0,0,3.40473,0
1777225965806,-0.143848,-0.995015,-0.0666105,-0.122586,0.149422,-0.0030445,0,0,3.48598,0
1777225965819,-0.138565,-0.99979,-0.067613,-0.128236,0.163144,-0.0192674,0,0,3.40043,0
1777225965833,-0.128703,-1.00738,-0.0694487,-0.139345,0.168383,-0.0343895,0,0,3.48458,0
1777225965847,-0.115603,-1.01577,-0.0732622,-0.155472,0.164543,-0.0461515,0,0,3.47625,0
1777225965860,-0.105968,-1.0246,-0.0728413,-0.17587,0.149753,-0.0506225,0,0,3.47195,0
1777225965874,-0.10172,-1.03512,-0.0730228,-0.201571,0.126779,-0.0520582,0,0,3.45615,0
1777225965887,-0.107779,-1.04433,-0.0731804,-0.227492,0.102443,-0.0545904,0,0,3.42908,0
1777225965901,-0.122435,-1.05473,-0.0721913,-0.254208,0.0883972,-0.0617389,0,0,3.46574,0
1777225965914,-0.13992,-1.06711,-0.0724584,-0.280453,0.0946694,-0.0749987,0,0,3.36841,0
1777225965928,-0.15063,-1.08208,-0.0737842,-0.308902,0.118204,-0.0896236,0,0,3.48891,0
1777225965941,-0.170802,-1.10096,-0.0819809,-0.340357,0.136888,-0.0751189,0,0,3.42613,0
1777225965955,-0.150643,-1.12388,-0.0857194,-0.379903,0.180752,-0.0932734,0,0,3.55354,0
1777225965969,-0.143146,-1.14301,-0.0745525,-0.424843,0.219037,-0.142944,0,0,3.42656,0
1777225965982,-0.100026,-1.17651,-0.0710983,-0.473362,0.244414,-0.178344,0,0,3.46467,0
1777225965996,-0.0511666,-1.21498,-0.0658151,-0.533158,0.23406,-0.183137,0,0,3.4956,0
1777225966009,-0.0150516,-1.24067,-0.0564346,-0.611245,0.199325,-0.17582,0,0,3.38159,0
1777225966023,-0.0113309,-1.25548,-0.0481293,-0.686839,0.168419,-0.155308,0,0,3.4806,0
1777225966037,-0.0293337,-1.27364,-0.0363501,-0.757238,0.160884,-0.127795,0,0,3.39955,0
1777225966050,-0.0615004,-1.29768,-0.0198497,-0.835103,0.188586,-0.0940402,0,0,3.54973,0
1777225966064,-0.0859216,-1.32595,0.00129677,-0.929889,0.257066,-0.0729597,0,0,3.41314,0
1777225966077,-0.115586,-1.35673,0.026091,-1.03531,0.338522,-0.0542857,0,0,3.50655,0
1777225966091,-0.147647,-1.36541,0.0575911,-1.15401,0.430079,-0.0267139,0,0,3.46316,0
1777225966104,-0.162003,-1.36201,0.0977767,-1.26735,0.531847,-0.022656,0,0,3.38657,0
1777225966118,-0.155936,-1.36745,0.131959,-1.38815,0.616832,-0.0525696,0,0,3.48129,0
1777225966132,-0.122262,-1.35828,0.154495,-1.52263,0.646596,-0.112027,0,0,3.39355,0
1777225966145,-0.0983655,-1.32156,0.156882,-1.64451,0.616299,-0.159615,0,0,3.49497,0
1777225966159,-0.087945,-1.29479,0.125624,-1.74624,0.569574,-0.18987,0,0,3.48162,0
1777225966172,-0.0763561,-1.32157,0.0324057,-1.87079,0.507928,-0.254777,0,0,3.48253,0
1777225966186,-0.0703158,-1.35039,-0.0737839,-1.97589,0.407599,-0.325724,0,0,3.44716,0
1777225966199,-0.101329,-1.30036,-0.171707,-2.06347,0.321332,-0.302289,0,0,3.44644,0
1777225966213,-0.155311,-1.23257,-0.257337,-2.11778,0.294774,-0.204656,0,0,3.4946,0
1777225966227,-0.205494,-1.21321,-0.332199,-2.12628,0.32576,-0.115954,0,0,3.41272,0
1777225966240,-0.246522,-1.17775,-0.399608,-2.13836,0.390487,-0.0821242,0,0,3.48351,0
1777225966254,-0.273779,-1.11627,-0.460741,-2.13206,0.499642,-0.111236,0,0,3.53169,0
1777225966268,-0.214892,-1.07144,-0.501753,-2.10193,0.630796,-0.263358,0,0,3.52749,0
1777225966281,-0.0691491,-1.01586,-0.527034,-2.05937,0.639048,-0.478282,0,0,3.41659,0
1777225966295,0.0859894,-0.928262,-0.53486,-2.00955,0.490784,-0.620896,0,0,3.44909,0
1777225966308,0.171205,-0.82505,-0.521838,-1.90188,0.254546,-0.64735,0,0,3.48623,0
1777225966322,0.160258,-0.732962,-0.488011,-1.74691,0.0358116,-0.615451,0,0,3.36276,0
1777225966335,0.0910118,-0.651272,-0.438631,-1.58433,-0.0984394,-0.564555,0,0,3.4716,0
1777225966349,0.0219787,-0.554834,-0.390611,-1.40885,-0.141015,-0.508223,0,0,3.41359,0
1777225966362,-0.00884236,-0.448649,-0.350881,-1.20434,-0.136647,-0.467896,0,0,3.48038,0
1777225966376,0.00174909,-0.349475,-0.319829,-0.96589,-0.143695,-0.443781,0,0,3.41816,0
1777225966390,0.02954,-0.26337,-0.290874,-0.701817,-0.190496,-0.423075,0,0,3.47925,0
1777225966403,0.0489074,-0.189672,-0.264158,-0.423194,-0.268849,-0.397918,0,0,3.46673,0
1777225966417,0.0514063,-0.123981,-0.240577,-0.131949,-0.358812,-0.373164,0,0,3.45362,0
1777225966430,0.0382945,-0.0676225,-0.21695,0.173427,-0.444773,-0.352076,0,0,3.50897,0
1777225966444,0.013688,-0.0184329,-0.195922,0.494255,-0.511904,-0.333397,0,0,3.39566,0
1777225966458,-0.0123087,0.0308056,-0.181847,0.828762,-0.552146,-0.317233,0,0,3.4747,0
1777225966471,-0.03755,0.0734592,-0.157691,1.10752,-0.568761,-0.301409,0,0,3.3965,0
1777225966485,-0.0537063,0.0742028,-0.105094,1.33981,-0.566143,-0.287536,0,0,3.49147,0
1777225966498,-0.0662217,-0.00734989,-0.0369396,1.5334,-0.543643,-0.263353,0,0,3.39737,0
1777225966512,-0.0840368,-0.160258,0.0165071,1.69471,-0.49544,-0.214169,0,0,3.42803,0
1777225966525,-0.100984,-0.308619,0.0352434,1.82914,-0.420755,-0.149784,0,0,3.45761,0
1777225966539,-0.0967173,-0.396669,0.0277681,1.94117,-0.347868,-0.119986,0,0,3.37607,0
1777225966553,-0.0714256,-0.440752,0.00593207,2.03452,-0.316837,-0.139199,0,0,3.46764,0
1777225966566,-0.0456704,-0.486522,6.72761e-05,2.11232,-0.318293,-0.146941,0,0,3.44466,0
1777225966580,-0.0457648,-0.59633,0.00967769,2.17715,-0.31775,-0.0914965,0,0,3.47253,0
1777225966593,-0.0501577,-0.756783,0.0316302,2.23117,-0.314487,-0.0185117,0,0,3.4477,0
1777225966607,-0.0410067,-0.907192,0.0275909,2.27619,-0.328383,-0.00431954,0,0,3.4842,0
1777225966620,-0.0287183,-0.990327,-0.000527416,2.31371,-0.362049,-0.0319584,0,0,3.46246,0
1777225966634,-0.0264782,-1.05427,-0.0217233,2.34498,-0.399036,-0.0312885,0,0,3.43994,0
1777225966648,-0.0476003,-1.16361,-0.0304424,2.37103,-0.432568,0.0251858,0,0,3.46688,0
1777225966661,-0.0969201,-1.31124,-0.0404577,2.39274,-0.445626,0.106662,0,0,3.4582,0
1777225966675,-0.153478,-1.44174,-0.0641773,2.41083,-0.419154,0.160056,0,0,3.48329,0
1777225966688,-0.179741,-1.5375,-0.10372,2.42591,-0.353939,0.16352,0,0,3.40699,0
1777225966702,-0.147209,-1.62589,-0.137795,2.43848,-0.286018,0.141521,0,0,3.42386,0
1777225966715,-0.0908777,-1.7127,-0.168345,2.38822,-0.244824,0.14086,0,0,3.35313,0
1777225966729,-0.0632026,-1.75841,-0.207866,2.27236,-0.225292,0.177536,0,0,3.3822,0
1777225966742,-0.106027,-1.76521,-0.263702,2.12297,-0.192184,0.232082,0,0,3.36157,0
1777225966756,-0.17969,-1.73718,-0.325982,1.95108,-0.0938426,0.257664,0,0,3.3597,0
1777225966769,-0.20829,-1.70744,-0.379927,1.76955,0.0661362,0.20701,0,0,3.46635,0
1777225966783,-0.150023,-1.71092,-0.422966,1.55286,0.217976,0.0998363,0,0,3.37498,0
1777225966796,-0.0433262,-1.70542,-0.449911,1.29,0.296927,0.0172046,0,0,3.39524,0
1777225966810,0.0503078,-1.67945,-0.454646,1.01625,0.292795,-0.00084096,0,0,3.36146,0
1777225966823,0.0767508,-1.62701,-0.427679,0.752343,0.246261,0.0215638,0,0,3.39348,0
1777225966837,0.0444387,-1.5607,-0.380683,0.516228,0.210166,0.0299928,0,0,3.46283,0
1777225966850,-0.0167522,-1.48993,-0.317296,0.307925,0.214439,0.000604654,0,0,3.4,0
1777225966864,-0.0754132,-1.42592,-0.236943,0.129505,0.253737,-0.0346742,0,0,3.48436,0
1777225966877,-0.15073,-1.32739,0.0127885,0.0330226,0.294756,0.0423389,0,0,3.39233,0
1777225966891,-0.233977,-1.32643,0.343564,0.0320608,0.399866,0.145142,0,0,3.44833,0
1777225966904,-0.229944,-1.48924,0.22909,-0.328105,0.505016,-0.0299513,0,0,3.39133,0
1777225966918,-0.209134,-1.37156,0.0938938,-0.598179,0.58993,-0.138623,0,0,3.43264,0
1777225966931,-0.167356,-1.19745,0.141296,-0.541612,0.613873,-0.0825679,0,0,3.41035,0
1777225966945,-0.0777744,-1.20418,0.155138,-0.532527,0.531892,-0.0746717,0,0,3.4366,0
1777225966958,-0.0648555,-1.21952,0.153483,-0.588772,0.445584,-0.0485878,0,0,3.55792,0
1777225966972,-0.095108,-1.15469,0.166072,-0.633582,0.423216,0.0380089,0,0,3.52284,0
1777225966986,-0.0849559,-1.09631,0.174848,-0.629766,0.418927,0.0399693,0,0,3.47118,0
1777225966999,-0.0655893,-1.05409,0.181759,-0.574742,0.40651,0.0210813,0,0,3.53003,0
1777225967013,-0.0331072,-1.07369,0.199116,-0.554957,0.379954,0.0726568,0,0,3.49742,0
1777225967027,-0.00715746,-1.08576,0.210776,-0.59179,0.312456,0.164326,0,0,3.55083,0
1777225967040,-0.0313724,-1.04525,0.192652,-0.62055,0.214769,0.253312,0,0,3.47354,0
1777225967054,-0.0957315,-1.00448,0.159673,-0.598575,0.135259,0.283218,0,0,3.49394,0
1777225967068,-0.15962,-0.983555,0.150697,-0.550059,0.0939246,0.238891,0,0,3.46944,0
1777225967081,-0.188935,-0.988006,0.148211,-0.519401,0.0803825,0.166302,0,0,3.49668,0
1777225967095,-0.191384,-0.986852,0.142354,-0.50534,0.0641482,0.114628,0,0,3.40339,0
1777225967108,-0.193446,-0.969893,0.132024,-0.481015,0.0520447,0.0821774,0,0,3.50341,0
1777225967122,-0.204437,-0.954654,0.126691,-0.431139,0.0573909,0.0431631,0,0,3.41411,0
1777225967135,-0.215653,-0.961916,0.122768,-0.390275,0.0837545,-0.00300019,0,0,3.51069,0
1777225967149,-0.212683,-0.968189,0.118944,-0.363384,0.123421,-0.0349556,0,0,3.44611,0
1777225967163,-0.188517,-0.970837,0.111024,-0.341052,0.152139,-0.0433663,0,0,3.56677,0
1777225967176,-0.167987,-0.964321,0.103986,-0.31781,0.157024,-0.030846,0,0,3.47939,0
1777225967190,-0.167051,-0.957666,0.100836,-0.289905,0.153411,-0.007677,0,0,3.37432,0
1777225967203,-0.180009,-0.953561,0.097811,-0.266232,0.159903,0.00498927,0,0,3.45761,0
1777225967217,-0.191419,-0.949353,0.0958281,-0.23859,0.176637,0.00389055,0,0,3.40282,0
1777225967230,-0.195375,-0.947598,0.0921763,-0.211878,0.196498,-0.00157976,0,0,3.49772,0
1777225967244,-0.195366,-0.946589,0.0899064,-0.181782,0.214308,-0.00576939,0,0,3.42476,0
1777225967257,-0.194845,-0.948609,0.0887078,-0.156256,0.227801,-0.0131284,0,0,3.43854,0
1777225967271,-0.19896,-0.950651,0.0891471,-0.134132,0.243308,-0.0222762,0,0,3.47148,0
1777225967284,-0.196517,-0.956768,0.0853139,-0.118837,0.261522,-0.0297086,0,0,3.35795,0
1777225967298,-0.187961,-0.960181,0.0857178,-0.109133,0.272693,-0.0315001,0,0,3.4825,0
1777225967312,-0.179632,-0.963755,0.0820149,-0.103641,0.275171,-0.0251941,0,0,3.40711,0
1777225967325,-0.177323,-0.96348,0.0787034,-0.0997775,0.271663,-0.0180435,0,0,3.49805,0
1777225967339,-0.183973,-0.961891,0.07541,-0.0984278,0.266907,-0.0157996,0,0,3.41171,0
1777225967352,-0.19351,-0.958484,0.076379,-0.0969723,0.26227,-0.0223393,0,0,3.48983,0
1777225967366,-0.205844,-0.956619,0.0754509,-0.0961664,0.257057,-0.0360716,0,0,3.55291,0
1777225967380,-0.216134,-0.954775,0.0760285,-0.0967163,0.252395,-0.054538,0,0,3.43132,0
1777225967393,-0.221562,-0.954301,0.0734415,-0.100304,0.24365,-0.0741125,0,0,3.45885,0
1777225967407,-0.221063,-0.955465,0.0729648,-0.108103,0.228499,-0.0943431,0,0,3.38436,0
1777225967420,-0.21442,-0.960497,0.070299,-0.12057,0.20352,-0.112296,0,0,3.48809,0
1777225967434,-0.204953,-0.963289,0.0661185,-0.135793,0.176,-0.124483,0,0,3.388,0
1777225967447,-0.191522,-0.965585,0.0589178,-0.149369,0.148906,-0.131281,0,0,3.492,0
1777225967461,-0.173459,-0.96848,0.0539207,-0.160454,0.123694,-0.13463,0,0,3.4703,0
1777225967474,-0.153851,-0.972858,0.0487134,-0.169348,0.0951901,-0.133184,0,0,3.48817,0
1777225967488,-0.139432,-0.977111,0.0414578,-0.176441,0.0667551,-0.125503,0,0,3.46237,0
1777225967502,-0.135053,-0.978583,0.036799,-0.181284,0.0442679,-0.11582,0,0,3.39023,0
1777225967515,-0.135498,-0.980761,0.0333975,-0.185001,0.0261902,-0.111084,0,0,3.46737,0
1777225967529,-0.138361,-0.984326,0.0323103,-0.192565,0.00984042,-0.109707,0,0,3.40002,0
1777225967542,-0.14104,-0.986456,0.0282778,-0.204618,-0.00611263,-0.108509,0,0,3.52339,0
1777225967556,-0.143945,-0.986889,0.0248089,-0.218301,-0.0221676,-0.10919,0,0,3.39552,0
1777225967569,-0.147143,-0.988617,0.0205424,-0.233012,-0.0384476,-0.111539,0,0,3.48398,0
1777225967583,-0.14474,-0.991372,0.0162912,-0.249507,-0.0548386,-0.114883,0,0,3.48128,0
1777225967596,-0.138439,-0.994761,0.0108629,-0.267325,-0.074821,-0.118395,0,0,3.37284,0
1777225967610,-0.137183,-0.994615,0.00521701,-0.284857,-0.0956969,-0.117492,0,0,3.46244,0
1777225967624,-0.142687,-0.991399,-0.00441413,-0.299747,-0.10761,-0.115633,0,0,3.41413,0
1777225967637,-0.148271,-0.989251,-0.0113928,-0.30965,-0.110209,-0.120025,0,0,3.51344,0
1777225967651,-0.151767,-0.98893,-0.021055,-0.31724,-0.105925,-0.12628,0,0,3.40821,0
1777225967664,-0.150299,-0.987011,-0.031889,-0.323654,-0.0924312,-0.130793,0,0,3.44378,0
1777225967678,-0.140241,-0.988079,-0.041038,-0.324686,-0.0776367,-0.139872,0,0,3.46063,0
1777225967691,-0.124657,-0.992578,-0.0495927,-0.324719,-0.068196,-0.147273,0,0,3.3693,0
1777225967705,-0.112026,-0.999411,-0.0588217,-0.322928,-0.0591964,-0.145284,0,0,3.46072,0
1777225967718,-0.100803,-1.00431,-0.0658694,-0.321282,-0.0533634,-0.1406,0,0,3.39054,0
1777225967732,-0.093021,-1.00905,-0.071538,-0.320865,-0.0481972,-0.135054,0,0,3.46385,0
1777225967745,-0.0901251,-1.01233,-0.0795159,-0.318825,-0.0418438,-0.127189,0,0,3.37673,0
1777225967759,-0.0916001,-1.01444,-0.082228,-0.315064,-0.0364856,-0.117479,0,0,3.42971,0
1777225967772,-0.0987359,-1.01627,-0.0871243,-0.31165,-0.0298448,-0.111067,0,0,3.4893,0
1777225967786,-0.11143,-1.02082,-0.0909572,-0.308576,-0.0150488,-0.10818,0,0,3.40473,0
1777225967800,-0.120199,-1.02808,-0.0959258,-0.307325,0.00963488,-0.105137,0,0,3.43904,0
1777225967813,-0.130966,-1.03702,-0.0973441,-0.30875,0.0314769,-0.0929322,0,0,3.37489,0
1777225967827,-0.130695,-1.04839,-0.103916,-0.313908,0.0624776,-0.0937921,0,0,3.47215,0
1777225967840,-0.133483,-1.05942,-0.105568,-0.322798,0.0970774,-0.101684,0,0,3.42693,0
1777225967854,-0.125127,-1.07285,-0.106231,-0.33676,0.13703,-0.106633,0,0,3.5325,0
1777225967867,-0.106547,-1.08938,-0.104104,-0.353559,0.170515,-0.110514,0,0,3.40715,0
1777225967881,-0.051649,-1.13876,-0.0911254,-0.361172,0.195722,-0.143177,0,0,3.50037,0
1777225967895,-0.0342586,-1.20203,-0.0737126,-0.39328,0.1659,-0.145294,0,0,3.4613,0
1777225967908,-0.0121142,-1.26253,-0.0560849,-0.484616,0.138378,-0.126765,0,0,3.38885,0
1777225967922,-0.0169843,-1.28179,-0.0439652,-0.596175,0.115251,-0.115943,0,0,3.4653,0
1777225967935,-0.035529,-1.27567,-0.0313835,-0.697996,0.104897,-0.110334,0,0,3.41017,0
1777225967949,-0.0563914,-1.28441,-0.0207171,-0.784144,0.104857,-0.107365,0,0,3.4895,0
1777225967962,-0.0757915,-1.30845,-0.00701667,-0.89082,0.120435,-0.0980458,0,0,3.38997,0
1777225967976,-0.0983295,-1.32648,0.00246557,-1.01379,0.156125,-0.0823919,0,0,3.4943,0
1777225967989,-0.111914,-1.32663,0.0113095,-1.13573,0.212687,-0.070123,0,0,3.34651,1
1777225968003,-0.10508,-1.31329,0.0396422,-1.24269,0.279377,-0.0733213,0,0,3.47963,1
1777225968017,-0.0855392,-1.32078,0.0692923,-1.34089,0.333119,-0.0898161,0,0,3.41964,5
1777225968030,-0.0612379,-1.34323,0.0985419,-1.45456,0.352854,-0.110903,0,0,3.4711,5
1777225968044,-0.0453506,-1.35328,0.13153,-1.58134,0.338485,-0.123589,0,0,3.44547,5
1777225968057,-0.0449724,-1.35881,0.152514,-1.70851,0.309921,-0.124391,0,0,3.46712,5
1777225968071,-0.0553893,-1.38079,0.143322,-1.84065,0.286041,-0.139766,0,0,3.47443,5
1777225968084,-0.0708357,-1.4343,0.0694551,-1.95077,0.256459,-0.217197,0,0,3.46766,5
1777225968098,-0.0931902,-1.44965,-0.00387945,-2.04254,0.20481,-0.3147,0,0,3.44319,5
1777225968112,-0.131033,-1.36981,-0.0662635,-2.11901,0.177164,-0.323764,0,0,3.46408,5
1777225968125,-0.171257,-1.26645,-0.129853,-2.18274,0.198374,-0.277093,0,0,3.39301,5
1777225968139,-0.194084,-1.19679,-0.195197,-2.16675,0.225019,-0.280733,0,0,3.48462,5
1777225968152,-0.210331,-1.12961,-0.258751,-2.10297,0.23819,-0.339962,0,0,3.39742,5
1777225968166,-0.224728,-1.05659,-0.315249,-2.01412,0.267703,-0.398009,0,0,3.4883,5
1777225968179,-0.209495,-0.977226,-0.365139,-1.89259,0.313124,-0.459448,0,0,3.4774,5
1777225968193,-0.148559,-0.893171,-0.392079,-1.72983,0.317069,-0.558713,0,0,3.43786,5
1777225968206,-0.070495,-0.81186,-0.407298,-1.5515,0.247799,-0.658113,0,0,3.43429,5
1777225968220,-0.0129483,-0.728684,-0.408575,-1.3634,0.122644,-0.715845,0,0,3.33503,5
1777225968233,0.00632358,-0.646496,-0.399582,-1.15207,-0.0136233,-0.724196,0,0,3.37353,5
1777225968247,-0.00921208,-0.570763,-0.383668,-0.92825,-0.129164,-0.702276,0,0,3.47462,5
1777225968261,-0.0388506,-0.501599,-0.360359,-0.70419,-0.210652,-0.669517,0,0,3.44166,5
1777225968274,-0.0674468,-0.435083,-0.335522,-0.482588,-0.262859,-0.63344,0,0,3.47234,5
1777225968288,-0.0849719,-0.36797,-0.315598,-0.261508,-0.30139,-0.594571,0,0,3.48488,5
1777225968301,-0.0909222,-0.298216,-0.300874,-0.0274909,-0.343398,-0.560909,0,0,3.48008,5
1777225968315,-0.0967961,-0.227937,-0.294556,0.22648,-0.394829,-0.539307,0,0,3.41601,5
1777225968329,-0.103086,-0.153504,-0.286111,0.501685,-0.453324,-0.525173,0,0,3.47156,5
1777225968342,-0.115915,-0.0831209,-0.27643,0.809496,-0.503126,-0.504349,0,0,3.40719,5
1777225968356,-0.133423,-0.0269345,-0.258888,1.09146,-0.529043,-0.462975,0,0,3.44191,5
1777225968369,-0.152388,-0.0128973,-0.204731,1.32644,-0.540208,-0.409261,0,0,3.37477,5
1777225968383,-0.173326,-0.0730958,-0.137795,1.52225,-0.540784,-0.359791,0,0,3.48632,5
1777225968396,-0.214025,-0.187356,-0.0830584,1.68542,-0.511366,-0.305437,0,0,3.41966,5
1777225968410,-0.258755,-0.286753,-0.0653252,1.8214,-0.430426,-0.235065,0,0,3.42519,5
1777225968423,-0.281665,-0.349213,-0.0620253,1.93472,-0.332823,-0.179386,0,0,3.4564,5
1777225968437,-0.269771,-0.38993,-0.0609619,2.02915,-0.268396,-0.172313,0,0,3.36001,5
1777225968450,-0.24767,-0.44986,-0.058623,2.10784,-0.238434,-0.173938,0,0,3.46827,5
1777225968464,-0.240578,-0.56318,-0.0527639,2.17342,-0.21872,-0.117785,0,0,3.40521,0
1777225968478,-0.241851,-0.700978,-0.0481274,2.22806,-0.198323,-0.0139558,0,0,3.51514,0
1777225968491,-0.229285,-0.812928,-0.0615387,2.2736,-0.194073,0.0641336,0,0,3.45375,0
1777225968505,-0.205087,-0.904946,-0.0829629,2.31155,-0.219361,0.0987245,0,0,3.46932,0
1777225968518,-0.186555,-1.01775,-0.104781,2.34318,-0.258056,0.141367,0,0,3.45514,0
1777225968532,-0.189157,-1.15169,-0.127746,2.36953,-0.283761,0.227539,0,0,3.38244,0
1777225968545,-0.196273,-1.28268,-0.154054,2.39149,-0.284852,0.315837,0,0,3.46527,0
1777225968559,-0.187235,-1.39384,-0.183716,2.40979,-0.279476,0.349762,0,0,3.38875,0
1777225968572,-0.165554,-1.50679,-0.211979,2.42504,-0.275047,0.34797,0,0,3.4813,0
1777225968586,-0.143159,-1.62667,-0.243048,2.41853,-0.262068,0.355815,0,0,3.46308,0
1777225968600,-0.134397,-1.72148,-0.289422,2.32773,-0.236736,0.376283,0,0,3.49032,0
1777225968613,-0.149952,-1.75751,-0.346383,2.18455,-0.194761,0.388328,0,0,3.37631,0
1777225968627,-0.199779,-1.7672,-0.413081,2.00315,-0.130316,0.395973,0,0,3.34958,0
1777225968640,-0.226247,-1.76738,-0.468964,1.78211,-0.00298612,0.380321,0,0,3.38062,0
1777225968654,-0.167028,-1.74344,-0.504324,1.52462,0.124674,0.3064,0,0,3.36605,0
1777225968667,-0.0416834,-1.71104,-0.513213,1.25802,0.170206,0.198081,0,0,3.38799,0
1777225968680,0.0749298,-1.6691,-0.490271,0.998274,0.11535,0.142218,0,0,3.35823,0
1777225968694,0.136187,-1.62491,-0.446867,0.751055,0.00065393,0.166543,0,0,3.47119,0
1777225968707,0.132525,-1.56467,-0.389654,0.51317,-0.116567,0.212742,0,0,3.35366,0
1777225968721,0.0953407,-1.48566,-0.330522,0.308048,-0.191083,0.219079,0,0,3.35549,0
1777225968734,0.0720319,-1.42761,-0.258206,0.148221,-0.223104,0.172388,0,0,3.38336,0
1777225968748,0.0943254,-1.34086,-0.0841387,0.0185175,-0.252815,0.099967,0,0,3.37525,0
1777225968761,0.0915472,-1.38142,0.384717,0.0337391,-0.257384,0.0688784,0,0,3.40716,0
1777225968775,0.0496928,-1.63467,0.167727,-0.38878,-0.296828,0.0497905,0,0,3.38408,0
1777225968789,0.0185977,-1.44866,0.0863646,-0.740879,-0.25153,0.0973063,0,0,3.50352,0
1777225968802,-0.0540834,-1.21781,0.101815,-0.680961,-0.164175,0.162335,0,0,3.40231,0
1777225968816,-0.0865919,-1.17489,0.125814,-0.622875,-0.0499426,0.0667045,0,0,3.3871,0
1777225968829,-0.0673636,-1.21564,0.116859,-0.668197,0.0719435,-0.0427081,0,0,3.41392,0
1777225968843,0.00691787,-1.17606,0.122243,-0.715279,0.129419,-0.0162517,0,0,3.41612,0
1777225968856,0.0942527,-1.12098,0.139882,-0.733712,0.0660167,0.0559862,0,0,3.43069,0
1777225968870,0.102326,-1.05475,0.147959,-0.680409,-0.0513983,0.139569,0,0,3.38562,0
1777225968883,0.0230512,-1.04593,0.164462,-0.631855,-0.12184,0.214959,0,0,3.41419,0
1777225968897,-0.0851228,-1.07662,0.176602,-0.661075,-0.105922,0.203598,0,0,3.54404,0
1777225968910,-0.142528,-1.05134,0.173856,-0.700998,-0.0378614,0.11352,0,0,3.49225,0
1777225968924,-0.107693,-1.02253,0.153874,-0.702778,-0.0074036,0.0189892,0,0,3.42618,0
1777225968938,-0.0476249,-1.01226,0.143248,-0.682633,-0.0613987,-0.0138576,0,0,3.50178,0
1777225968951,-0.0332419,-1.01055,0.127846,-0.658148,-0.130949,0.0305767,0,0,3.46278,0
1777225968965,-0.0600357,-1.00951,0.123,-0.644284,-0.171173,0.0592464,0,0,3.46503,0
1777225968978,-0.0918241,-1.00154,0.111038,-0.633901,-0.174845,0.0263186,0,0,3.44243,0
1777225968992,-0.101826,-0.988818,0.0965347,-0.609192,-0.146849,-0.0101289,0,0,3.50814,0
1777225969006,-0.0811371,-0.986431,0.0882536,-0.574174,-0.127667,-0.0217868,0,0,3.47649,0
1777225969019,-0.0608582,-0.988605,0.0826079,-0.547651,-0.134913,-0.0132702,0,0,3.47214,0
1777225969033,-0.0682488,-0.9866,0.0800225,-0.524544,-0.147046,0.0055573,0,0,3.40233,0
1777225969046,-0.088467,-0.98457,0.0685446,-0.507667,-0.14376,0.00328248,0,0,3.46464,0
1777225969060,-0.102096,-0.980297,0.0581932,-0.486504,-0.123807,-0.0188422,0,0,3.38176,0
1777225969073,-0.094562,-0.976942,0.0485302,-0.465216,-0.104127,-0.0364779,0,0,3.48731,0
1777225969087,-0.073447,-0.975122,0.0376955,-0.442095,-0.100729,-0.0345713,0,0,3.4005,0
1777225969100,-0.0576238,-0.97409,0.0285459,-0.416173,-0.10903,-0.0133132,0,0,3.46174,0
1777225969114,-0.0545345,-0.974223,0.0187038,-0.390768,-0.116978,0.0123789,0,0,3.46785,0
1777225969128,-0.060249,-0.972472,0.0113812,-0.365347,-0.119034,0.0300231,0,0,3.38933,0
1777225969141,-0.0668191,-0.970309,0.00405845,-0.336644,-0.114182,0.0406809,0,0,3.48433,0
1777225969155,-0.073392,-0.968044,-0.00352191,-0.303959,-0.101195,0.0485954,0,0,3.42057,0
1777225969168,-0.08045,-0.966014,-0.00846262,-0.268503,-0.0813394,0.0563358,0,0,3.50031,0
1777225969182,-0.089409,-0.968948,-0.0109828,-0.230763,-0.0522485,0.0629898,0,0,3.41444,0
1777225969196,-0.0957397,-0.971882,-0.0138466,-0.200241,-0.0196345,0.0650487,0,0,3.54975,0
1777225969209,-0.0990808,-0.974236,-0.0166225,-0.173305,0.0118949,0.0649325,0,0,3.41818,0
1777225969223,-0.0997295,-0.976473,-0.0194508,-0.150579,0.0378513,0.0676346,0,0,3.46894,0
1777225969236,-0.0990702,-0.976838,-0.0209091,-0.133879,0.057815,0.072011,0,0,3.4765,0
1777225969250,-0.0989483,-0.982078,-0.0221109,-0.123335,0.0761817,0.0751746,0,0,3.40677,0
1777225969264,-0.0994858,-0.984215,-0.0252133,-0.120629,0.0852405,0.0766658,0,0,3.48703,0
1777225969277,-0.0968318,-0.983978,-0.0254619,-0.124786,0.0800159,0.0693335,0,0,3.3999,0
1777225969291,-0.0960718,-0.985671,-0.0288627,-0.13381,0.0653441,0.0577397,0,0,3.54764,0
1777225969304,-0.0964093,-0.987431,-0.0296277,-0.145453,0.0470615,0.0477984,0,0,3.44198,0
1777225969318,-0.0951581,-0.991629,-0.0358254,-0.156299,0.0341925,0.0406208,0,0,3.43827,0
1777225969332,-0.089439,-0.997139,-0.0392439,-0.162056,0.0271833,0.0369168,0,0,3.48499,0
1777225969345,-0.0850205,-1.00122,-0.0422441,-0.166586,0.0210243,0.0399243,0,0,3.41153,0
1777225969359,-0.0827928,-1.00408,-0.047101,-0.171697,0.0185253,0.0449369,0,0,3.49053,0
1777225969372,-0.0876791,-1.00071,-0.050417,-0.172648,0.0206922,0.0495594,0,0,3.40148,0
1777225969386,-0.0961359,-0.99695,-0.054583,-0.16993,0.0276634,0.0465031,0,0,3.48946,0
1777225969400,-0.104701,-0.996451,-0.0571383,-0.165259,0.0383581,0.0352029,0,0,3.48098,0
1777225969413,-0.111622,-1.00078,-0.0616089,-0.166698,0.0506165,0.0230508,0,0,3.48629,0
1777225969427,-0.109042,-1.00174,-0.0647504,-0.176384,0.0614044,0.0135092,0,0,3.46922,0
1777225969440,-0.105097,-1.00199,-0.0709204,-0.186312,0.0628242,0.00616865,0,0,3.45851,0
1777225969454,-0.100835,-1.00369,-0.0722558,-0.193021,0.0561703,-0.000495593,0,0,3.47214,0
1777225969468,-0.103247,-1.00945,-0.0742196,-0.198611,0.049633,-0.00697788,0,0,3.38496,0
1777225969481,-0.110199,-1.02091,-0.0770184,-0.209823,0.0502922,-0.0194536,0,0,3.47716,0
1777225969495,-0.112986,-1.03382,-0.0782259,-0.228427,0.0576099,-0.0378271,0,0,3.47974,0
1777225969508,-0.10791,-1.04358,-0.0808506,-0.251463,0.0668377,-0.0547032,0,0,3.50105,0
1777225969522,-0.0995773,-1.05216,-0.0825183,-0.273649,0.0702019,-0.0642883,0,0,3.40376,0
1777225969536,-0.0929221,-1.06571,-0.0864434,-0.296387,0.0668604,-0.0678739,0,0,3.44081,0
1777225969549,-0.0946397,-1.07774,-0.0866662,-0.323172,0.0624473,-0.0658364,0,0,3.47114,0
1777225969563,-0.106619,-1.0896,-0.0853155,-0.351868,0.0685025,-0.063655,0,0,3.36035,0
1777225969576,-0.115797,-1.12199,-0.10692,-0.383032,0.0976834,-0.0815064,0,0,3.48127,0
1777225969590,-0.0990581,-1.11647,-0.0979783,-0.424028,0.1298,-0.13296,0,0,3.41342,0
1777225969603,-0.116761,-1.11795,-0.111158,-0.466537,0.156055,-0.0961055,0,0,3.49925,0
1777225969617,-0.0715839,-1.1376,-0.108897,-0.48686,0.195554,-0.10748,0,0,3.40307,0
1777225969630,-0.0666228,-1.15502,-0.103394,-0.50704,0.182568,-0.118345,0,0,3.49179,0
1777225969644,-0.0646318,-1.18693,-0.103925,-0.536795,0.192254,-0.0997787,0,0,3.47431,0
1777225969657,-0.0725546,-1.22372,-0.0924499,-0.581146,0.222069,-0.0838486,0,0,3.39861,0
1777225969671,-0.0875728,-1.25015,-0.0781762,-0.647087,0.264154,-0.0733853,0,0,3.48835,0
1777225969685,-0.105084,-1.26554,-0.0666843,-0.712916,0.328246,-0.0626684,0,0,3.41685,0
1777225969698,-0.117746,-1.28006,-0.0505297,-0.782799,0.407075,-0.0564985,0,0,3.55575,0
1777225969712,-0.120439,-1.29267,-0.0328685,-0.86975,0.487155,-0.0617767,0,0,3.4149,0
1777225969725,-0.133941,-1.31127,-0.0263175,-0.971522,0.56207,-0.0654882,0,0,3.48657,0
1777225969739,-0.125621,-1.29982,0.00835687,-1.06928,0.627564,-0.0695226,0,0,3.46514,0
1777225969753,-0.138504,-1.32597,0.0323816,-1.16316,0.677372,-0.0752129,0,0,3.46053,0
1777225969766,-0.13962,-1.36322,0.0732833,-1.2801,0.70893,-0.0840642,0,0,3.49264,0
1777225969780,-0.141007,-1.40081,0.110532,-1.43401,0.715406,-0.0996209,0,0,3.39531,0
1777225969793,-0.147874,-1.40574,0.128203,-1.60864,0.70051,-0.122407,0,0,3.50329,0
1777225969807,-0.164098,-1.40864,0.100853,-1.75743,0.686354,-0.156802,0,0,3.47279,0
1777225969821,-0.167471,-1.42621,0.0288826,-1.88142,0.663883,-0.214154,0,0,3.50844,0
1777225969834,-0.167762,-1.44102,-0.0472127,-1.98474,0.620284,-0.275001,0,0,3.42276,0
1777225969848,-0.161194,-1.39673,-0.0953611,-2.07085,0.566509,-0.296649,0,0,3.44359,0
1777225969861,-0.159706,-1.31569,-0.148393,-2.1426,0.524101,-0.26451,0,0,3.47435,0
1777225969875,-0.152495,-1.24717,-0.190575,-2.16216,0.485046,-0.220412,0,0,3.3937,0
1777225969888,-0.156528,-1.17856,-0.230063,-2.13136,0.446126,-0.19369,0,0,3.47309,0
1777225969902,-0.156878,-1.10745,-0.266953,-2.08162,0.443362,-0.223889,0,0,3.48722,0
1777225969916,-0.122243,-1.01875,-0.302681,-2.01061,0.438069,-0.322185,0,0,3.4787,0
1777225969929,-0.04829,-0.899369,-0.333959,-1.89939,0.387526,-0.435663,0,0,3.39255,0
1777225969943,0.0391456,-0.77011,-0.355614,-1.72503,0.269656,-0.514566,0,0,3.46096,0
1777225969956,0.0959495,-0.659878,-0.364023,-1.49675,0.0991404,-0.531884,0,0,3.45309,0
1777225969970,0.0985551,-0.573888,-0.356365,-1.24361,-0.066327,-0.490107,0,0,3.99954,0
1777225969984,0.0628871,-0.506211,-0.33688,-0.992908,-0.179496,-0.426667,0,0,3.46874,0
1777225969998,0.0175708,-0.439023,-0.315716,-0.757678,-0.237201,-0.381243,0,0,3.38529,0
1777225970011,-0.00925925,-0.367627,-0.298852,-0.522136,-0.259691,-0.368567,0,0,3.45863,0
1777225970025,-0.01383,-0.302904,-0.288458,-0.275584,-0.270047,-0.375002,0,0,3.40243,0
1777225970039,-0.00386816,-0.249573,-0.284998,-0.0203023,-0.284505,-0.383036,0,0,4.57129,0
1777225970053,0.0142072,-0.198059,-0.282381,0.233921,-0.31448,-0.384604,0,0,3.39036,0
1777225970069,0.0297398,-0.149922,-0.272774,0.50669,-0.363924,-0.381228,0,0,4.54705,0
1777225970082,0.0315796,-0.111571,-0.261955,0.806707,-0.413931,-0.367156,0,0,3.40048,0
1777225970097,0.0200831,-0.0733837,-0.254106,1.08914,-0.448289,-0.334195,0,0,4.18732,0
1777225970110,0.00598361,-0.0529362,-0.241597,1.3245,-0.464032,-0.295099,0,0,3.46245,0
1777225970124,-0.00941074,-0.0799658,-0.195766,1.52063,-0.468487,-0.257684,0,0,3.37932,0
1777225970137,-0.0322349,-0.180677,-0.151921,1.68408,-0.459057,-0.216225,0,0,3.4787,0
1777225970151,-0.061896,-0.301673,-0.13454,1.82028,-0.427243,-0.161231,0,0,3.39852,0
1777225970166,-0.0811176,-0.393147,-0.145411,1.93378,-0.378173,-0.120708,0,0,3.4778,0
1777225970179,-0.0795329,-0.457062,-0.168041,2.02837,-0.345882,-0.121137,0,0,3.40204,0
1777225970193,-0.0746825,-0.520757,-0.181157,2.10719,-0.336479,-0.126024,0,0,3.42367,0
1777225970206,-0.0879082,-0.618783,-0.177682,2.17287,-0.325654,-0.0822081,0,0,3.50307,0
1777225970220,-0.107337,-0.766755,-0.17,2.22761,-0.297091,-0.00480445,0,0,4.07728,0
1777225970235,-0.10648,-0.874992,-0.178579,2.27323,-0.27755,0.0293805,0,0,3.46315,0
1777225970248,-0.0834728,-0.933448,-0.192977,2.31124,-0.283964,0.0206161,0,0,3.38265,0
1777225970262,-0.0590899,-0.98121,-0.199784,2.34291,-0.314346,0.0309714,0,0,3.46535,0
1777225970275,-0.0485366,-1.0563,-0.189414,2.36931,-0.364143,0.094092,0,0,3.40373,0
1777225970290,-0.0603819,-1.16952,-0.173688,2.39131,-0.416672,0.178359,0,0,3.47172,0
1777225970303,-0.0905162,-1.26992,-0.169234,2.40964,-0.445369,0.248429,0,0,3.3886,0
1777225970317,-0.103232,-1.34692,-0.175212,2.41291,-0.451039,0.27976,0,0,3.46176,0
1777225970330,-0.0865722,-1.42481,-0.1814,2.39371,-0.462571,0.282115,0,0,3.34354,0
1777225970344,-0.053931,-1.5044,-0.194011,2.33028,-0.497956,0.295007,0,0,3.62624,0
1777225970357,-0.0348565,-1.55754,-0.211716,2.22821,-0.555663,0.339198,0,0,3.38026,0
1777225970371,-0.0611158,-1.59143,-0.240567,2.09767,-0.61332,0.399815,0,0,3.35619,0
1777225970384,-0.124226,-1.6066,-0.275301,1.942,-0.623428,0.453828,0,0,3.39363,0
1777225970398,-0.175094,-1.61626,-0.317425,1.759,-0.561241,0.460964,0,0,3.34504,0
1777225970411,-0.16045,-1.61513,-0.366481,1.54223,-0.48335,0.404722,0,0,3.4743,0
1777225970425,-0.102245,-1.59031,-0.411067,1.31756,-0.434814,0.334812,0,0,3.35067,0
1777225970439,-0.0454371,-1.57172,-0.44328,1.09679,-0.426658,0.305804,0,0,4.24002,0
1777225970452,-0.0277392,-1.56423,-0.45291,0.852048,-0.438284,0.297763,0,0,3.34395,0
1777225970466,-0.0448989,-1.53122,-0.441292,0.597814,-0.435517,0.273518,0,0,3.39921,0
1777225970479,-0.069674,-1.48145,-0.411034,0.370532,-0.406124,0.226697,0,0,3.38254,0
1777225970493,-0.0693399,-1.42715,-0.372602,0.172593,-0.371414,0.17212,0,0,3.36063,0
1777225970506,-0.0522241,-1.37028,-0.289883,0.00582518,-0.358735,0.133943,0,0,3.37954,0
1777225970520,-0.0569562,-1.27259,0.0931303,-0.0415579,-0.351414,0.161301,0,0,3.45539,0
1777225970534,0.0080718,-1.38697,0.305994,-0.0594662,-0.278812,0.106148,0,0,4.13878,0
1777225970548,-0.00441274,-1.44594,0.192804,-0.466451,-0.305817,0.0409627,0,0,3.37958,0
1777225970562,-0.042051,-1.30009,0.0273223,-0.606673,-0.23813,0.125357,0,0,4.31283,0
1777225970576,-0.0328744,-1.15821,0.130403,-0.514594,-0.210922,0.195927,0,0,3.36499,0
1777225970589,-0.0510946,-1.21792,0.119717,-0.561971,-0.176914,0.150957,0,0,3.36169,0
1777225970603,-0.0689407,-1.20519,0.11102,-0.6228,-0.0878733,0.146612,0,0,3.46809,0
1777225970616,-0.0385585,-1.12954,0.132261,-0.65087,-0.0195764,0.16967,0,0,3.5227,0
1777225970631,0.0071873,-1.07898,0.137063,-0.622328,-0.0233111,0.165997,0,0,4.53497,0
1777225970645,0.00730186,-1.05506,0.145447,-0.567551,-0.0562962,0.197466,0,0,3.38484,0
1777225970658,-0.0193975,-1.07171,0.166431,-0.569588,-0.0817608,0.231832,0,0,3.36899,0
1777225970671,-0.0481121,-1.06104,0.175899,-0.603333,-0.0993681,0.217443,0,0,3.39113,0
1777225970685,-0.0598526,-1.02652,0.17688,-0.616505,-0.11268,0.183124,0,0,3.36078,0
