timestamp,ax,ay,az,gx,gy,gz,roll_k,pitch_k,delay_ms,classe_prevista
1777158797285,0.0909577,0.659729,0.0584612,0.042846,-0.149078,0.168559,0,0,3.27613,-1
1777158797299,0.112113,0.789161,0.0687722,0.0338188,-0.0767016,0.0627595,0,0,3.27259,-1
1777158797312,0.119267,0.847294,0.0755988,0.0298866,-0.048568,0.0244791,0,0,3.26985,-1
1777158797326,0.122903,0.883279,0.0791676,0.0296151,-0.0317655,0.00469414,0,0,3.26213,-1
1777158797339,0.122679,0.903471,0.0775816,0.0301571,-0.0187732,-0.00800769,0,0,3.27263,-1
1777158797352,0.123517,0.918615,0.0778635,0.028904,-0.00766315,-0.0175196,0,0,3.24467,-1
1777158797369,0.12506,0.930782,0.0780746,0.0281829,0.00197759,-0.0241676,0,0,3.27891,-1
1777158797382,0.12548,0.939396,0.0784342,0.0269634,0.0090532,-0.0296205,0,0,3.25439,-1
1777158797396,0.124923,0.94581,0.077605,0.0240017,0.0134283,-0.0337432,0,0,3.76567,-1
1777158797410,0.124288,0.950946,0.0780407,0.0206612,0.0150902,-0.0358721,0,0,3.45226,-1
1777158797423,0.121837,0.955978,0.0793814,0.0171718,0.0160832,-0.0353721,0,0,3.25271,-1
1777158797436,0.120157,0.959894,0.0791366,0.0134686,0.018826,-0.0328893,0,0,3.27026,-1
1777158797450,0.117386,0.963479,0.0796378,0.0103047,0.0219244,-0.0307297,0,0,3.26335,-1
1777158797463,0.115458,0.966866,0.0804981,0.00758803,0.026351,-0.0283662,0,0,3.25539,-1
1777158797476,0.114271,0.970988,0.0814658,0.00631281,0.0318391,-0.0257158,0,0,3.26069,-1
1777158797490,0.113908,0.972919,0.0815746,0.00585602,0.0382488,-0.0240027,0,0,3.25574,-1
1777158797503,0.114837,0.973537,0.080721,0.00465894,0.0427955,-0.0237289,0,0,3.2603,-1
1777158797517,0.115248,0.974103,0.0807004,0.0023238,0.0441017,-0.0244836,0,0,3.25096,-1
1777158797530,0.115051,0.975891,0.0812343,-0.000651936,0.0438119,-0.0249458,0,0,3.24709,-1
1777158797543,0.115205,0.976563,0.0825058,-0.0039956,0.0422457,-0.0255218,0,0,3.26019,-1
1777158797557,0.116276,0.978276,0.0822813,-0.0082955,0.0397954,-0.0272367,0,0,3.24874,-1
1777158797570,0.11827,0.97918,0.0825711,-0.0122845,0.0364558,-0.0307529,0,0,3.25121,-1
1777158797583,0.119159,0.979802,0.0825643,-0.0166003,0.0327446,-0.0364443,0,0,3.24904,-1
1777158797597,0.119898,0.980244,0.0827196,-0.0211887,0.0284309,-0.0433749,0,0,3.23954,-1
1777158797610,0.119218,0.981015,0.0834988,-0.0253045,0.0243658,-0.0508039,0,0,3.25374,-1
1777158797623,0.118725,0.981426,0.0839172,-0.0293447,0.0200116,-0.0583301,0,0,3.25117,-1
1777158797637,0.118361,0.981783,0.083926,-0.0334238,0.0145256,-0.06651,0,0,3.24082,-1
1777158797650,0.117144,0.981738,0.0844488,-0.0379807,0.00854189,-0.0754638,0,0,3.25595,-1
1777158797664,0.117246,0.982247,0.0846129,-0.0418034,0.00176166,-0.0849226,0,0,3.24919,-1
1777158797677,0.116273,0.982045,0.0858496,-0.0460068,-0.00644572,-0.0948786,0,0,3.73461,0
1777158797691,0.11501,0.982094,0.087245,-0.051189,-0.0156643,-0.104689,0,0,3.48739,0
1777158797705,0.11121,0.984133,0.0886816,-0.0559273,-0.024784,-0.114124,0,0,3.617,0
1777158797718,0.106946,0.98587,0.0902183,-0.0590234,-0.0316331,-0.123017,0,0,3.47971,0
1777158797732,0.102858,0.98844,0.0924856,-0.0599623,-0.0358011,-0.131382,0,0,3.47785,0
1777158797746,0.0980864,0.990317,0.094454,-0.0589889,-0.0363483,-0.139638,0,0,3.52285,0
1777158797759,0.0941045,0.990564,0.0954551,-0.0576307,-0.0345905,-0.147815,0,0,3.38202,0
1777158797773,0.0921274,0.991067,0.0980295,-0.0559645,-0.0309119,-0.156462,0,0,3.5056,0
1777158797786,0.0909578,0.991505,0.100554,-0.051319,-0.0277828,-0.166657,0,0,3.42622,0
1777158797800,0.0886554,0.991176,0.103357,-0.0463409,-0.0259004,-0.178703,0,0,3.49828,0
1777158797814,0.0867852,0.991792,0.103925,-0.0398134,-0.0253369,-0.192596,0,0,3.44745,0
1777158797827,0.084518,0.9903,0.107732,-0.0327452,-0.0257833,-0.208868,0,0,3.51493,0
1777158797841,0.0822278,0.993348,0.109557,-0.0235345,-0.0270459,-0.226296,0,0,3.48239,0
1777158797854,0.0777622,0.997699,0.112171,-0.0127927,-0.0277927,-0.245132,0,0,3.47211,0
1777158797868,0.0744319,1.00058,0.112414,0.000827937,-0.0296364,-0.265384,0,0,3.49928,0
1777158797882,0.071251,1.00246,0.113139,0.0144304,-0.0339209,-0.287273,0,0,3.44961,0
1777158797895,0.0689397,1.00729,0.115925,0.0284376,-0.0398196,-0.310335,0,0,3.49869,4
1777158797909,0.0631367,1.01707,0.118601,0.0464588,-0.0449387,-0.334147,0,0,3.41895,4
1777158797922,0.056908,1.03049,0.122918,0.0702933,-0.0476652,-0.358532,0,0,3.5368,4
1777158797936,0.0515966,1.04558,0.128308,0.0996719,-0.0494666,-0.386016,0,0,3.44143,4
1777158797950,0.043575,1.06245,0.133245,0.132971,-0.0507768,-0.415573,0,0,3.49293,4
1777158797963,0.0312699,1.0806,0.140909,0.169715,-0.0496296,-0.442621,0,0,3.49802,4
1777158797977,0.0235461,1.09536,0.150555,0.208859,-0.0426302,-0.460671,0,0,3.4005,4
1777158797990,0.00455061,1.12272,0.148056,0.261187,-0.0442148,-0.470711,0,0,3.50004,4
1777158798004,-0.0572393,1.19438,0.145436,0.328966,-0.039123,-0.502756,0,0,3.39767,4
1777158798018,-0.108924,1.15647,0.221306,0.386136,0.0333008,-0.540859,0,0,3.84613,4
1777158798031,-0.111075,1.19145,0.189892,0.457696,0.114277,-0.546212,0,0,3.54132,4
1777158798045,-0.129639,1.19858,0.207078,0.524149,0.187598,-0.54421,0,0,3.52178,4
1777158798059,-0.128159,1.20723,0.213216,0.595544,0.262311,-0.552439,0,0,3.55187,4
1777158798073,-0.134306,1.21794,0.21623,0.671121,0.34573,-0.570939,0,0,3.6093,4
1777158798086,-0.1325,1.23082,0.2192,0.755552,0.430805,-0.582996,0,0,3.52995,4
1777158798100,-0.114751,1.22891,0.221875,0.841815,0.506613,-0.58541,0,0,3.45626,4
1777158798113,-0.0905571,1.23163,0.191222,0.919719,0.563869,-0.590081,0,0,3.50184,4
1777158798127,-0.0631817,1.24273,0.174582,0.994168,0.609967,-0.604126,0,0,3.50852,4
1777158798141,-0.0352314,1.24884,0.166214,1.06365,0.633841,-0.645054,0,0,3.51659,4
1777158798154,-0.00304995,1.29538,0.0865636,1.15891,0.629396,-0.703092,0,0,3.44243,4
1777158798168,0.0146602,1.31749,0.0445616,1.26331,0.59755,-0.762793,0,0,3.47072,4
1777158798181,0.0172646,1.33617,-0.0286132,1.34541,0.567997,-0.815635,0,0,3.49415,4
1777158798195,0.00977775,1.33507,-0.0747086,1.42467,0.574425,-0.876159,0,0,3.40297,4
1777158798209,0.015567,1.3201,-0.100027,1.48597,0.613675,-0.945171,0,0,3.53476,5
1777158798223,0.0459446,1.30948,-0.121205,1.55295,0.64039,-0.99352,0,0,3.65221,5
1777158798236,0.0811984,1.27134,-0.14014,1.64963,0.629651,-1.00877,0,0,3.54724,5
1777158798250,0.0999355,1.18269,-0.171249,1.72116,0.601834,-0.995479,0,0,3.46719,5
1777158798263,0.0819086,1.07545,-0.209551,1.72823,0.597711,-0.969082,0,0,3.4788,5
1777158798277,0.0552546,0.953521,-0.230742,1.66286,0.642253,-0.916907,0,0,3.52956,5
1777158798291,0.039448,0.82414,-0.231961,1.52347,0.726102,-0.821926,0,0,4.3351,5
1777158798305,0.0240836,0.711775,-0.22607,1.3211,0.83268,-0.69761,0,0,3.52474,5
1777158798319,0.0205239,0.640244,-0.207861,1.09949,0.947895,-0.564828,0,0,3.41971,5
1777158798332,0.047385,0.570675,-0.177543,0.869815,1.03837,-0.425703,0,0,3.53574,5
1777158798346,0.0986635,0.506349,-0.155273,0.632556,1.06955,-0.27848,0,0,3.47472,5
1777158798359,0.141673,0.425662,-0.158233,0.371926,1.03785,-0.138543,0,0,3.53739,5
1777158798373,0.14176,0.317324,-0.202368,0.0429156,0.984764,-0.0191671,0,0,3.45324,5
1777158798387,0.114618,0.228989,-0.246897,-0.371743,0.961795,0.0973862,0,0,3.52537,5
1777158798400,0.0791179,0.16793,-0.186502,-0.726682,0.993086,0.225634,0,0,3.51085,5
1777158798414,0.0657003,0.163366,-0.0810786,-1.02246,1.07146,0.363804,0,0,3.49472,5
1777158798428,0.115177,0.271747,0.0883719,-1.26895,1.11102,0.482725,0,0,3.54087,5
1777158798441,0.236792,0.443991,0.114593,-1.47435,1.03015,0.587894,0,0,3.43634,5
1777158798455,0.288013,0.489945,0.145369,-1.64552,0.876917,0.68897,0,0,3.54724,5
1777158798468,0.239089,0.517908,0.113537,-1.78817,0.787558,0.749613,0,0,3.45097,5
1777158798482,0.159198,0.55113,0.118651,-1.90703,0.824759,0.761102,0,0,3.55474,5
1777158798496,0.171388,0.633668,0.130876,-2.00609,0.916879,0.784837,0,0,3.489,5
1777158798509,0.242037,0.743389,0.153619,-2.08864,0.960835,0.862173,0,0,3.49902,5
1777158798523,0.269692,0.817869,0.170245,-2.15743,0.964665,0.950183,0,0,3.90524,5
1777158798537,0.254807,0.886587,0.182299,-2.21475,1.00354,1.00623,0,0,3.50241,5
1777158798551,0.256748,0.980996,0.19952,-2.26252,1.07849,1.039,0,0,3.5675,5
1777158798564,0.296234,1.08172,0.218011,-2.30233,1.13838,1.08081,0,0,3.49106,5
1777158798578,0.347181,1.17528,0.223095,-2.3355,1.16155,1.13687,0,0,3.55924,5
1777158798592,0.387169,1.27087,0.212035,-2.35265,1.15726,1.18376,0,0,3.479,5
1777158798605,0.4086,1.36817,0.179622,-2.33269,1.13726,1.20206,0,0,3.5881,5
1777158798619,0.415947,1.45529,0.144628,-2.27362,1.11208,1.19634,0,0,3.51585,5
1777158798633,0.41779,1.54087,0.0943313,-2.16417,1.06994,1.17116,0,0,3.57721,5
1777158798646,0.413985,1.59523,0.0224479,-2.00745,0.996744,1.13136,0,0,3.55856,1
1777158798660,0.377288,1.61617,-0.0659898,-1.82642,0.895213,1.08361,0,0,3.40022,1
1777158798674,0.296171,1.62624,-0.156221,-1.6286,0.797881,1.02155,0,0,3.53719,1
1777158798687,0.177294,1.63502,-0.232986,-1.39996,0.742534,0.934056,0,0,3.44604,1
1777158798701,0.0814809,1.63914,-0.299797,-1.13156,0.734275,0.830772,0,0,3.55737,1
1777158798715,0.0250924,1.62843,-0.337213,-0.841388,0.741578,0.730223,0,0,3.52169,1
1777158798729,0.00431674,1.61138,-0.349721,-0.547391,0.739559,0.632985,0,0,3.95619,1
1777158798742,-0.00262205,1.58663,-0.3231,-0.269047,0.727482,0.529943,0,0,3.5561,1
1777158798756,-0.00967598,1.53654,-0.270904,-0.0170051,0.720612,0.423286,0,0,4.00915,1
1777158798770,-0.00566635,1.43583,-0.0653406,0.158246,0.727851,0.330181,0,0,3.5606,1
1777158798784,0.0813,1.33918,0.28477,0.287877,0.729201,0.294731,0,0,3.48109,1
1777158798797,0.136184,1.36346,0.203491,0.517468,0.653597,0.269362,0,0,3.49152,1
1777158798811,0.124544,1.31225,0.0744998,0.63976,0.537336,0.245881,0,0,3.47587,1
1777158798825,0.113891,1.29662,0.0941839,0.669685,0.459001,0.20588,0,0,3.54998,1
1777158798838,0.124942,1.27326,0.152711,0.76956,0.399435,0.140244,0,0,3.57526,1
1777158798852,0.132928,1.21116,0.152856,0.88177,0.319745,0.0761955,0,0,3.89158,1
1777158798866,0.141181,1.12556,0.153464,0.89874,0.230589,0.0599975,0,0,3.47976,1
1777158798880,0.172346,1.07185,0.128769,0.854179,0.197081,0.10225,0,0,3.87647,1
1777158798894,0.173089,1.07165,0.116916,0.80805,0.186804,0.133694,0,0,3.58422,1
1777158798907,0.190173,1.0817,0.127279,0.77709,0.175276,0.104529,0,0,3.5253,1
1777158798921,0.208158,1.06595,0.129745,0.749356,0.164778,0.0454535,0,0,3.5703,1
1777158798934,0.202251,1.02834,0.133946,0.71786,0.176247,0.000740488,0,0,3.55789,1
1777158798948,0.203042,1.01009,0.138268,0.677797,0.185333,-0.0203498,0,0,3.59678,1
1777158798962,0.211063,1.00944,0.139222,0.638979,0.173083,-0.0318564,0,0,3.52845,1
1777158798976,0.204999,1.00575,0.135128,0.600854,0.148816,-0.0465597,0,0,4.19802,4
1777158798990,0.185706,1.00258,0.12781,0.563968,0.129993,-0.0596268,0,0,3.57047,4
1777158799003,0.171401,1.0088,0.128887,0.532556,0.125274,-0.0588874,0,0,3.44137,4
1777158799017,0.17423,1.00603,0.126831,0.510056,0.120985,-0.0515665,0,0,3.57371,4
1777158799031,0.179325,0.997036,0.12112,0.484589,0.113874,-0.0555548,0,0,3.89556,4
1777158799045,0.182944,0.990992,0.113943,0.4567,0.106549,-0.0679242,0,0,3.58671,4
1777158799058,0.186761,0.988318,0.107003,0.431537,0.0976969,-0.0728121,0,0,3.50019,4
1777158799072,0.18673,0.985933,0.10072,0.408558,0.0871011,-0.0705368,0,0,3.68374,4
1777158799086,0.186027,0.981513,0.0942362,0.38446,0.0766046,-0.0708545,0,0,3.53471,4
1777158799100,0.183808,0.982823,0.0877056,0.362394,0.0653257,-0.0740708,0,0,3.47382,4
1777158799113,0.179694,0.984089,0.083419,0.345366,0.0542473,-0.0723873,0,0,3.5216,4
1777158799127,0.172197,0.983902,0.0805337,0.330553,0.0441501,-0.0689105,0,0,3.39911,4
1777158799140,0.164948,0.987503,0.0765809,0.318578,0.0374024,-0.0661913,0,0,3.54517,4
1777158799154,0.162001,0.990791,0.0719909,0.310278,0.0353035,-0.0646124,0,0,3.45976,4
1777158799168,0.163688,0.992583,0.0682308,0.304214,0.0320914,-0.0654849,0,0,3.54422,4
1777158799181,0.164381,0.991791,0.0622639,0.299046,0.0291474,-0.0706903,0,0,3.56432,4
1777158799195,0.163052,0.992069,0.0568258,0.294281,0.0304854,-0.0773564,0,0,3.53035,4
1777158799209,0.161448,0.994272,0.0505923,0.291227,0.0352646,-0.0828988,0,0,3.56421,4
1777158799222,0.159573,0.998694,0.0467566,0.291646,0.0408757,-0.0884717,0,0,3.44102,4
1777158799236,0.153119,1.00054,0.0403379,0.290481,0.0450427,-0.0937264,0,0,3.95121,4
1777158799250,0.141563,1.00771,0.0359554,0.291482,0.0517341,-0.0946575,0,0,3.46119,4
1777158799264,0.132464,1.01239,0.0315713,0.294161,0.0602491,-0.0914512,0,0,3.56161,4
1777158799277,0.134601,1.01889,0.0275075,0.297832,0.0637318,-0.084759,0,0,3.50789,4
1777158799291,0.139481,1.02506,0.0225959,0.303587,0.0576264,-0.0804925,0,0,3.50574,4
1777158799304,0.143556,1.02912,0.0189427,0.309147,0.0408464,-0.0781076,0,0,3.51635,4
1777158799318,0.146162,1.03246,0.0144519,0.315485,0.0170412,-0.0732704,0,0,3.50365,4
1777158799332,0.146848,1.03648,0.0100381,0.322968,-0.0106972,-0.0676617,0,0,3.50674,4
1777158799345,0.148441,1.04351,0.00601296,0.33199,-0.0400848,-0.0631659,0,0,3.50141,4
1777158799359,0.145834,1.05145,8.82181e-06,0.345106,-0.0671318,-0.0611243,0,0,3.51372,4
1777158799373,0.146885,1.06314,-0.010995,0.360769,-0.0876352,-0.063087,0,0,3.43958,4
1777158799386,0.134189,1.06219,-0.0161735,0.3926,-0.113895,-0.0802061,0,0,3.53463,4
1777158799400,0.168335,1.07008,-0.0355649,0.410576,-0.124861,-0.0799682,0,0,3.42963,4
1777158799413,0.176715,1.08127,-0.0374092,0.432503,-0.147741,-0.08449,0,0,3.52754,4
1777158799427,0.182029,1.08652,-0.0419059,0.456984,-0.16958,-0.101821,0,0,3.49713,4
1777158799441,0.179147,1.09426,-0.0436223,0.484141,-0.197271,-0.122497,0,0,3.50435,4
1777158799454,0.160784,1.10938,-0.0373271,0.513883,-0.225258,-0.142971,0,0,3.50587,4
1777158799468,0.139243,1.16449,-0.0328588,0.55961,-0.220412,-0.165962,0,0,3.40319,4
1777158799481,0.159275,1.20326,-0.0229953,0.629166,-0.214351,-0.186393,0,0,3.51093,4
1777158799495,0.177278,1.22393,-0.00947721,0.704254,-0.241616,-0.208559,0,0,3.43265,4
1777158799509,0.189982,1.24593,0.00119789,0.780085,-0.2851,-0.228405,0,0,3.53091,4
1777158799522,0.196314,1.26644,0.0206968,0.867361,-0.337901,-0.241673,0,0,3.4358,4
1777158799536,0.206895,1.28709,0.0371116,0.962508,-0.393276,-0.250186,0,0,3.5723,4
1777158799550,0.23294,1.30147,0.0548056,1.0635,-0.456254,-0.25331,0,0,3.53215,4
1777158799563,0.265236,1.30662,0.0831653,1.16417,-0.535874,-0.250061,0,0,3.41906,4
1777158799577,0.305695,1.31129,0.116699,1.27277,-0.623788,-0.240445,0,0,3.50504,4
1777158799590,0.333101,1.29533,0.139187,1.3795,-0.720192,-0.232,0,0,3.4338,4
1777158799604,0.346022,1.2605,0.164567,1.45225,-0.812603,-0.25799,0,0,3.4333,4
1777158799618,0.350773,1.23164,0.169777,1.50617,-0.899205,-0.315869,0,0,3.56763,4
1777158799631,0.331413,1.23593,0.149367,1.57432,-0.986729,-0.372448,0,0,3.49258,4
1777158799645,0.287259,1.28791,0.107936,1.68265,-1.07398,-0.398122,0,0,3.59797,4
1777158799659,0.225856,1.39281,0.0206515,1.81909,-1.13757,-0.381653,0,0,3.51417,4
1777158799672,0.177467,1.37319,-0.0403003,1.93279,-1.16429,-0.337332,0,0,3.44389,4
1777158799686,0.195486,1.21508,-0.0652953,2.00325,-1.13963,-0.320118,0,0,3.51517,4
1777158799699,0.181822,1.09369,-0.133131,1.9408,-1.1037,-0.382096,0,0,3.48104,4
1777158799713,0.126463,1.05815,-0.16896,1.83955,-1.03633,-0.486136,0,0,3.50809,4
1777158799727,0.05189,1.06416,-0.215542,1.80952,-0.940301,-0.555622,0,0,3.47391,4
1777158799740,-0.00207899,0.978174,-0.272587,1.80483,-0.838711,-0.550779,0,0,3.53463,4
1777158799754,-0.0482285,0.852718,-0.336238,1.72823,-0.735173,-0.492812,0,0,3.4793,4
1777158799768,-0.111653,0.727065,-0.372359,1.55355,-0.600965,-0.405435,0,0,3.58158,4
1777158799781,-0.161734,0.651685,-0.378015,1.34073,-0.431949,-0.294555,0,0,3.46871,4
1777158799795,-0.173912,0.590968,-0.367098,1.13138,-0.265377,-0.165068,0,0,3.55713,4
1777158799808,-0.152056,0.525705,-0.351185,0.91801,-0.152484,-0.038358,0,0,3.46126,4
1777158799822,-0.113295,0.471712,-0.328103,0.699678,-0.124067,0.0706559,0,0,3.56204,4
1777158799836,-0.0993954,0.424801,-0.303656,0.483268,-0.158593,0.166552,0,0,3.45458,4
1777158799849,-0.120496,0.381113,-0.289186,0.268322,-0.203178,0.259836,0,0,3.55652,4
1777158799863,-0.150076,0.330506,-0.292226,0.0437159,-0.235778,0.355869,0,0,3.48985,4
1777158799877,-0.183833,0.269034,-0.300334,-0.21301,-0.249167,0.454254,0,0,3.43345,4
1777158799890,-0.221121,0.20585,-0.322527,-0.513577,-0.238657,0.552935,0,0,3.50876,4
1777158799904,-0.256326,0.149577,-0.323812,-0.844877,-0.189936,0.656059,0,0,3.49221,4
1777158799917,-0.273058,0.121341,-0.266954,-1.12096,-0.111601,0.759973,0,0,3.55052,4
1777158799931,-0.257344,0.13289,-0.186994,-1.35103,-0.0372884,0.84401,0,0,3.49556,4
1777158799945,-0.221052,0.196451,-0.102192,-1.54275,-0.000475682,0.897248,0,0,3.5848,4
1777158799959,-0.163451,0.305009,-0.00890816,-1.70252,-0.0305618,0.919348,0,0,3.49537,4
1777158799972,-0.115306,0.43362,0.0079654,-1.83566,-0.130443,0.926276,0,0,3.49891,4
1777158799986,-0.131125,0.501756,0.0400524,-1.94662,-0.223766,0.943538,0,0,3.51519,4
1777158799999,-0.193728,0.578607,0.026603,-2.03908,-0.238482,0.951027,0,0,3.43602,4
1777158800013,-0.252939,0.666597,0.0455209,-2.11613,-0.167755,0.936237,0,0,3.55217,5
1777158800027,-0.257346,0.757598,0.0585036,-2.18033,-0.0674932,0.918786,0,0,3.461,5
1777158800040,-0.235498,0.828854,0.0785905,-2.23384,0.0108041,0.917105,0,0,3.52456,5
1777158800054,-0.229013,0.888211,0.0891136,-2.27843,0.079894,0.929216,0,0,3.48091,5
1777158800068,-0.233708,0.949977,0.102786,-2.31559,0.167774,0.937057,0,0,3.53337,5
1777158800081,-0.22778,1.04703,0.113917,-2.34655,0.283209,0.937814,0,0,3.51695,5
1777158800095,-0.203041,1.16315,0.118209,-2.36854,0.401962,0.941118,0,0,3.42289,5
1777158800108,-0.163159,1.26101,0.112862,-2.35289,0.503645,0.943743,0,0,3.50822,5
1777158800122,-0.111611,1.3342,0.101111,-2.31784,0.57735,0.93233,0,0,3.427,5
1777158800136,-0.0604852,1.40311,0.0820281,-2.26342,0.623721,0.898023,0,0,3.50641,5
1777158800149,-0.0245256,1.4662,0.0522699,-2.17884,0.657337,0.844218,0,0,3.49361,5
1777158800163,-0.00269861,1.5173,0.0143687,-2.06279,0.687488,0.781543,0,0,3.53145,5
1777158800176,0.0194371,1.55276,-0.0314388,-1.91765,0.707958,0.720726,0,0,3.46435,5
1777158800190,0.0561894,1.57492,-0.0876176,-1.74294,0.702789,0.666292,0,0,3.49374,5
1777158800204,0.0922166,1.58174,-0.147686,-1.54696,0.653139,0.61032,0,0,3.49697,5
1777158800217,0.114778,1.57757,-0.220653,-1.33919,0.568595,0.544872,0,0,3.41952,5
1777158800231,0.102645,1.56001,-0.277089,-1.12725,0.481132,0.461681,0,0,3.51991,5
1777158800245,0.0775694,1.55146,-0.3248,-0.905129,0.40934,0.359658,0,0,3.8091,5
1777158800258,0.0602379,1.53676,-0.348434,-0.669173,0.355201,0.258659,0,0,3.51624,5
1777158800272,0.0947343,1.53005,-0.349007,-0.414501,0.296204,0.188526,0,0,3.41743,5
1777158800286,0.333767,1.48504,-0.138621,-0.155291,0.194025,0.224586,0,0,3.52187,5
1777158800299,0.462707,1.38043,0.189039,0.030604,-0.0547499,0.245845,0,0,3.47176,5
1777158800313,0.425766,1.28754,0.112333,0.215847,-0.309582,0.159845,0,0,3.42811,5
1777158800326,0.324492,1.18997,0.0138521,0.217073,-0.417743,0.0541202,0,0,3.47987,4
1777158800340,0.213754,1.20634,0.0724126,0.182612,-0.380435,-0.041541,0,0,3.42511,4
1777158800354,0.171464,1.27026,0.130881,0.30766,-0.24778,-0.0712969,0,0,3.60256,4
1777158800367,0.172033,1.23523,0.147157,0.476612,-0.153455,-0.0298339,0,0,3.50715,4
1777158800381,0.17362,1.15231,0.160613,0.549378,-0.125844,0.0384335,0,0,3.54404,4
1777158800395,0.168951,1.07652,0.170011,0.564138,-0.107898,0.0840763,0,0,3.444,4
1777158800408,0.168242,1.0506,0.159157,0.553614,-0.0898129,0.0862595,0,0,3.48585,4
1777158800422,0.177311,1.07675,0.144619,0.538177,-0.0747932,0.0784096,0,0,3.51382,4
1777158800435,0.17164,1.08626,0.172789,0.544702,-0.0589053,0.0932549,0,0,3.42224,4
1777158800449,0.155489,1.06672,0.166846,0.56542,-0.0253727,0.122356,0,0,3.69091,4
1777158800463,0.150345,1.02856,0.166801,0.552494,0.0267823,0.149177,0,0,3.53726,4
1777158800476,0.181686,1.00787,0.165378,0.523719,0.0600412,0.158564,0,0,3.56509,4
1777158800490,0.216104,0.9912,0.164562,0.485695,0.0536349,0.150139,0,0,3.54217,4
1777158800504,0.228356,0.976338,0.164592,0.43313,0.0265532,0.135981,0,0,3.62052,4
1777158800517,0.229567,0.966491,0.168061,0.380216,-0.00340666,0.130404,0,0,3.53202,4
1777158800532,0.232935,0.966596,0.168081,0.33616,-0.0333987,0.13269,0,0,4.25624,4
1777158800546,0.232546,0.96733,0.167938,0.300897,-0.0618908,0.130537,0,0,3.54039,4
1777158800559,0.228637,0.967839,0.174473,0.273495,-0.0766138,0.121185,0,0,3.52445,4
1777158800573,0.221897,0.971401,0.171524,0.26019,-0.0709568,0.111013,0,0,3.54422,4
1777158800586,0.213118,0.968575,0.168354,0.252588,-0.053749,0.103236,0,0,3.53111,4
1777158800600,0.216434,0.963354,0.167209,0.246266,-0.0320936,0.101247,0,0,3.59278,4
1777158800614,0.224299,0.958982,0.16406,0.23769,-0.0232968,0.0994739,0,0,3.53491,4
1777158800627,0.230646,0.954382,0.164639,0.220429,-0.0283962,0.0967626,0,0,3.59185,4
1777158800641,0.231813,0.95309,0.161636,0.196108,-0.041208,0.0954319,0,0,3.48243,4
1777158800655,0.236333,0.95229,0.157966,0.175421,-0.0550143,0.0982416,0,0,3.9643,4
1777158800669,0.2409,0.951918,0.154523,0.159327,-0.0737715,0.102415,0,0,3.52534,4
1777158800682,0.243676,0.94738,0.151244,0.142174,-0.0933083,0.101784,0,0,3.49517,4
1777158800696,0.241196,0.950839,0.151614,0.128249,-0.103546,0.100074,0,0,3.53943,4
1777158800710,0.237208,0.954647,0.148268,0.124012,-0.101784,0.100062,0,0,3.49317,4
1777158800723,0.237092,0.954382,0.144751,0.123254,-0.0919449,0.100751,0,0,3.51698,4
1777158800737,0.24378,0.952962,0.141376,0.124353,-0.0818879,0.100473,0,0,3.46024,4
1777158800751,0.250069,0.947096,0.137417,0.119696,-0.0741942,0.0949873,0,0,3.64028,4
1777158800764,0.25659,0.948437,0.136038,0.113487,-0.0728463,0.0915734,0,0,3.53261,4
1777158800778,0.261513,0.948154,0.134326,0.105527,-0.0784533,0.0902425,0,0,3.49041,4
1777158800792,0.261926,0.945624,0.132615,0.0962598,-0.086421,0.0881919,0,0,3.53558,4
1777158800805,0.261448,0.949894,0.129777,0.089873,-0.0932134,0.0865848,0,0,3.4943,4
1777158800819,0.260229,0.948776,0.129051,0.084029,-0.0960494,0.0861108,0,0,3.50178,4
1777158800832,0.260458,0.95189,0.128067,0.0806221,-0.0945831,0.0857539,0,0,3.54215,4
1777158800846,0.260527,0.952343,0.126312,0.0810273,-0.0897099,0.0834463,0,0,3.52432,4
1777158800860,0.261392,0.951127,0.125881,0.0820266,-0.0799872,0.0802256,0,0,3.52672,4
1777158800874,0.264652,0.94917,0.122677,0.081269,-0.0693278,0.0768801,0,0,4.03306,4
1777158800888,0.268384,0.950528,0.119637,0.0802051,-0.0635747,0.0743976,0,0,3.53806,4
1777158800901,0.271109,0.947138,0.115743,0.0759343,-0.061643,0.0746188,0,0,3.49345,4
1777158800915,0.272445,0.944871,0.11291,0.0685839,-0.0647152,0.0745488,0,0,3.54474,4
1777158800928,0.273219,0.948532,0.113473,0.0620769,-0.0718683,0.0719331,0,0,3.49654,4
1777158800942,0.27357,0.951003,0.115507,0.0595043,-0.0745213,0.0686338,0,0,3.50169,4
1777158800956,0.278249,0.952152,0.117691,0.0613935,-0.0728772,0.0637979,0,0,3.53795,4
1777158800970,0.288135,0.955819,0.115244,0.0669501,-0.0657946,0.0572744,0,0,3.95337,4
1777158800983,0.293019,0.950155,0.11328,0.0711098,-0.0567881,0.0464309,0,0,3.53193,4
1777158800997,0.300026,0.94733,0.11106,0.0707213,-0.0485193,0.0307408,0,0,3.83289,4
1777158801011,0.303375,0.948415,0.108168,0.0699013,-0.0429646,0.0125639,0,0,3.52404,4
1777158801024,0.30017,0.949454,0.104692,0.0687473,-0.0397606,-0.00351229,0,0,3.46735,4
1777158801038,0.294974,0.952897,0.102317,0.0671494,-0.0367343,-0.0141101,0,0,3.51263,4
1777158801052,0.289112,0.95563,0.101092,0.0656271,-0.0339071,-0.0193284,0,0,3.49106,4
1777158801065,0.283894,0.956361,0.0965209,0.0635569,-0.0297954,-0.0220866,0,0,3.53608,4
1777158801079,0.281905,0.954455,0.0940324,0.0588801,-0.0241297,-0.0241053,0,0,3.49824,4
1777158801093,0.283716,0.952671,0.0903598,0.0532907,-0.0191666,-0.0246424,0,0,4.1948,4
1777158801107,0.286609,0.950061,0.0882329,0.0449178,-0.0172317,-0.0252809,0,0,3.51097,4
1777158801120,0.287511,0.949918,0.087866,0.0339964,-0.0212427,-0.0275305,0,0,3.45704,4
1777158801134,0.282858,0.950726,0.0888666,0.0224652,-0.0261119,-0.0291126,0,0,3.49706,4
1777158801148,0.275697,0.954131,0.0873224,0.0122579,-0.0265946,-0.028917,0,0,3.45819,4
1777158801161,0.271989,0.955382,0.0880729,0.00455333,-0.0222003,-0.0264639,0,0,3.56489,4
1777158801175,0.272694,0.955374,0.0905904,-0.0019053,-0.0157649,-0.0238599,0,0,3.53722,4
1777158801189,0.27157,0.957973,0.0896234,-0.00952668,-0.00377353,-0.0267535,0,0,3.56039,4
1777158801202,0.269242,0.958878,0.0882369,-0.0140203,0.0087129,-0.0372437,0,0,3.53447,4
1777158801216,0.273816,0.957541,0.0904111,-0.0184902,0.0115228,-0.0424868,0,0,3.88472,4
1777158801230,0.275826,0.959436,0.0936178,-0.0228258,0.00584918,-0.0398077,0,0,3.48995,4
1777158801244,0.274417,0.96372,0.0958229,-0.0215788,0.00213895,-0.0369135,0,0,3.452,4
1777158801257,0.275832,0.964061,0.0975444,-0.0169645,-0.000723904,-0.0382167,0,0,3.58611,2
1777158801271,0.280021,0.960754,0.0980739,-0.0133992,-0.00550147,-0.0421653,0,0,3.47084,2
1777158801285,0.280408,0.96081,0.09937,-0.0100973,-0.00992807,-0.04655,0,0,3.54513,2
1777158801298,0.277688,0.962661,0.0984686,-0.00368157,-0.00987645,-0.0514125,0,0,3.46256,2
1777158801312,0.275069,0.963238,0.0983616,0.00301345,-0.00690722,-0.0565588,0,0,3.53419,2
1777158801325,0.274178,0.96316,0.0975287,0.00929238,-0.0056924,-0.061,0,0,3.52415,2
1777158801339,0.273019,0.963543,0.0977707,0.0144358,-0.00479456,-0.0639758,0,0,3.4803,2
1777158801353,0.27153,0.964004,0.097273,0.0205031,-0.00159088,-0.0668246,0,0,3.55582,2
1777158801366,0.269465,0.963728,0.0965192,0.024834,0.00185492,-0.0708399,0,0,3.55341,2
1777158801380,0.269281,0.963715,0.0959613,0.027209,0.00407758,-0.0744276,0,0,3.63172,2
1777158801394,0.266129,0.96367,0.0949943,0.0294172,0.00582801,-0.0775447,0,0,3.52698,2
1777158801407,0.263585,0.963568,0.0934791,0.0315118,0.00868619,-0.0798114,0,0,3.50506,2
1777158801421,0.260669,0.963543,0.0927749,0.0334099,0.0133963,-0.0811533,0,0,3.50898,2
1777158801434,0.256689,0.964937,0.0922921,0.0359587,0.0188226,-0.0821951,0,0,3.53256,2
1777158801448,0.25288,0.965825,0.0915513,0.0393676,0.0253929,-0.0823636,0,0,3.48428,2
1777158801462,0.249187,0.967337,0.0915193,0.0433407,0.0342778,-0.0819061,0,0,3.52291,2
1777158801475,0.243728,0.969164,0.0914593,0.0477584,0.0454096,-0.081194,0,0,3.53311,2
1777158801489,0.237863,0.971072,0.0907317,0.0540608,0.0609202,-0.0796973,0,0,3.49241,2
1777158801504,0.233093,0.971699,0.0891992,0.0606613,0.0816701,-0.0784628,0,0,4.7168,5
1777158801517,0.232168,0.971278,0.0871608,0.066518,0.105069,-0.0763907,0,0,3.49247,5
1777158801532,0.23011,0.969915,0.0823991,0.0695157,0.121997,-0.0734426,0,0,4.12361,5
1777158801545,0.228806,0.969472,0.0810316,0.0675608,0.131919,-0.0679707,0,0,3.53039,5
1777158801559,0.226645,0.970921,0.0783322,0.0643159,0.135696,-0.0605862,0,0,3.44132,5
1777158801573,0.224961,0.970699,0.0783049,0.0584058,0.132571,-0.051799,0,0,3.65469,5
1777158801586,0.223306,0.971118,0.0787959,0.0510124,0.123008,-0.039578,0,0,3.53634,5
1777158801600,0.220775,0.974345,0.0791579,0.0448895,0.11243,-0.025717,0,0,3.51119,5
1777158801614,0.220991,0.975441,0.0792792,0.0409321,0.102419,-0.0137464,0,0,3.5758,5
1777158801627,0.22491,0.974914,0.0807678,0.0384103,0.0910874,-0.00515762,0,0,3.53789,5
1777158801641,0.228377,0.974745,0.0815778,0.0366778,0.0790359,-0.000595725,0,0,3.55445,5
1777158801655,0.229071,0.97373,0.0811871,0.0356793,0.0647691,0.00138651,0,0,3.55148,5
1777158801668,0.228901,0.974875,0.0801723,0.0348218,0.0498521,0.00260581,0,0,3.499,5
1777158801682,0.229301,0.975033,0.0799991,0.0340691,0.0355511,0.00444886,0,0,3.52089,5
1777158801695,0.230742,0.975395,0.0794304,0.0347522,0.0218142,0.00615013,0,0,3.47771,5
1777158801709,0.230545,0.974648,0.0771994,0.0347999,0.00899275,0.00523961,0,0,3.52206,5
1777158801723,0.22854,0.974675,0.0759058,0.0344452,0.00310465,-0.00320363,0,0,3.46459,5
1777158801736,0.228087,0.974056,0.0747184,0.0354855,0.00368135,-0.0161811,0,0,3.52089,5
1777158801750,0.228851,0.972198,0.0744273,0.0369377,0.00393293,-0.0211306,0,0,3.49691,5
1777158801764,0.227906,0.971647,0.0735312,0.0378679,0.0038118,-0.0205605,0,0,3.5938,5
1777158801777,0.224383,0.973099,0.0736862,0.0392156,0.00636988,-0.0215739,0,0,3.49906,5
1777158801791,0.222032,0.975003,0.0729842,0.0416364,0.00870518,-0.0231818,0,0,3.56043,5
1777158801805,0.220313,0.976817,0.071667,0.0433993,0.00739427,-0.0216846,0,0,3.46541,5
1777158801818,0.217083,0.975883,0.0696226,0.0488506,0.00765044,-0.0173835,0,0,3.56854,5
1777158801832,0.217142,0.973141,0.0673006,0.0480879,0.00925068,-0.015415,0,0,3.47889,5
1777158801846,0.219155,0.975104,0.0668932,0.0480122,0.00807786,-0.0141054,0,0,3.68548,5
1777158801859,0.21833,0.974846,0.0661535,0.0493232,0.00506488,-0.0133066,0,0,3.50032,5
1777158801873,0.216905,0.976134,0.066798,0.0502375,0.00714694,-0.0138878,0,0,3.64828,1
1777158801887,0.216601,0.980534,0.0639475,0.0565847,0.0146326,-0.0152882,0,0,3.56532,1
1777158801901,0.220166,0.976664,0.060797,0.0593931,0.0214814,-0.0180201,0,0,3.48474,1
1777158801914,0.221749,0.974142,0.0595737,0.0585782,0.0227103,-0.0202839,0,0,3.56417,1
1777158801928,0.219842,0.976069,0.0580933,0.0568941,0.0194723,-0.0215089,0,0,3.4608,1
1777158801942,0.21455,0.978032,0.0583523,0.055516,0.0158071,-0.0197561,0,0,3.58193,1
1777158801955,0.210471,0.983404,0.0577407,0.0574593,0.0154372,-0.0148858,0,0,3.49602,1
1777158801969,0.210179,0.981248,0.0545716,0.0583026,0.018615,-0.01084,0,0,3.65556,1
1777158801983,0.213174,0.9787,0.0548764,0.0566517,0.0222937,-0.00926231,0,0,3.5618,1
1777158801996,0.214842,0.979577,0.0526639,0.0552504,0.0272294,-0.0100723,0,0,3.47902,4
1777158802010,0.215582,0.979823,0.0506785,0.0545026,0.0323986,-0.0137116,0,0,3.56445,4
1777158802024,0.214327,0.978203,0.0490835,0.055317,0.0358792,-0.0162991,0,0,3.45385,4
1777158802037,0.212754,0.976443,0.0489855,0.0531332,0.0362098,-0.0160635,0,0,3.57628,4
1777158802051,0.210134,0.977938,0.0477422,0.0508043,0.0353148,-0.013857,0,0,3.50008,4
1777158802065,0.208052,0.979076,0.0484322,0.0499578,0.0328005,-0.0110895,0,0,3.60782,4
1777158802078,0.207918,0.985662,0.0494817,0.0525603,0.0316085,-0.00940664,0,0,3.55334,4
1777158802092,0.209538,0.983916,0.0469827,0.0546145,0.0323837,-0.0112994,0,0,3.65591,4
1777158802106,0.21146,0.982657,0.0467433,0.0552194,0.033335,-0.0166808,0,0,3.58528,4
1777158802119,0.211423,0.983366,0.0453773,0.0555073,0.0326392,-0.0212671,0,0,3.46004,4
1777158802133,0.208238,0.98736,0.0453495,0.0574902,0.0319449,-0.0244783,0,0,3.55928,4
1777158802147,0.206664,0.987481,0.0441671,0.0593207,0.0313918,-0.0270398,0,0,3.47635,4
1777158802160,0.204525,0.986461,0.0422076,0.0603118,0.0296585,-0.0289199,0,0,3.58578,4
1777158802174,0.202088,0.987312,0.0407958,0.0622573,0.0279597,-0.0302068,0,0,3.68,4
1777158802188,0.200616,0.987118,0.0387337,0.0646164,0.0270911,-0.031839,0,0,3.68376,4
1777158802202,0.200368,0.98785,0.0386161,0.0677783,0.0270543,-0.0347005,0,0,3.54541,4
1777158802215,0.199959,0.98839,0.0370342,0.0712275,0.0280542,-0.0385354,0,0,3.54093,4
1777158802229,0.198156,0.989823,0.0359503,0.0757812,0.0306431,-0.0425327,0,0,3.56328,4
1777158802243,0.19627,0.989266,0.0348805,0.0802248,0.0326224,-0.0458764,0,0,3.44515,4
1777158802256,0.195983,0.988235,0.0348525,0.0836733,0.0326306,-0.0484721,0,0,3.4971,4
1777158802270,0.193707,0.988499,0.0336057,0.0871196,0.0295204,-0.0508896,0,0,3.55958,4
1777158802284,0.192084,0.989081,0.0314293,0.0901315,0.0252365,-0.0522172,0,0,3.51335,4
1777158802297,0.191319,0.988493,0.0299258,0.0922088,0.0195037,-0.052611,0,0,3.39702,4
1777158802311,0.191234,0.988433,0.0275266,0.0943852,0.0143447,-0.0538425,0,0,3.52404,4
1777158802324,0.19264,0.988027,0.024607,0.095461,0.00984195,-0.0562173,0,0,3.43635,4
1777158802338,0.191706,0.989444,0.0222653,0.0963065,0.000847934,-0.0590361,0,0,3.53263,4
1777158802352,0.186133,0.990481,0.0200069,0.0970239,-0.0116089,-0.0612069,0,0,3.48798,4
1777158802365,0.178656,0.993022,0.0192364,0.0990593,-0.0287581,-0.0594154,0,0,3.56889,4
1777158802379,0.173001,0.996162,0.0183745,0.0976003,-0.049334,-0.0514721,0,0,3.51298,4
1777158802393,0.168477,1.00146,0.0170148,0.0980766,-0.0690124,-0.0400054,0,0,3.56761,4
1777158802406,0.166802,1.00613,0.0146119,0.100153,-0.0878539,-0.0308951,0,0,3.51393,4
1777158802420,0.169529,1.00789,0.0116891,0.103512,-0.103746,-0.0255551,0,0,3.54111,4
1777158802434,0.173409,1.00888,0.00902275,0.106769,-0.118274,-0.025787,0,0,3.49306,4
1777158802447,0.178612,1.01221,0.00760858,0.111455,-0.131793,-0.0313238,0,0,3.53195,4
1777158802461,0.18374,1.0153,0.00621991,0.116887,-0.145833,-0.043495,0,0,3.44487,4
1777158802475,0.187421,1.01261,0.00334131,0.119759,-0.162443,-0.0613349,0,0,3.76469,4
1777158802489,0.192643,1.01751,0.000295117,0.121122,-0.186298,-0.0782116,0,0,3.51015,4
1777158802502,0.196437,1.02473,-0.000580231,0.126253,-0.211457,-0.0946038,0,0,3.48539,4
1777158802516,0.192557,1.03865,0.00406458,0.139791,-0.2304,-0.102806,0,0,3.51161,4
1777158802529,0.200545,1.06409,0.0106389,0.166811,-0.229774,-0.106842,0,0,3.50234,4
1777158802543,0.219705,1.08122,0.0140948,0.208526,-0.230295,-0.117229,0,0,3.35341,4
1777158802557,0.218871,1.09487,0.0169989,0.25213,-0.236607,-0.134751,0,0,3.53474,4
1777158802570,0.197526,1.11184,0.0214184,0.2996,-0.237885,-0.149074,0,0,3.46806,4
1777158802584,0.217824,1.1376,0.0462313,0.365061,-0.229624,-0.127816,0,0,3.49689,4
1777158802597,0.216337,1.17233,0.0192921,0.436889,-0.250132,-0.128346,0,0,3.48196,4
1777158802611,0.199025,1.17275,0.0284603,0.494519,-0.275085,-0.151306,0,0,3.50259,4
1777158802625,0.187019,1.1866,0.024903,0.555713,-0.300217,-0.177081,0,0,3.48743,4
1777158802638,0.174503,1.1909,0.0259324,0.624023,-0.320041,-0.186651,0,0,3.50061,4
1777158802652,0.164505,1.18572,0.0199414,0.69535,-0.333202,-0.188405,0,0,3.56161,4
1777158802666,0.15782,1.17814,0.0112976,0.762181,-0.341269,-0.192437,0,0,3.50015,4
1777158802680,0.154556,1.16876,2.87186e-05,0.825889,-0.347062,-0.198456,0,0,3.84519,4
1777158802693,0.153686,1.15746,-0.0129724,0.885212,-0.352438,-0.199426,0,0,3.49624,4
1777158802707,0.15901,1.14842,-0.0248393,0.940947,-0.359945,-0.192486,0,0,3.42343,4
1777158802720,0.171161,1.14498,-0.0384883,0.994606,-0.375437,-0.182339,0,0,3.55959,4
1777158802734,0.19059,1.14141,-0.0439366,1.04408,-0.40373,-0.173984,0,0,3.48208,4
1777158802748,0.205818,1.14041,-0.0408815,1.09066,-0.439342,-0.171959,0,0,3.49632,4
1777158802761,0.217399,1.14636,-0.0408348,1.13567,-0.474999,-0.178795,0,0,3.54484,4
1777158802775,0.229416,1.15068,-0.0347461,1.1835,-0.516405,-0.191235,0,0,3.49678,4
1777158802789,0.236504,1.14289,-0.0266607,1.22362,-0.566533,-0.209515,0,0,3.56117,4
1777158802802,0.238765,1.12828,-0.0147829,1.2509,-0.620902,-0.233248,0,0,3.48182,4
1777158802816,0.237511,1.12395,-0.00964993,1.28102,-0.675243,-0.258037,0,0,3.56422,4
1777158802830,0.225677,1.12029,-0.0119494,1.31906,-0.731265,-0.275374,0,0,3.47011,4
1777158802843,0.203563,1.14556,-0.0530663,1.37379,-0.784845,-0.279835,0,0,3.66402,4
1777158802857,0.151613,1.20636,-0.128175,1.46091,-0.823936,-0.287776,0,0,3.48104,4
1777158802871,0.130251,1.26702,-0.221344,1.59714,-0.840519,-0.299661,0,0,3.50324,4
1777158802884,0.133773,1.16653,-0.260734,1.667,-0.824008,-0.292592,0,0,3.52572,4
1777158802898,0.162794,1.08375,-0.293711,1.62422,-0.791877,-0.279082,0,0,3.45267,4
1777158802912,0.178661,1.05264,-0.315136,1.56435,-0.778078,-0.278751,0,0,3.52891,2
1777158802925,0.182271,1.01189,-0.324086,1.49655,-0.770777,-0.283196,0,0,3.44348,2
1777158802939,0.17318,0.947845,-0.354184,1.41475,-0.772302,-0.279623,0,0,3.53863,2
1777158802952,0.153319,0.876927,-0.384819,1.30169,-0.783178,-0.263884,0,0,3.45498,2
1777158802966,0.0998499,0.823719,-0.40048,1.16394,-0.774722,-0.251481,0,0,3.47691,2
1777158802980,0.0164618,0.766069,-0.408479,1.00148,-0.707853,-0.246145,0,0,3.54132,2
1777158802993,-0.0635303,0.704434,-0.406995,0.818866,-0.580756,-0.221177,0,0,3.56226,2
1777158803007,-0.115866,0.65372,-0.39213,0.630518,-0.417144,-0.14906,0,0,3.57584,2
1777158803021,-0.126657,0.618054,-0.36658,0.459401,-0.266984,-0.0294453,0,0,3.51115,2
1777158803035,-0.111382,0.576374,-0.342307,0.29548,-0.16241,0.108058,0,0,3.58547,2
1777158803048,-0.0966085,0.531436,-0.323162,0.122442,-0.0987005,0.224552,0,0,3.50782,2
1777158803062,-0.0891219,0.499755,-0.310304,-0.0559927,-0.0562199,0.306427,0,0,3.7463,2
1777158803076,-0.0935923,0.471926,-0.311172,-0.23778,-0.0151832,0.36318,0,0,3.558,2
1777158803089,-0.115297,0.422672,-0.330875,-0.447234,0.0493956,0.409177,0,0,3.64582,2
1777158803103,-0.142666,0.361569,-0.358148,-0.709336,0.146481,0.455128,0,0,3.56665,2
1777158803117,-0.142397,0.311286,-0.341002,-1.00801,0.255923,0.511055,0,0,3.51932,2
1777158803131,-0.0959656,0.317623,-0.262254,-1.2569,0.338231,0.564365,0,0,3.59532,2
1777158803144,-0.0115452,0.408797,-0.174259,-1.46432,0.325052,0.60734,0,0,3.52852,2
1777158803158,0.0764854,0.512601,-0.141677,-1.62299,0.192633,0.647223,0,0,3.58654,2
1777158803172,0.0790821,0.563702,-0.126031,-1.76194,0.0217613,0.674098,0,0,3.50795,2
1777158803186,0.0111063,0.598578,-0.126796,-1.88518,-0.0635959,0.670349,0,0,4.03882,2
1777158803200,-0.0708182,0.643336,-0.12894,-1.98788,-0.0361391,0.638853,0,0,3.57572,2
1777158803213,-0.0890571,0.711858,-0.119477,-2.07346,0.0348205,0.61463,0,0,3.54352,1
1777158803227,-0.0483673,0.792294,-0.102414,-2.13651,0.0570578,0.628604,0,0,3.57893,5
1777158803241,-0.0218222,0.851514,-0.093487,-2.17035,0.0371792,0.667564,0,0,3.48858,5
1777158803254,-0.0396329,0.890705,-0.100632,-2.20341,0.0355883,0.696189,0,0,3.56191,5
1777158803268,-0.0665496,0.929751,-0.106127,-2.2525,0.08098,0.703414,0,0,3.49732,5
1777158803281,-0.071646,1.00026,-0.101343,-2.2903,0.15756,0.703609,0,0,3.49698,5
1777158803295,-0.058666,1.0886,-0.101726,-2.28603,0.238615,0.715539,0,0,3.5711,5
1777158803309,-0.0401257,1.15916,-0.109104,-2.24743,0.315156,0.736206,0,0,3.66889,5
1777158803323,-0.01531,1.20665,-0.114866,-2.19778,0.38249,0.750872,0,0,3.57219,5
1777158803336,0.0163052,1.25299,-0.115912,-2.14113,0.428322,0.748716,0,0,3.46493,5
1777158803350,0.03806,1.30356,-0.117785,-2.06768,0.456897,0.73066,0,0,3.56872,5
1777158803364,0.0394146,1.34598,-0.119862,-1.97387,0.484208,0.70284,0,0,3.49228,5
1777158803377,0.0370197,1.37097,-0.124303,-1.86688,0.518608,0.675268,0,0,3.48578,5
1777158803391,0.0498036,1.38582,-0.129188,-1.75046,0.548968,0.651298,0,0,3.52667,5
1777158803405,0.0805275,1.39012,-0.132851,-1.62771,0.558593,0.624873,0,0,3.53495,5
1777158803418,0.123964,1.3906,-0.14195,-1.4984,0.533611,0.589023,0,0,3.411,5
1777158803432,0.166599,1.38147,-0.154773,-1.36807,0.469307,0.544135,0,0,3.6333,5
1777158803445,0.189879,1.3627,-0.163268,-1.24287,0.370211,0.492555,0,0,3.51037,5
1777158803459,0.180718,1.34653,-0.164338,-1.12225,0.270888,0.432282,0,0,3.51502,5
1777158803473,0.153784,1.34706,-0.162661,-0.984484,0.191682,0.356316,0,0,3.466,5
1777158803486,0.130269,1.34264,-0.15432,-0.827273,0.135867,0.274691,0,0,3.48108,4
1777158803500,0.120503,1.3257,-0.148719,-0.664013,0.0872557,0.20223,0,0,3.49437,4
1777158803514,0.12042,1.28906,-0.131502,-0.514756,0.0438072,0.14523,0,0,3.49537,4
1777158803527,0.121731,1.25737,-0.106067,-0.379587,0.00473759,0.0907321,0,0,3.49404,4
1777158803541,0.121776,1.2212,-0.0750388,-0.254643,-0.0303268,0.0346559,0,0,3.51509,4
1777158803554,0.119627,1.18877,-0.0491614,-0.143996,-0.0656922,-0.0209419,0,0,3.41117,4
1777158803568,0.112646,1.16042,-0.0278199,-0.0453024,-0.0961557,-0.0681768,0,0,3.50837,4
1777158803582,0.0989925,1.12374,-0.00250254,0.0433421,-0.116542,-0.100147,0,0,3.41289,4
1777158803595,0.260478,1.07533,0.292904,0.0968309,-0.129447,-0.064334,0,0,3.52296,4
1777158803609,0.406089,1.04394,0.546649,0.170998,-0.271714,-0.0213852,0,0,3.47782,4
1777158803623,0.400995,1.01029,0.430604,0.333147,-0.506543,-0.0230882,0,0,3.6546,4
1777158803636,0.310578,0.970331,0.256436,0.239047,-0.638061,-0.0300671,0,0,3.49067,4
1777158803650,0.220686,1.04553,0.321475,0.2074,-0.635012,-0.0693435,0,0,3.47111,4
1777158803664,0.173976,1.11674,0.319649,0.343813,-0.528388,-0.0969465,0,0,3.51952,4
1777158803677,0.181259,1.06993,0.311372,0.471918,-0.437105,-0.0860814,0,0,3.4758,4
1777158803691,0.217374,0.990934,0.313354,0.495936,-0.368529,-0.0250805,0,0,3.92608,4
1777158803705,0.234735,0.954166,0.299955,0.482377,-0.302565,0.0317967,0,0,3.48693,4
1777158803719,0.232242,0.978737,0.295302,0.483037,-0.241196,0.035823,0,0,3.59685,4
1777158803732,0.229789,1.00933,0.286855,0.512683,-0.180831,0.00427997,0,0,3.50634,4
1777158803746,0.231616,1.00283,0.278814,0.562592,-0.10825,-0.00579723,0,0,3.58609,4
1777158803760,0.242113,0.967582,0.263499,0.587288,-0.03358,0.0125481,0,0,3.55582,4
1777158803773,0.269211,0.945666,0.247404,0.579368,0.0185689,0.0276832,0,0,3.48787,4
1777158803787,0.290615,0.931818,0.235039,0.553926,0.0296852,0.0158302,0,0,3.58298,4
1777158803800,0.296073,0.922626,0.221343,0.511465,0.0176766,-0.0100143,0,0,3.5093,4
1777158803814,0.290999,0.921916,0.217591,0.466361,-0.00226693,-0.0258516,0,0,3.52937,4
1777158803828,0.278776,0.933074,0.210183,0.427566,-0.0228179,-0.0250417,0,0,3.46346,4
1777158803842,0.261955,0.942118,0.210733,0.400694,-0.0350454,-0.0172676,0,0,3.61271,4
1777158803855,0.252658,0.947526,0.209537,0.384192,-0.0307948,-0.0110945,0,0,3.47169,4
1777158803869,0.244394,0.950998,0.201261,0.37535,-0.0163748,-0.0110139,0,0,3.58843,4
1777158803883,0.241368,0.957455,0.198354,0.371062,0.00685048,-0.0118373,0,0,3.52947,4
1777158803896,0.245819,0.955244,0.192773,0.374778,0.0339021,-0.0097626,0,0,3.54447,4
1777158803910,0.256537,0.948466,0.186384,0.374554,0.0568777,-0.00888614,0,0,3.56543,4
1777158803924,0.272308,0.940748,0.177845,0.365831,0.0682124,-0.0129522,0,0,3.48109,4
1777158803937,0.2851,0.933789,0.167664,0.348561,0.0646808,-0.0219894,0,0,3.57574,4
1777158803951,0.288196,0.926621,0.158825,0.321002,0.0490533,-0.034126,0,0,3.43724,4
1777158803964,0.287409,0.929534,0.152566,0.290746,0.0289185,-0.0446216,0,0,3.51134,4
1777158803978,0.283734,0.935152,0.146746,0.26496,0.00844988,-0.0492075,0,0,3.48521,4
1777158803992,0.277906,0.93884,0.140856,0.24365,-0.00870907,-0.0497595,0,0,3.44469,4
1777158804005,0.274068,0.943039,0.136965,0.22883,-0.0179955,-0.0497359,0,0,3.52547,4
1777158804019,0.272376,0.945301,0.13349,0.221481,-0.0220064,-0.0502634,0,0,3.41502,4
1777158804032,0.274028,0.944755,0.12938,0.214313,-0.0242801,-0.0530821,0,0,3.4778,4
1777158804046,0.278325,0.944121,0.126229,0.208072,-0.0263403,-0.0608254,0,0,3.40589,4
1777158804060,0.280866,0.94357,0.120984,0.201485,-0.0323701,-0.0727998,0,0,3.50774,4
1777158804073,0.279598,0.942095,0.112698,0.18966,-0.0424967,-0.0863281,0,0,3.46241,4
1777158804087,0.274025,0.942004,0.110265,0.17492,-0.052615,-0.0994846,0,0,3.61208,4
1777158804101,0.266162,0.945303,0.10529,0.161912,-0.0590621,-0.109863,0,0,3.51804,4
1777158804114,0.260461,0.947492,0.102032,0.150779,-0.0622973,-0.115916,0,0,3.47298,4
1777158804128,0.254514,0.951355,0.0993323,0.142227,-0.0627668,-0.117971,0,0,3.50626,4
1777158804141,0.249415,0.954226,0.0949291,0.132861,-0.0624965,-0.119505,0,0,3.45813,4
1777158804155,0.241675,0.957942,0.0910419,0.122486,-0.0618387,-0.119524,0,0,3.54689,4
1777158804169,0.232831,0.961811,0.0884389,0.113891,-0.0595602,-0.113916,0,0,3.44474,4
1777158804182,0.228948,0.966425,0.0856965,0.107861,-0.0573689,-0.103238,0,0,3.44508,4
1777158804196,0.226511,0.966732,0.0833154,0.105991,-0.0545759,-0.0925585,0,0,3.92428,4
1777158804210,0.231633,0.966933,0.0802185,0.102728,-0.0554926,-0.0873738,0,0,3.47035,4
1777158804223,0.235951,0.969006,0.0794923,0.0999703,-0.0579868,-0.0875952,0,0,3.49695,1
1777158804237,0.240537,0.972383,0.0801486,0.102151,-0.0602944,-0.0906678,0,0,3.42287,1
1777158804251,0.245226,0.974253,0.08178,0.109604,-0.0599781,-0.0960908,0,0,3.51397,1
1777158804264,0.250778,0.974203,0.08236,0.120472,-0.0558851,-0.105979,0,0,3.42952,1
1777158804278,0.253796,0.974514,0.0795821,0.135215,-0.0459984,-0.12128,0,0,3.55487,4
1777158804291,0.2504,0.973111,0.0749505,0.150338,-0.0360674,-0.142225,0,0,3.49891,4
1777158804305,0.237318,0.974177,0.068291,0.155129,-0.0377915,-0.166638,0,0,3.48237,4
1777158804319,0.217048,0.979446,0.0636995,0.158409,-0.0381087,-0.179424,0,0,3.50045,4
1777158804332,0.195846,0.986819,0.0584262,0.164807,-0.034798,-0.175373,0,0,3.37748,4
1777158804346,0.188473,0.991741,0.056518,0.171245,-0.0317464,-0.162811,0,0,3.49641,4
1777158804359,0.195841,0.995146,0.0568237,0.180274,-0.0327658,-0.154251,0,0,3.40002,4
1777158804373,0.202334,0.99437,0.0509444,0.187684,-0.038717,-0.159789,0,0,3.45024,4
1777158804387,0.200733,0.996141,0.0460971,0.19223,-0.0456866,-0.171771,0,0,3.48898,4
1777158804400,0.19085,1.00247,0.0398297,0.198627,-0.0516218,-0.179007,0,0,3.74837,4
1777158804414,0.1805,1.00591,0.0345168,0.206184,-0.0550538,-0.178867,0,0,3.48982,4
1777158804428,0.174087,1.01453,0.0313839,0.21481,-0.0578629,-0.175125,0,0,3.45384,4
1777158804441,0.171415,1.02162,0.02831,0.226794,-0.0624048,-0.171739,0,0,3.48719,4
1777158804455,0.171057,1.03084,0.026381,0.239835,-0.0715333,-0.17449,0,0,3.40821,4
1777158804468,0.175894,1.03961,0.0244489,0.25546,-0.0850691,-0.179365,0,0,3.50004,4
1777158804482,0.181477,1.0479,0.0243478,0.274398,-0.10472,-0.186888,0,0,3.4246,2
1777158804496,0.176577,1.0606,0.0234557,0.294466,-0.126707,-0.195816,0,0,3.50902,2
1777158804509,0.166692,1.09261,0.0262201,0.323175,-0.134457,-0.202913,0,0,3.47169,2
1777158804523,0.174131,1.11627,0.0315799,0.366844,-0.139936,-0.210799,0,0,3.44943,2
1777158804536,0.1609,1.17334,0.0114936,0.428592,-0.159717,-0.236684,0,0,3.34424,2
1777158804550,0.143945,1.16578,-0.0155973,0.474233,-0.151571,-0.246778,0,0,3.31817,2
1777158804563,0.126199,1.18669,0.00161081,0.530042,-0.147861,-0.242901,0,0,3.3438,2
1777158804576,0.120507,1.20314,0.00403661,0.596829,-0.136742,-0.242137,0,0,3.31952,2
1777158804590,0.124413,1.20571,0.0146039,0.667001,-0.13128,-0.246412,0,0,3.33065,2
1777158804604,0.129509,1.20511,0.0172478,0.737386,-0.13029,-0.253142,0,0,3.63906,2
1777158804617,0.136411,1.1953,0.0142994,0.802898,-0.135433,-0.259463,0,0,3.40671,2
1777158804630,0.14073,1.18327,0.00430786,0.860876,-0.147746,-0.267047,0,0,3.32406,2
1777158804644,0.141038,1.1688,-0.00542868,0.912295,-0.163554,-0.276076,0,0,3.32032,2
1777158804657,0.137734,1.16209,-0.0107616,0.957447,-0.178484,-0.282773,0,0,3.33384,2
1777158804671,0.134962,1.16586,-0.0117242,1.00322,-0.185759,-0.285835,0,0,3.49434,2
1777158804685,0.141146,1.17666,-0.00760549,1.06015,-0.190296,-0.294761,0,0,3.46569,2
1777158804698,0.161216,1.19205,-0.000458523,1.12176,-0.196684,-0.305888,0,0,3.34387,2
1777158804712,0.192154,1.20306,0.00986461,1.19184,-0.215239,-0.317846,0,0,3.44319,2
1777158804725,0.230115,1.21066,0.0288971,1.26476,-0.249977,-0.332836,0,0,3.34858,2
1777158804739,0.257829,1.21691,0.0707084,1.34382,-0.304294,-0.356842,0,0,3.39974,2
1777158804752,0.27195,1.21101,0.0999966,1.40963,-0.35471,-0.38579,0,0,3.32773,2
1777158804765,0.265261,1.19343,0.104385,1.47979,-0.396368,-0.418248,0,0,3.4238,2
1777158804779,0.244687,1.2032,0.0765067,1.54097,-0.41448,-0.452586,0,0,3.47385,2
1777158804792,0.205688,1.25621,0.0558728,1.62217,-0.406265,-0.484368,0,0,3.36756,2
1777158804806,0.18209,1.39074,-0.0318864,1.76869,-0.400691,-0.506465,0,0,3.55317,2
1777158804820,0.183221,1.3591,-0.023438,1.89079,-0.368757,-0.517359,0,0,3.33374,2
1777158804833,0.212932,1.26709,-0.0456684,1.97925,-0.352679,-0.560662,0,0,3.3646,2
1777158804846,0.226503,1.18505,-0.088712,1.99131,-0.365604,-0.644725,0,0,3.32697,2
1777158804860,0.212999,1.11795,-0.147059,1.94521,-0.365484,-0.715884,0,0,3.32071,2
1777158804873,0.175119,1.02091,-0.209718,1.85345,-0.340715,-0.738707,0,0,3.33741,2
1777158804887,0.130198,0.920742,-0.281074,1.70382,-0.299909,-0.72335,0,0,3.31741,2
1777158804900,0.0719263,0.834929,-0.343542,1.50752,-0.239021,-0.700909,0,0,3.52574,2
1777158804914,0.0128076,0.758397,-0.384749,1.27843,-0.151538,-0.664116,0,0,3.51339,2
1777158804928,-0.0177058,0.672487,-0.399582,1.01836,-0.0559252,-0.587641,0,0,3.54711,2
1777158804941,-0.02689,0.606326,-0.396247,0.749436,0.0325559,-0.475884,0,0,3.37748,2
1777158804954,-0.023797,0.556797,-0.374884,0.491235,0.0967355,-0.363886,0,0,3.34267,2
1777158804968,-0.00740651,0.510289,-0.358267,0.24295,0.118183,-0.265999,0,0,3.36482,2
1777158804981,0.0108134,0.462124,-0.344193,-0.00350851,0.0967173,-0.17561,0,0,3.35635,2
1777158804995,0.0222571,0.418311,-0.336413,-0.247631,0.048066,-0.0888606,0,0,3.35882,2
1777158805008,0.0192276,0.377215,-0.335353,-0.492695,-0.0103394,-0.00378334,0,0,3.44685,2
1777158805022,0.00224893,0.33481,-0.339355,-0.750605,-0.062891,0.0820508,0,0,3.4265,2
1777158805036,-0.0250071,0.296771,-0.351387,-1.02889,-0.0967221,0.170182,0,0,3.50395,2
1777158805049,-0.0608646,0.260142,-0.356268,-1.2743,-0.0965051,0.259312,0,0,3.45313,2
1777158805063,-0.0871712,0.232714,-0.318587,-1.47881,-0.0581436,0.351259,0,0,3.53717,2
1777158805076,-0.0938289,0.249083,-0.200616,-1.64924,-0.000285028,0.44054,0,0,3.42158,2
1777158805090,-0.0400278,0.341858,-0.120035,-1.79126,0.0193554,0.524903,0,0,3.44719,2
1777158805103,0.0360563,0.458471,-0.0846574,-1.90961,-0.0551174,0.609671,0,0,3.35634,2
1777158805117,0.0452675,0.541123,-0.0808047,-2.00824,-0.155537,0.690133,0,0,3.48226,2
1777158805130,-0.00892272,0.605259,-0.098918,-2.09043,-0.186993,0.747019,0,0,3.37672,2
1777158805144,-0.0610551,0.672429,-0.107888,-2.15892,-0.131069,0.775417,0,0,3.57482,2
1777158805158,-0.0602804,0.764688,-0.111237,-2.216,-0.0507002,0.798305,0,0,3.45263,2
1777158805171,-0.0317472,0.867374,-0.107935,-2.26356,0.0033096,0.842659,0,0,3.35189,2
1777158805185,-0.0355744,0.944529,-0.12109,-2.28373,0.0352771,0.891414,0,0,3.36778,2
1777158805198,-0.0759267,0.992503,-0.132833,-2.30226,0.0986851,0.928647,0,0,3.35069,5
1777158805212,-0.121257,1.04725,-0.142225,-2.32287,0.208166,0.955819,0,0,3.48871,5
1777158805225,-0.132945,1.12673,-0.136448,-2.32374,0.336945,0.986185,0,0,3.36382,5
1777158805239,-0.126719,1.21121,-0.140473,-2.29367,0.455953,1.01839,0,0,3.56726,5
1777158805252,-0.111629,1.27359,-0.148214,-2.24692,0.556068,1.03374,0,0,3.46482,5
1777158805266,-0.0791284,1.32562,-0.167804,-2.19978,0.633619,1.0201,0,0,3.43758,5
1777158805279,-0.0269749,1.3902,-0.179472,-2.13985,0.679097,0.979451,0,0,3.37876,5
1777158805293,0.0259952,1.46682,-0.200154,-2.03579,0.683713,0.916896,0,0,3.34195,5
1777158805306,0.0636848,1.5163,-0.229725,-1.88943,0.656148,0.83908,0,0,3.34554,5
1777158805320,0.0896198,1.53078,-0.257684,-1.72434,0.608355,0.755658,0,0,3.42148,5
1777158805333,0.105606,1.5301,-0.276135,-1.54721,0.543349,0.672336,0,0,3.45039,5
1777158805347,0.112923,1.52295,-0.292541,-1.35396,0.469292,0.592519,0,0,3.53328,5
1777158805361,0.111844,1.51131,-0.305691,-1.1495,0.391115,0.515738,0,0,3.65424,1
1777158805375,0.102865,1.48791,-0.313537,-0.942419,0.324377,0.440265,0,0,3.53084,1
1777158805388,0.0846773,1.45797,-0.305486,-0.744204,0.287452,0.361455,0,0,3.39391,1
1777158805402,0.0872884,1.42143,-0.278389,-0.547397,0.274836,0.287269,0,0,3.4063,5
1777158805415,0.102746,1.37809,-0.234595,-0.359726,0.267452,0.230357,0,0,3.45926,5
1777158805429,0.146086,1.30401,-0.130523,-0.198487,0.250243,0.207728,0,0,3.43911,5
1777158805442,0.231393,1.20675,0.255201,-0.10477,0.217645,0.218768,0,0,3.35678,5
1777158805456,0.26756,1.22876,0.197733,0.0285825,0.157503,0.212663,0,0,3.36243,5
1777158805469,0.237,1.18877,0.172256,0.202839,0.0876523,0.196799,0,0,3.51032,4
1777158805483,0.171153,1.19536,0.105385,0.217684,0.0629291,0.192893,0,0,3.48826,4
1777158805497,0.169382,1.21215,0.190683,0.313019,0.0840313,0.175299,0,0,3.57467,4
1777158805511,0.20008,1.17631,0.200848,0.453839,0.0637156,0.120573,0,0,3.81146,4
1777158805524,0.204085,1.1007,0.200601,0.499828,-0.0126543,0.0816736,0,0,3.43102,4
1777158805538,0.194017,1.03985,0.214414,0.489144,-0.0800236,0.0881886,0,0,3.3675,4
1777158805551,0.177684,1.02388,0.225634,0.475597,-0.111381,0.120984,0,0,3.36189,4
1777158805564,0.168168,1.03496,0.233928,0.480135,-0.129929,0.143288,0,0,3.35833,4
1777158805578,0.183005,1.03424,0.238105,0.496728,-0.128783,0.15643,0,0,3.41874,4
1777158805591,0.193345,1.00901,0.238192,0.508469,-0.115322,0.167038,0,0,3.3253,4
1777158805605,0.207985,0.98064,0.23074,0.502351,-0.0877175,0.172798,0,0,3.55363,4
1777158805619,0.22861,0.970419,0.234115,0.484389,-0.0765712,0.163083,0,0,3.5063,4
1777158805632,0.237927,0.971743,0.22868,0.471456,-0.0805651,0.143638,0,0,3.386,4
1777158805646,0.227615,0.96662,0.224701,0.454369,-0.0748475,0.132522,0,0,3.40659,4
1777158805659,0.223229,0.963136,0.222694,0.441732,-0.0580981,0.132624,0,0,3.38447,4
1777158805673,0.227336,0.961753,0.221435,0.433568,-0.038555,0.136563,0,0,3.40119,4
1777158805686,0.230194,0.957624,0.219344,0.423571,-0.0248009,0.1344,0,0,3.35098,4
1777158805699,0.230906,0.95153,0.215019,0.411755,-0.0108837,0.125957,0,0,3.35419,4
1777158805713,0.23117,0.949166,0.208207,0.396933,0.00260961,0.116936,0,0,3.79404,4
1777158805727,0.232493,0.946985,0.203323,0.379136,0.0109279,0.11218,0,0,3.38554,4
1777158805740,0.238564,0.944127,0.195769,0.362817,0.0113966,0.112758,0,0,3.40085,4
1777158805754,0.244575,0.939457,0.19143,0.339383,-0.00164785,0.11469,0,0,3.46308,4
1777158805768,0.251949,0.931028,0.187663,0.307387,-0.0216658,0.115397,0,0,3.52208,4
1777158805781,0.25536,0.930111,0.18288,0.275863,-0.0421261,0.112347,0,0,3.37867,4
1777158805795,0.258354,0.933369,0.180851,0.249135,-0.0576751,0.107503,0,0,3.45037,4
1777158805808,0.257993,0.933817,0.176226,0.226862,-0.0702636,0.101914,0,0,3.34391,4
1777158805822,0.258033,0.93604,0.174912,0.208365,-0.0786929,0.0963026,0,0,3.45548,4
1777158805835,0.257618,0.939481,0.170716,0.195673,-0.0823968,0.0905957,0,0,3.42948,4
1777158805849,0.258158,0.941858,0.164338,0.186623,-0.0858523,0.0856745,0,0,3.34454,4
1777158805862,0.263743,0.941155,0.16102,0.180176,-0.0882611,0.0814081,0,0,3.36437,4
1777158805875,0.270361,0.938969,0.157657,0.175235,-0.0918079,0.0748885,0,0,3.36456,4
1777158805889,0.276718,0.942346,0.155863,0.16921,-0.0984659,0.0638702,0,0,3.54743,4
1777158805903,0.281465,0.941128,0.154466,0.163489,-0.1068,0.0504516,0,0,3.3926,4
1777158805916,0.282885,0.945669,0.150841,0.161826,-0.115782,0.0372593,0,0,3.71545,4
1777158805930,0.282412,0.946233,0.149688,0.161904,-0.120314,0.0252733,0,0,3.41539,4
1777158805943,0.283513,0.947978,0.145501,0.167312,-0.120631,0.0140382,0,0,3.34906,4
1777158805957,0.283762,0.947723,0.140001,0.174655,-0.118108,0.00246186,0,0,3.35034,4
1777158805970,0.284975,0.948145,0.135579,0.180546,-0.11252,-0.00844464,0,0,3.33463,4
1777158805984,0.284388,0.950475,0.13203,0.185023,-0.107724,-0.0195563,0,0,3.35982,4
1777158805997,0.283427,0.952336,0.126857,0.18874,-0.10393,-0.0286506,0,0,3.54854,4
1777158806011,0.281628,0.954499,0.121851,0.193289,-0.100718,-0.0344226,0,0,3.4846,4
1777158806025,0.280131,0.954833,0.11818,0.198682,-0.0983589,-0.0364463,0,0,3.48056,4
1777158806038,0.279217,0.956506,0.113095,0.201459,-0.0987215,-0.037433,0,0,3.51535,4
1777158806052,0.278648,0.960242,0.10839,0.204078,-0.0997107,-0.0401763,0,0,3.46554,4
1777158806065,0.27735,0.964774,0.106815,0.207101,-0.101642,-0.0427551,0,0,3.35122,4
1777158806079,0.273971,0.967164,0.103999,0.210001,-0.104333,-0.0432247,0,0,3.36928,4
1777158806092,0.267274,0.971716,0.0977586,0.215548,-0.106219,-0.0415295,0,0,3.32963,4
1777158806106,0.260944,0.974124,0.0920508,0.222435,-0.106645,-0.0381066,0,0,3.35765,4
1777158806119,0.256928,0.977888,0.0885106,0.230426,-0.105131,-0.0319082,0,0,3.48002,4
1777158806133,0.257881,0.982314,0.0837641,0.241551,-0.102342,-0.0242873,0,0,3.36576,4
1777158806146,0.261797,0.984162,0.0780344,0.252858,-0.101913,-0.0200995,0,0,3.54493,4
1777158806160,0.270827,0.985798,0.0742823,0.264035,-0.108286,-0.0211262,0,0,3.44637,4
1777158806173,0.273905,0.986544,0.0667779,0.272523,-0.121918,-0.0277069,0,0,3.46454,4
1777158806187,0.276192,0.989797,0.0610668,0.275716,-0.140034,-0.0376947,0,0,3.34015,2
1777158806200,0.279947,0.99349,0.0558187,0.280425,-0.161466,-0.0483207,0,0,3.34578,2
1777158806214,0.276065,0.999399,0.0483667,0.285672,-0.18341,-0.058486,0,0,3.33411,2
1777158806227,0.276523,1.00405,0.0471084,0.29194,-0.199648,-0.0655195,0,0,3.47213,2
1777158806241,0.278755,1.00847,0.0420911,0.303665,-0.209605,-0.0704393,0,0,3.38543,2
1777158806254,0.282783,1.01321,0.0346464,0.315752,-0.219785,-0.0779997,0,0,3.33504,2
1777158806268,0.287246,1.01742,0.0253195,0.334068,-0.232238,-0.0873025,0,0,3.34593,2
1777158806281,0.291443,1.02124,0.00917882,0.343708,-0.246916,-0.0949913,0,0,3.51161,2
1777158806295,0.292866,1.02844,0.00369048,0.352161,-0.267964,-0.0963477,0,0,3.46848,2
1777158806309,0.296483,1.03274,0.00146691,0.361954,-0.292782,-0.0991829,0,0,3.49593,2
1777158806322,0.299559,1.04155,-0.00535372,0.370547,-0.325461,-0.107271,0,0,3.6476,2
1777158806336,0.296696,1.04891,-0.00850882,0.378598,-0.367312,-0.117738,0,0,3.33887,2
1777158806349,0.281052,1.05704,-0.00787015,0.386249,-0.412811,-0.127555,0,0,3.31782,2
1777158806363,0.255695,1.08179,-0.000945678,0.400029,-0.438334,-0.135011,0,0,3.341,2
1777158806376,0.234194,1.11686,0.00365078,0.435292,-0.432823,-0.139659,0,0,3.32761,2
1777158806390,0.229842,1.15062,0.00773805,0.493824,-0.407187,-0.143457,0,0,3.34471,2
1777158806403,0.232563,1.1614,0.0120267,0.56133,-0.381028,-0.14755,0,0,3.32504,2
1777158806416,0.237853,1.16609,0.0137234,0.626999,-0.358554,-0.154688,0,0,3.34359,2
1777158806430,0.242477,1.1711,0.011915,0.697003,-0.339609,-0.168156,0,0,3.45317,2
1777158806444,0.247973,1.16776,0.00909019,0.76637,-0.328605,-0.18555,0,0,3.53726,2
1777158806457,0.255446,1.15633,0.00123284,0.830308,-0.332311,-0.203022,0,0,3.45841,1
1777158806471,0.255565,1.13943,-0.00481701,0.882254,-0.349445,-0.218307,0,0,3.49013,1
1777158806484,0.239068,1.12421,-0.0167935,0.927286,-0.374601,-0.233068,0,0,3.45545,1
1777158806498,0.212583,1.10884,-0.0326931,0.969456,-0.389559,-0.247149,0,0,3.34437,1
1777158806511,0.180903,1.09196,-0.0431517,1.01039,-0.381185,-0.255487,0,0,3.36052,1
1777158806525,0.159831,1.07878,-0.0572187,1.05115,-0.355491,-0.257868,0,0,3.45839,1
1777158806539,0.150898,1.06698,-0.0643168,1.08858,-0.329614,-0.254292,0,0,3.52587,1
1777158806552,0.15318,1.04188,-0.0679701,1.11453,-0.308584,-0.248818,0,0,3.35335,1
1777158806565,0.165842,1.02796,-0.0745522,1.13053,-0.290538,-0.246025,0,0,3.32084,1
1777158806579,0.187194,1.02318,-0.0760203,1.14469,-0.267039,-0.245276,0,0,3.50117,1
1777158806592,0.221562,1.02643,-0.08611,1.17247,-0.237838,-0.245465,0,0,3.4278,1
1777158806606,0.256676,1.02337,-0.0921677,1.21257,-0.214241,-0.249949,0,0,3.5218,1
1777158806620,0.30489,1.03576,-0.104119,1.26788,-0.22057,-0.249117,0,0,3.44321,1
1777158806633,0.35756,1.08462,-0.13264,1.36355,-0.298757,-0.238934,0,0,3.47478,1
1777158806647,0.394893,1.16162,-0.180469,1.52602,-0.461738,-0.226618,0,0,3.3525,1
1777158806660,0.385838,1.21727,-0.227658,1.68857,-0.705163,-0.238238,0,0,3.32297,1
1777158806674,0.289085,1.04799,-0.29871,1.75556,-0.823845,-0.280974,0,0,3.35148,1
1777158806687,0.205501,1.02175,-0.368988,1.70723,-0.749591,-0.337809,0,0,3.32059,1
1777158806700,0.212008,1.06026,-0.414659,1.72377,-0.674048,-0.386151,0,0,3.35458,1
1777158806714,0.235835,0.981926,-0.466152,1.67628,-0.650587,-0.394821,0,0,3.50191,1
1777158806728,0.232297,0.909122,-0.496639,1.5392,-0.662894,-0.37632,0,0,3.51039,1
1777158806741,0.189235,0.849355,-0.499687,1.3337,-0.641114,-0.350954,0,0,3.34056,1
1777158806755,0.150819,0.850901,-0.48805,1.12919,-0.579287,-0.322983,0,0,3.32974,1
1777158806768,0.115438,0.846967,-0.460542,0.945468,-0.497447,-0.298237,0,0,3.33689,1
1777158806781,0.0810845,0.798446,-0.438235,0.748093,-0.398178,-0.284854,0,0,3.37143,1
1777158806795,0.0484908,0.726368,-0.425205,0.513131,-0.279245,-0.281411,0,0,3.36435,1
1777158806808,0.0137901,0.651273,-0.410032,0.238067,-0.132373,-0.282614,0,0,3.34417,1
1777158806822,-0.00498149,0.589323,-0.385694,-0.0652747,0.0196891,-0.276911,0,0,3.36069,1
1777158806835,0.0222164,0.556545,-0.350666,-0.366431,0.120695,-0.252744,0,0,3.56528,1
1777158806849,0.0747847,0.541019,-0.242816,-0.630563,0.127551,-0.215594,0,0,3.51413,1
1777158806863,0.134324,0.548739,-0.176364,-0.820965,0.0311273,-0.162334,0,0,3.53256,1
1777158806876,0.15835,0.518832,-0.120244,-1.00395,-0.115384,-0.0848964,0,0,3.45009,1
1777158806890,0.102577,0.473819,-0.0792089,-1.22283,-0.222896,-0.00555617,0,0,3.42054,1
1777158806903,0.013779,0.435736,-0.0473449,-1.43592,-0.247197,0.042062,0,0,3.35024,1
1777158806917,-0.0477471,0.409363,-0.0121196,-1.6135,-0.196481,0.0648226,0,0,3.39521,2
1777158806930,-0.0453158,0.428834,0.0345176,-1.76148,-0.121788,0.096398,0,0,3.46921,1
1777158806944,0.00830166,0.505032,0.0714703,-1.88479,-0.0908536,0.159797,0,0,3.60878,2
1777158806958,0.0489341,0.58779,0.100819,-1.98756,-0.114185,0.246994,0,0,3.47061,1
1777158806971,0.0525234,0.654141,0.0949652,-2.07319,-0.138856,0.329849,0,0,3.35546,1
1777158806985,0.024948,0.724907,0.0844459,-2.14456,-0.114963,0.396286,0,0,3.39245,1
1777158806998,-0.00533136,0.826948,0.0696827,-2.20403,-0.0381815,0.461511,0,0,3.36974,1
1777158807012,-0.0207146,0.937483,0.0581839,-2.25358,0.068004,0.544847,0,0,3.40663,1
1777158807026,-0.0274433,1.03011,0.0426348,-2.29488,0.192332,0.645667,0,0,3.83832,1
1777158807039,-0.0190978,1.10374,0.0188397,-2.3293,0.329831,0.750804,0,0,3.45734,1
1777158807053,-0.000141563,1.17506,-0.000629451,-2.35798,0.47589,0.846535,0,0,3.37091,1
1777158807066,0.03118,1.25713,-0.0231631,-2.38025,0.615493,0.925293,0,0,3.35935,1
1777158807080,0.0646476,1.33627,-0.0487434,-2.37335,0.733458,0.98389,0,0,3.54104,1
1777158807093,0.0906808,1.41816,-0.0767759,-2.33992,0.825477,1.01486,0,0,3.48833,1
1777158807107,0.103021,1.49731,-0.117812,-2.27172,0.902618,1.01256,0,0,3.47015,2
1777158807120,0.119043,1.55429,-0.160871,-2.17065,0.969522,0.980008,0,0,3.36674,2
1777158807134,0.1649,1.59636,-0.213024,-2.03618,1.00344,0.931152,0,0,3.47224,5
1777158807147,0.216522,1.61216,-0.266475,-1.87719,0.979372,0.872385,0,0,3.34263,5
1777158807161,0.265587,1.6099,-0.328165,-1.70631,0.889222,0.797789,0,0,3.37165,5
1777158807174,0.304134,1.60652,-0.400642,-1.5209,0.735,0.707343,0,0,3.34452,5
1777158807188,0.288218,1.60606,-0.467397,-1.31235,0.558327,0.590521,0,0,3.31839,5
1777158807201,0.230999,1.60225,-0.514031,-1.08412,0.397868,0.447483,0,0,3.33471,5
1777158807215,0.165557,1.58742,-0.523731,-0.843066,0.278122,0.30121,0,0,3.35446,5
1777158807228,0.155966,1.5797,-0.521183,-0.549387,0.190903,0.194329,0,0,3.77206,2
1777158807242,0.285108,1.51589,-0.184773,-0.2944,0.0807524,0.18259,0,0,3.56489,2
1777158807256,0.311269,1.49417,-0.0598568,-0.0258933,-0.0832788,0.157692,0,0,3.53984,2
1777158807269,0.230617,1.40933,-0.0603338,0.142125,-0.162274,0.103268,0,0,3.36422,2
1777158807283,0.17626,1.38277,-0.039,0.208183,-0.171272,0.0814764,0,0,3.47356,2
1777158807296,0.161301,1.36556,0.00403722,0.321946,-0.134839,0.098037,0,0,3.43693,2
1777158807310,0.165397,1.30671,0.0504434,0.465808,-0.115686,0.111837,0,0,3.47182,4
1777158807324,0.164192,1.23374,0.085201,0.53699,-0.132868,0.113847,0,0,3.41172,4
1777158807337,0.157386,1.16806,0.108236,0.566855,-0.152148,0.113244,0,0,3.50024,4
1777158807351,0.134363,1.13131,0.125083,0.575255,-0.146663,0.133225,0,0,3.46274,4
1777158807364,0.122545,1.12263,0.133501,0.58443,-0.112614,0.172916,0,0,3.39393,4
1777158807378,0.145292,1.11454,0.130708,0.601058,-0.0677124,0.219657,0,0,3.41958,4
1777158807391,0.185438,1.08768,0.141313,0.60148,-0.0416178,0.249561,0,0,3.56037,4
1777158807405,0.2146,1.04511,0.145115,0.581831,-0.0287655,0.242675,0,0,3.46056,4
1777158807418,0.22972,1.01301,0.146292,0.541907,-0.0160069,0.211822,0,0,3.45071,4
1777158807432,0.24465,0.99997,0.153878,0.501335,-0.00620165,0.177905,0,0,3.49265,4
1777158807446,0.249827,0.996564,0.149815,0.466851,-0.00530799,0.153916,0,0,3.45817,4
1777158807459,0.240681,0.988942,0.156615,0.435378,-0.00327829,0.138899,0,0,3.37048,4
1777158807473,0.239464,0.987761,0.160234,0.414749,0.00499074,0.128167,0,0,3.39774,4
1777158807486,0.247254,0.982779,0.163473,0.400408,0.00920984,0.119656,0,0,3.35652,4
1777158807500,0.249932,0.977616,0.165642,0.38847,0.0125731,0.107614,0,0,3.36996,4
1777158807513,0.246756,0.973617,0.16582,0.377516,0.0208465,0.0911412,0,0,3.58284,4
1777158807527,0.246798,0.970241,0.16057,0.366798,0.0278556,0.0765617,0,0,3.50189,4
1777158807541,0.250855,0.962967,0.157234,0.349113,0.0274114,0.0700991,0,0,3.57847,4
1777158807554,0.253863,0.95797,0.155753,0.328523,0.0199548,0.0662785,0,0,3.47698,4
1777158807568,0.252518,0.954372,0.148709,0.300843,0.00491147,0.0609064,0,0,3.46367,4
1777158807581,0.251285,0.951666,0.147386,0.269379,-0.0116832,0.0587197,0,0,3.36172,4
1777158807595,0.25147,0.952212,0.148071,0.244279,-0.0290235,0.0612104,0,0,3.35959,4
1777158807608,0.252917,0.953201,0.146093,0.22494,-0.0478377,0.065767,0,0,3.33395,4
1777158807622,0.256586,0.954446,0.144053,0.210211,-0.0685543,0.069017,0,0,3.35639,4
1777158807635,0.25974,0.956138,0.143988,0.198356,-0.0880828,0.0691172,0,0,3.51159,4
1777158807649,0.25955,0.956384,0.141357,0.188249,-0.103199,0.0670506,0,0,3.377,4
1777158807662,0.261058,0.955118,0.136274,0.180958,-0.11493,0.0671223,0,0,3.4958,4
1777158807676,0.26655,0.952957,0.134885,0.175836,-0.124134,0.0681745,0,0,3.37413,4
1777158807689,0.27209,0.953912,0.131555,0.17139,-0.132287,0.0666721,0,0,3.3973,4
1777158807703,0.275582,0.954195,0.12593,0.165064,-0.136715,0.0589316,0,0,3.35606,4
1777158807717,0.277841,0.952027,0.121143,0.157185,-0.140431,0.0473794,0,0,3.58341,4
1777158807730,0.275137,0.955968,0.116729,0.150555,-0.144303,0.0366202,0,0,3.49204,4
1777158807744,0.267288,0.958328,0.10688,0.141238,-0.144896,0.0300588,0,0,3.51915,4
1777158807757,0.264785,0.961117,0.100646,0.133284,-0.141815,0.0311941,0,0,3.50498,4
1777158807771,0.261839,0.961769,0.0989331,0.133818,-0.136004,0.0356643,0,0,3.56028,4
1777158807785,0.271089,0.958603,0.0966415,0.130026,-0.130754,0.0348347,0,0,3.515,4
1777158807798,0.284492,0.956176,0.0990273,0.127096,-0.128733,0.0243979,0,0,3.52202,4
1777158807812,0.296869,0.954326,0.0980101,0.12987,-0.125852,0.00762166,0,0,3.65732,4
1777158807826,0.309256,0.954876,0.095422,0.135846,-0.12349,-0.0135723,0,0,3.52032,4
1777158807839,0.319303,0.951621,0.0906011,0.141017,-0.122883,-0.039898,0,0,3.49017,4
1777158807853,0.322782,0.951304,0.0894075,0.145707,-0.121168,-0.0686173,0,0,3.51641,4
1777158807867,0.32281,0.952799,0.0880816,0.153115,-0.117449,-0.0970793,0,0,3.44482,4
1777158807880,0.320036,0.953003,0.0854184,0.159962,-0.115292,-0.124271,0,0,3.53561,4
1777158807894,0.316051,0.953694,0.0832669,0.164141,-0.111764,-0.151714,0,0,3.44847,4
1777158807908,0.305996,0.957866,0.0764446,0.168057,-0.112119,-0.180614,0,0,3.47745,4
1777158807921,0.292698,0.959429,0.0732559,0.167681,-0.114984,-0.206237,0,0,3.50945,4
1777158807935,0.270535,0.965097,0.068171,0.165523,-0.119955,-0.225885,0,0,3.54984,4
1777158807949,0.247432,0.972109,0.0630162,0.164844,-0.120115,-0.234777,0,0,3.51319,4
1777158807962,0.231234,0.977554,0.0596023,0.165462,-0.120796,-0.23323,0,0,3.4358,4
1777158807976,0.217654,0.982378,0.0591155,0.168228,-0.120714,-0.227653,0,0,3.51871,4
1777158807989,0.208822,0.988335,0.055154,0.173574,-0.117185,-0.222447,0,0,3.44226,4
1777158808003,0.203696,0.990451,0.0519076,0.17803,-0.114487,-0.217395,0,0,3.53467,4
1777158808017,0.197798,0.994541,0.0465795,0.184694,-0.10954,-0.211328,0,0,3.45034,4
1777158808030,0.190972,0.994971,0.0397016,0.190782,-0.103001,-0.205598,0,0,3.55019,4
1777158808044,0.188101,0.997982,0.035049,0.196415,-0.0959997,-0.200339,0,0,3.49317,4
1777158808057,0.191304,1.00066,0.030913,0.203743,-0.090674,-0.194888,0,0,3.40267,4
1777158808071,0.190995,0.999512,0.0243301,0.21102,-0.089493,-0.192967,0,0,3.50541,4
1777158808085,0.189151,1.00128,0.019998,0.213585,-0.0898828,-0.193923,0,0,3.4363,4
1777158808098,0.187357,1.00674,0.0161081,0.218191,-0.0904749,-0.193663,0,0,3.53213,4
1777158808112,0.185575,1.01071,0.0117978,0.225388,-0.0904339,-0.190457,0,0,3.4295,4
1777158808125,0.185442,1.01265,0.00741206,0.233129,-0.0922954,-0.188536,0,0,3.48672,2
1777158808139,0.187161,1.01429,0.00260693,0.240343,-0.0962258,-0.189289,0,0,3.61032,2
1777158808153,0.186112,1.01855,-0.00198323,0.248644,-0.101957,-0.191303,0,0,3.39991,2
1777158808166,0.184236,1.0239,-0.00809185,0.258743,-0.110689,-0.192625,0,0,3.51541,2
1777158808180,0.178521,1.02953,-0.014618,0.268418,-0.121427,-0.192646,0,0,3.41359,2
1777158808193,0.200873,1.05491,-0.0413566,0.286595,-0.121494,-0.177179,0,0,3.41013,2
1777158808207,0.201556,1.03742,-0.00988007,0.309631,-0.187632,-0.1527,0,0,3.49332,2
1777158808221,0.206685,1.04921,-0.00407412,0.309095,-0.249833,-0.185482,0,0,3.45839,2
1777158808234,0.16346,1.05409,-0.00392331,0.308978,-0.28593,-0.22509,0,0,3.496,2
1777158808248,0.110907,1.09615,0.00569822,0.325803,-0.293822,-0.230705,0,0,3.65789,2
1777158808262,0.0981903,1.15088,0.0151135,0.374988,-0.267969,-0.218628,0,0,3.50832,2
1777158808275,0.099825,1.18775,0.0261192,0.448622,-0.243333,-0.215383,0,0,3.41426,2
1777158808289,0.106134,1.20579,0.0340339,0.521765,-0.228999,-0.228964,0,0,3.49998,2
1777158808302,0.108299,1.21606,0.0383963,0.597349,-0.212868,-0.244366,0,0,3.43048,2
1777158808316,0.109213,1.22388,0.0423768,0.680094,-0.193726,-0.252506,0,0,3.52061,2
1777158808330,0.114896,1.22787,0.0383047,0.76663,-0.175115,-0.257839,0,0,3.42828,2
1777158808343,0.125139,1.21901,0.033418,0.850576,-0.162392,-0.26652,0,0,3.50534,2
1777158808357,0.142976,1.20919,0.0146015,0.927783,-0.15936,-0.281515,0,0,3.47756,2
1777158808371,0.166344,1.19572,0.010908,0.997122,-0.17238,-0.300092,0,0,3.39856,2
1777158808384,0.186601,1.18421,0.00953492,1.05296,-0.201258,-0.320038,0,0,3.49293,2
1777158808398,0.201744,1.17911,0.013072,1.10418,-0.239229,-0.339994,0,0,3.40959,2
1777158808411,0.215052,1.17925,0.0163682,1.15524,-0.281113,-0.361598,0,0,3.50221,2
1777158808425,0.221941,1.16049,0.025407,1.20023,-0.32449,-0.386828,0,0,3.43056,2
1777158808439,0.22432,1.14578,0.0380482,1.23038,-0.35995,-0.417267,0,0,3.51715,2
1777158808452,0.222942,1.14458,0.0552006,1.26734,-0.381778,-0.443346,0,0,3.46689,2
1777158808466,0.225768,1.15892,0.0542322,1.32179,-0.395795,-0.455537,0,0,3.624,2
1777158808480,0.224167,1.216,0.0281689,1.41546,-0.408264,-0.450835,0,0,3.48095,2
1777158808493,0.203604,1.28411,-0.00819709,1.56413,-0.412497,-0.451587,0,0,3.38159,2
1777158808507,0.176131,1.3144,-0.0482964,1.72033,-0.391623,-0.496882,0,0,3.49874,2
1777158808520,0.164631,1.28043,-0.0856854,1.85049,-0.334864,-0.588178,0,0,3.4785,2
1777158808534,0.171441,1.19033,-0.129022,1.91256,-0.27016,-0.683469,0,0,3.61406,2
1777158808548,0.187616,1.10145,-0.181639,1.87644,-0.226877,-0.732089,0,0,3.54022,2
1777158808561,0.170421,1.01473,-0.225682,1.77098,-0.196875,-0.729858,0,0,3.54802,2
1777158808575,0.130141,0.934904,-0.271771,1.61201,-0.15405,-0.704335,0,0,3.61878,2
1777158808589,0.0878981,0.861734,-0.314907,1.41842,-0.0934388,-0.673892,0,0,3.53935,2
1777158808603,0.0416989,0.818603,-0.348531,1.20998,-0.00967225,-0.643918,0,0,3.61509,2
1777158808616,-0.00166184,0.765938,-0.370357,1.0086,0.0991917,-0.614741,0,0,3.53706,2
1777158808630,-0.0217431,0.702551,-0.383097,0.792051,0.213563,-0.576304,0,0,3.54069,2
1777158808644,-0.0202613,0.653887,-0.386599,0.574139,0.314025,-0.522862,0,0,3.64697,2
1777158808658,-0.00424017,0.620965,-0.383301,0.373907,0.385326,-0.466469,0,0,3.66852,2
1777158808671,0.013852,0.593508,-0.389606,0.195711,0.424171,-0.420912,0,0,3.50619,2
1777158808685,0.0271795,0.555963,-0.403124,0.0231691,0.435728,-0.393152,0,0,3.63784,2
1777158808699,0.0342145,0.512203,-0.419525,-0.157753,0.432852,-0.373543,0,0,3.5641,2
1777158808712,0.0337917,0.474498,-0.440038,-0.343179,0.428878,-0.349504,0,0,3.48065,2
1777158808726,0.0224863,0.437355,-0.459715,-0.536402,0.439294,-0.316343,0,0,3.56865,2
1777158808740,0.00189318,0.409417,-0.481109,-0.743999,0.474348,-0.278441,0,0,3.48941,2
1777158808753,-0.0123831,0.38545,-0.493475,-0.965686,0.528127,-0.244146,0,0,3.59348,5
1777158808767,-0.0135824,0.37455,-0.463836,-1.19317,0.584979,-0.213951,0,0,3.52602,5
1777158808781,0.0160358,0.39803,-0.419186,-1.39299,0.617953,-0.170977,0,0,3.60198,5
1777158808794,0.0611504,0.445054,-0.390876,-1.54437,0.608116,-0.0989313,0,0,3.58278,5
1777158808808,0.0818215,0.471533,-0.370768,-1.67183,0.583685,-0.0132825,0,0,3.5143,5
1777158808822,0.0736454,0.490984,-0.358328,-1.79664,0.587778,0.0534478,0,0,3.60517,5
1777158808835,0.0609811,0.510703,-0.341962,-1.91409,0.63311,0.0946798,0,0,3.49722,5
1777158808849,0.0727308,0.552982,-0.327688,-2.01197,0.699182,0.131063,0,0,3.84545,5
1777158808863,0.114139,0.612273,-0.297151,-2.09354,0.745552,0.180249,0,0,3.51013,5
1777158808877,0.157039,0.663655,-0.274112,-2.14636,0.759907,0.239228,0,0,3.49721,5
1777158808890,0.185085,0.70698,-0.249315,-2.18203,0.759261,0.299649,0,0,3.57184,5
1777158808904,0.200653,0.740895,-0.226628,-2.2152,0.763913,0.357825,0,0,3.5483,5
1777158808918,0.212238,0.782728,-0.207413,-2.2543,0.77419,0.411673,0,0,3.58517,5
1777158808931,0.218823,0.828828,-0.178441,-2.29548,0.792054,0.462781,0,0,3.50293,5
1777158808945,0.231425,0.891952,-0.139098,-2.32979,0.812131,0.510638,0,0,3.59472,5
1777158808959,0.253947,0.972689,-0.106613,-2.34719,0.818354,0.554909,0,0,3.55185,5
1777158808973,0.272601,1.05241,-0.0846501,-2.34718,0.810422,0.592246,0,0,3.59419,5
1777158808986,0.286642,1.12644,-0.0673506,-2.34292,0.792387,0.616032,0,0,3.52147,1
1777158809000,0.305556,1.20424,-0.0531994,-2.32723,0.761366,0.627596,0,0,3.57215,1
1777158809014,0.321077,1.2787,-0.0502105,-2.28616,0.718759,0.633061,0,0,3.57371,1
1777158809027,0.332719,1.33942,-0.0575887,-2.22333,0.678063,0.633517,0,0,3.52259,1
1777158809041,0.357979,1.39378,-0.0692707,-2.13509,0.636541,0.628058,0,0,3.58026,1
1777158809055,0.401949,1.44577,-0.0918315,-2.0086,0.564738,0.621181,0,0,3.57385,1
1777158809068,0.428092,1.47045,-0.123323,-1.85693,0.446989,0.614228,0,0,3.54948,1
1777158809082,0.410929,1.4802,-0.164112,-1.69091,0.310341,0.603167,0,0,3.49311,1
1777158809096,0.340115,1.47351,-0.196245,-1.51426,0.20564,0.579942,0,0,3.56667,1
1777158809109,0.24765,1.47404,-0.227907,-1.31322,0.15755,0.535919,0,0,3.47884,1
1777158809123,0.179917,1.47077,-0.253596,-1.08878,0.150872,0.479818,0,0,3.52678,1
1777158809137,0.156916,1.45561,-0.265766,-0.851246,0.151121,0.428029,0,0,3.56265,1
1777158809150,0.149751,1.42285,-0.256675,-0.62343,0.142817,0.377747,0,0,3.65215,1
1777158809164,0.141342,1.38087,-0.218026,-0.422146,0.138149,0.319153,0,0,3.56909,1
1777158809178,0.138127,1.33126,-0.157028,-0.243315,0.137923,0.257945,0,0,3.55337,1
1777158809192,0.0832497,1.26512,-0.0385662,-0.0958539,0.145241,0.186494,0,0,3.63245,1
1777158809205,0.0260491,1.21497,0.273754,0.00113953,0.192052,0.118694,0,0,3.53622,1
1777158809219,0.0744769,1.37452,0.155257,0.24796,0.244484,0.0944206,0,0,3.52346,1
1777158809232,0.0867968,1.317,0.179387,0.469279,0.191319,0.105821,0,0,3.41009,4
1777158809246,0.0994878,1.2537,0.170419,0.541053,0.11755,0.117179,0,0,3.63267,4
1777158809260,0.108061,1.18662,0.19741,0.616463,0.0786324,0.0903466,0,0,3.55874,4
1777158809274,0.0990013,1.13552,0.203535,0.668872,0.0444328,0.0340039,0,0,3.61191,4
1777158809287,0.081548,1.10035,0.207696,0.683716,0.0358569,0.0195198,0,0,3.54361,4
1777158809301,0.0797135,1.08015,0.21311,0.69942,0.0642446,0.0767118,0,0,3.6346,4
1777158809315,0.0974559,1.06116,0.21115,0.725675,0.102354,0.149219,0,0,3.59476,4
1777158809329,0.154941,1.03904,0.192913,0.728775,0.135906,0.18739,0,0,3.62089,4
1777158809342,0.239724,1.00999,0.190173,0.698597,0.108522,0.167889,0,0,3.55965,4
1777158809356,0.273668,0.984482,0.190464,0.647788,0.0502186,0.112146,0,0,3.6938,4
1777158809370,0.25189,0.975588,0.178556,0.596363,0.0278158,0.0692314,0,0,3.56432,4
1777158809384,0.230375,0.976167,0.178963,0.558101,0.0309915,0.0535452,0,0,3.70021,4
1777158809398,0.232511,0.976637,0.178479,0.53039,0.0328237,0.0532979,0,0,3.57172,4
1777158809411,0.228317,0.973571,0.179378,0.503047,0.0286763,0.0494785,0,0,3.63752,4
1777158809425,0.219464,0.981043,0.178454,0.479842,0.0292531,0.0370972,0,0,3.54717,4
1777158809439,0.209204,0.981579,0.179968,0.463838,0.0381308,0.0291459,0,0,3.76247,4
1777158809453,0.208145,0.978022,0.176971,0.453364,0.052768,0.0300898,0,0,3.6975,4
1777158809466,0.219323,0.970334,0.173436,0.44106,0.0612634,0.027912,0,0,3.57706,4
1777158809480,0.228802,0.963241,0.165606,0.423695,0.0567399,0.015461,0,0,3.60934,4
1777158809494,0.227992,0.955698,0.157134,0.398563,0.0438736,0.00149739,0,0,3.43196,4
1777158809507,0.226228,0.951563,0.152707,0.371907,0.0278717,-0.0100626,0,0,3.52624,4
1777158809521,0.220416,0.954053,0.148863,0.3465,0.0133155,-0.0183092,0,0,3.46728,4
1777158809535,0.220647,0.95969,0.145204,0.328241,0.00315732,-0.0239727,0,0,3.55882,4
1777158809548,0.220783,0.960176,0.138584,0.314501,-0.0045063,-0.026453,0,0,3.48615,4
1777158809562,0.218263,0.958989,0.13258,0.299832,-0.00769927,-0.0296651,0,0,3.56498,4
1777158809576,0.214306,0.96079,0.126498,0.285942,-0.00766288,-0.0342374,0,0,3.54422,4
1777158809589,0.206624,0.963383,0.120413,0.272534,-0.0090066,-0.0357577,0,0,3.498,4
1777158809603,0.204361,0.965796,0.117832,0.258435,-0.0112968,-0.0321517,0,0,3.53378,4
1777158809617,0.206193,0.969563,0.114402,0.245897,-0.0172385,-0.0267804,0,0,3.4993,4
1777158809630,0.210003,0.96833,0.109718,0.232967,-0.0275969,-0.0236274,0,0,3.61456,4
1777158809644,0.214984,0.966069,0.106842,0.218643,-0.0422595,-0.0239262,0,0,3.48746,4
1777158809658,0.216445,0.967612,0.10161,0.206618,-0.0547583,-0.0271649,0,0,3.61893,4
1777158809671,0.218358,0.967666,0.0969708,0.197487,-0.0634945,-0.0329046,0,0,3.47371,4
1777158809685,0.217476,0.97138,0.0933292,0.190386,-0.0693116,-0.0408684,0,0,3.45928,4
1777158809699,0.215843,0.972031,0.0905214,0.186429,-0.0694517,-0.0496549,0,0,3.53922,4
1777158809712,0.212848,0.974912,0.084963,0.184976,-0.0662352,-0.0592671,0,0,3.46797,4
1777158809726,0.20777,0.975387,0.0803943,0.183256,-0.058453,-0.0683842,0,0,3.55982,4
1777158809740,0.204231,0.976282,0.0763312,0.180945,-0.0481256,-0.0749639,0,0,3.4908,4
1777158809753,0.206208,0.978667,0.070648,0.179922,-0.0399266,-0.0789839,0,0,3.57052,4
1777158809767,0.207764,0.97646,0.066325,0.17692,-0.0373179,-0.0839624,0,0,3.51063,4
1777158809781,0.206317,0.976891,0.0619926,0.172929,-0.0381085,-0.0899178,0,0,3.53226,4
1777158809794,0.20255,0.979904,0.0576841,0.169032,-0.040841,-0.0935193,0,0,3.55108,4
1777158809808,0.199956,0.981619,0.0556163,0.165223,-0.0453701,-0.0948157,0,0,3.49756,4
1777158809822,0.198186,0.982336,0.0526307,0.161554,-0.052274,-0.0963413,0,0,3.58215,4
1777158809835,0.194075,0.98624,0.049202,0.158827,-0.059923,-0.0978035,0,0,3.47956,4
1777158809849,0.188447,0.989566,0.0439088,0.158323,-0.066717,-0.098195,0,0,3.48076,4
1777158809863,0.184462,0.991874,0.0403425,0.158348,-0.0733329,-0.097529,0,0,3.79778,4
1777158809876,0.178557,0.994263,0.0374715,0.157402,-0.0817978,-0.096007,0,0,3.50252,4
1777158809890,0.174909,0.999363,0.0343031,0.156957,-0.092376,-0.0929447,0,0,3.53152,4
1777158809904,0.169555,1.00353,0.0303941,0.156904,-0.10553,-0.088599,0,0,3.52922,4
1777158809917,0.165743,1.00747,0.0271289,0.155983,-0.118908,-0.0843541,0,0,3.54926,4
1777158809931,0.166004,1.01164,0.0247122,0.156563,-0.133696,-0.0795445,0,0,3.46695,4
1777158809945,0.168837,1.01863,0.0226139,0.160011,-0.147698,-0.0729028,0,0,3.53306,4
1777158809958,0.175189,1.02309,0.0201809,0.169284,-0.161033,-0.0630043,0,0,3.48921,4
1777158809972,0.187556,1.02716,0.0131462,0.178996,-0.173953,-0.0575799,0,0,3.5416,4
1777158809986,0.190798,1.03265,0.0133442,0.194647,-0.185075,-0.0577033,0,0,3.48565,4
1777158809999,0.199597,1.02375,0.0116501,0.210323,-0.197461,-0.0519156,0,0,3.47221,4
1777158810013,0.197649,1.03313,0.015198,0.228119,-0.210569,-0.0439882,0,0,3.54974,4
1777158810027,0.188301,1.0399,0.0112328,0.24501,-0.214138,-0.0539088,0,0,3.49134,4
1777158810040,0.189096,1.04934,0.00627812,0.262458,-0.215433,-0.0711581,0,0,3.52685,4
1777158810054,0.196703,1.06424,-0.00706389,0.286068,-0.217861,-0.0818302,0,0,3.45443,4
1777158810068,0.214343,1.04158,0.0187999,0.305248,-0.242098,-0.0755073,0,0,3.5331,4
1777158810081,0.21872,1.05923,0.0202153,0.326103,-0.278313,-0.0949075,0,0,3.46743,4
1777158810095,0.190799,1.08846,0.0143986,0.341855,-0.294777,-0.128695,0,0,3.98843,1
1777158810109,0.179458,1.12352,0.022217,0.38339,-0.295648,-0.146394,0,0,3.48789,1
1777158810123,0.1644,1.13947,0.02315,0.438105,-0.301551,-0.157694,0,0,3.49698,1
1777158810136,0.145696,1.14613,0.0215471,0.487556,-0.29843,-0.173104,0,0,3.39639,1
1777158810150,0.132449,1.15837,0.0225683,0.5408,-0.285257,-0.188732,0,0,3.57376,1
1777158810163,0.12677,1.17118,0.0221681,0.603746,-0.269342,-0.202862,0,0,3.56691,1
1777158810177,0.127373,1.17372,0.017767,0.67101,-0.255317,-0.216952,0,0,3.53672,1
1777158810191,0.13076,1.16537,0.0133347,0.734111,-0.241467,-0.231213,0,0,3.52289,1
1777158810204,0.137369,1.1558,0.000864377,0.79396,-0.22911,-0.246151,0,0,3.43493,1
1777158810218,0.152275,1.14827,-0.012279,0.851163,-0.221192,-0.259566,0,0,3.56459,1
1777158810232,0.172198,1.13288,-0.0273901,0.903208,-0.222279,-0.269435,0,0,3.48435,1
1777158810245,0.190268,1.10668,-0.0415073,0.944951,-0.238044,-0.280496,0,0,3.60222,1
1777158810259,0.203415,1.07921,-0.0588473,0.968553,-0.270482,-0.292436,0,0,3.52695,1
1777158810273,0.204793,1.05616,-0.0745779,0.980245,-0.316025,-0.300376,0,0,3.50793,1
1777158810286,0.199007,1.04236,-0.0906807,0.989631,-0.368367,-0.301039,0,0,3.52995,1
1777158810300,0.188547,1.02349,-0.100254,0.995062,-0.423728,-0.297087,0,0,3.45813,2
1777158810314,0.182876,1.01383,-0.105928,0.989969,-0.475829,-0.292356,0,0,3.55296,2
1777158810327,0.181297,1.01342,-0.105674,0.986895,-0.52529,-0.287472,0,0,3.4648,2
1777158810341,0.179123,1.01796,-0.111567,0.988443,-0.574434,-0.279866,0,0,3.54674,2
1777158810355,0.17257,1.02994,-0.121959,1.00249,-0.627232,-0.269417,0,0,3.53213,2
1777158810368,0.154655,1.0637,-0.147035,1.04709,-0.674856,-0.26141,0,0,3.54296,2
1777158810382,0.120828,1.1175,-0.19448,1.12568,-0.702406,-0.267435,0,0,3.53672,2
1777158810396,0.0913939,1.1641,-0.248638,1.24565,-0.704422,-0.292302,0,0,3.46115,2
1777158810409,0.0877151,1.17227,-0.301965,1.36346,-0.698876,-0.316944,0,0,3.53858,2
1777158810423,0.108875,1.15362,-0.33546,1.44185,-0.689585,-0.329731,0,0,3.47672,2
1777158810437,0.143171,1.11472,-0.361775,1.4891,-0.70141,-0.31732,0,0,3.63728,2
1777158810450,0.17105,1.08529,-0.375196,1.5029,-0.738999,-0.291024,0,0,3.47795,2
1777158810464,0.166944,1.05806,-0.395985,1.49451,-0.789446,-0.273283,0,0,3.62961,2
1777158810478,0.129793,1.00505,-0.414389,1.44622,-0.818457,-0.275828,0,0,3.51984,2
1777158810491,0.0647215,0.949754,-0.429273,1.34706,-0.790661,-0.300467,0,0,3.42904,2
1777158810505,-0.00885788,0.917286,-0.425853,1.23916,-0.694749,-0.338354,0,0,3.536,2
1777158810519,-0.0723875,0.879897,-0.425715,1.13692,-0.551298,-0.370117,0,0,3.50854,2
1777158810532,-0.117444,0.822372,-0.416458,1.01784,-0.386896,-0.375797,0,0,3.59763,2
1777158810546,-0.137356,0.768117,-0.402212,0.885709,-0.232439,-0.347757,0,0,3.51176,2
1777158810560,-0.141551,0.719338,-0.38846,0.745622,-0.101345,-0.292202,0,0,3.55332,2
1777158810573,-0.137118,0.673062,-0.379062,0.597472,0.000850772,-0.228718,0,0,3.58852,2
1777158810587,-0.132304,0.623298,-0.370323,0.436583,0.0806072,-0.174962,0,0,3.48791,2
1777158810601,-0.130762,0.571308,-0.363958,0.2606,0.148788,-0.13911,0,0,3.60558,2
1777158810614,-0.131483,0.520249,-0.36255,0.0653092,0.212209,-0.118711,0,0,3.56137,2
1777158810628,-0.134071,0.472122,-0.365091,-0.147128,0.277146,-0.107386,0,0,3.64493,2
1777158810642,-0.145326,0.422327,-0.373475,-0.383217,0.355421,-0.0991579,0,0,3.51952,2
1777158810656,-0.158026,0.371275,-0.387027,-0.648801,0.451044,-0.083026,0,0,3.65087,2
1777158810669,-0.159111,0.329654,-0.392906,-0.946863,0.550946,-0.048972,0,0,3.50687,1
1777158810683,-0.136246,0.312434,-0.360627,-1.20595,0.641781,-0.00465225,0,0,3.65587,1
1777158810697,-0.0946782,0.350984,-0.296891,-1.42185,0.713533,0.0284132,0,0,3.56011,1
1777158810710,-0.0611297,0.433644,-0.227849,-1.60177,0.711277,0.0279016,0,0,3.47296,1
1777158810724,-0.0264042,0.503353,-0.181063,-1.74935,0.652349,0.0132004,0,0,3.56283,1
1777158810738,-0.05204,0.546182,-0.16679,-1.87469,0.607607,0.016153,0,0,3.50132,1
1777158810752,-0.12204,0.592246,-0.190495,-1.97914,0.654927,0.0283845,0,0,3.60593,1
1777158810765,-0.172425,0.640927,-0.199623,-2.06618,0.793902,0.0387301,0,0,3.50602,1
1777158810779,-0.145779,0.701981,-0.174412,-2.13871,0.944295,0.0706339,0,0,3.51721,1
1777158810793,-0.0668906,0.790539,-0.146249,-2.19703,1.04999,0.127729,0,0,3.53769,1
1777158810806,-0.0258081,0.864242,-0.131642,-2.21978,1.13553,0.177535,0,0,3.49946,1
1777158810820,-0.0194475,0.922797,-0.123754,-2.2278,1.24636,0.197946,0,0,3.57602,1
1777158810833,-0.00272934,0.966943,-0.110695,-2.22641,1.38678,0.212589,0,0,3.50943,1
1777158810847,0.0338554,1.02573,-0.0951112,-2.21449,1.53083,0.247997,0,0,3.60771,1
1777158810861,0.075882,1.08598,-0.0748568,-2.17672,1.67,0.306117,0,0,3.51698,1
1777158810875,0.112853,1.13304,-0.0562098,-2.12097,1.80372,0.368227,0,0,3.70232,1
1777158810888,0.145371,1.17586,-0.0398912,-2.05751,1.91998,0.422963,0,0,3.50204,1
1777158810902,0.180713,1.21854,-0.0210904,-1.98293,2.01687,0.47168,0,0,3.60515,1
1777158810916,0.21587,1.26178,-0.00183941,-1.88969,2.0976,0.525929,0,0,3.57285,1
1777158810929,0.246845,1.29626,0.0108533,-1.77342,2.16489,0.588491,0,0,3.48382,1
1777158810943,0.281105,1.31236,0.020458,-1.64665,2.22096,0.652419,0,0,3.58483,1
1777158810957,0.332341,1.32036,0.0263841,-1.51951,2.26768,0.709204,0,0,3.50367,1
1777158810971,0.38712,1.31784,0.0225213,-1.39703,2.30662,0.755698,0,0,3.59465,1
1777158810984,0.427571,1.31495,0.0124758,-1.28003,2.32643,0.788807,0,0,3.54696,1
1777158810998,0.441941,1.31952,-0.00296974,-1.15479,2.31232,0.812072,0,0,3.52221,1
1777158811012,0.427941,1.33114,-0.0237473,-1.01001,2.2865,0.829653,0,0,3.55378,1
1777158811025,0.39867,1.33981,-0.0422694,-0.840876,2.2643,0.844634,0,0,3.49108,1
1777158811039,0.376634,1.33589,-0.0557771,-0.654915,2.24185,0.852361,0,0,3.51906,1
1777158811053,0.360365,1.31013,-0.0630651,-0.473078,2.20826,0.84871,0,0,3.57506,1
1777158811066,0.345725,1.26833,-0.0582936,-0.320034,2.16042,0.833302,0,0,3.538,3
1777158811080,0.32317,1.22496,-0.0414109,-0.196084,2.10535,0.810016,0,0,3.74169,3
1777158811094,0.292359,1.1857,-0.0121793,-0.0948664,2.055,0.785764,0,0,3.61756,3
1777158811108,0.264804,1.15154,0.0149055,-0.0046024,2.0117,0.767424,0,0,3.65756,3
1777158811122,0.24281,1.11977,0.0357831,0.0764318,1.97315,0.75924,0,0,3.81026,3
1777158811135,0.227897,1.10797,0.0218345,0.156708,1.93773,0.747815,0,0,3.46596,3
1777158811149,0.214821,1.1024,-0.0317128,0.228326,1.88344,0.711869,0,0,3.68724,3
1777158811163,0.220679,1.10332,-0.0636303,0.277396,1.78123,0.656939,0,0,3.58209,3
1777158811176,0.210355,1.09794,-0.0587843,0.320858,1.66572,0.625999,0,0,3.47011,3
1777158811190,0.174335,1.09208,-0.0295796,0.366695,1.5913,0.630584,0,0,3.61637,3
1777158811204,0.154322,1.06045,0.00687576,0.410414,1.55126,0.65798,0,0,3.54595,3
1777158811218,0.252185,1.01851,0.0262699,0.430472,1.49344,0.728673,0,0,3.64324,3
1777158811231,0.407285,1.00954,0.0574248,0.412429,1.35212,0.763042,0,0,3.61147,3
1777158811245,0.465894,1.03505,0.10738,0.34948,1.13727,0.655601,0,0,3.6891,3
1777158811259,0.449444,1.08744,0.137563,0.308968,0.945615,0.47823,0,0,3.67835,3
1777158811273,0.394948,1.10963,0.140572,0.315718,0.809921,0.348143,0,0,3.60087,3
1777158811287,0.336373,1.09461,0.12578,0.334752,0.707097,0.287778,0,0,3.64569,3
1777158811300,0.291919,1.05483,0.112744,0.346276,0.622352,0.25666,0,0,3.56261,3
1777158811314,0.237688,1.02055,0.101845,0.332278,0.549695,0.224176,0,0,3.54787,3
1777158811328,0.174324,1.00661,0.100006,0.305321,0.487812,0.181775,0,0,3.61052,3
1777158811342,0.114323,1.00738,0.0991493,0.266164,0.444424,0.155042,0,0,3.74126,3
1777158811355,0.0777032,1.0066,0.0977622,0.23847,0.412567,0.170983,0,0,3.62176,3
1777158811369,0.0735443,0.999007,0.0953032,0.219069,0.382317,0.222027,0,0,3.51341,1
1777158811383,0.0940943,0.99428,0.0978975,0.199402,0.341486,0.267707,0,0,3.65021,4
1777158811397,0.114446,0.993296,0.0974153,0.176626,0.29064,0.272568,0,0,3.58945,4
1777158811410,0.117767,0.991123,0.0957741,0.152227,0.242404,0.245346,0,0,3.61745,4
1777158811424,0.106816,0.99387,0.09599,0.132861,0.210298,0.219786,0,0,3.55639,4
1777158811438,0.096923,1.00266,0.0973999,0.126811,0.19348,0.214694,0,0,3.61706,4
1777158811452,0.0887838,1.00819,0.0971441,0.129149,0.179808,0.221685,0,0,3.60915,4
1777158811465,0.0870253,1.00843,0.0971151,0.130602,0.164331,0.224445,0,0,3.56222,4
1777158811479,0.0904208,1.00533,0.0921355,0.129445,0.14791,0.222623,0,0,3.62469,4
1777158811493,0.100061,0.99996,0.0871686,0.12539,0.129009,0.221003,0,0,3.59215,4
1777158811507,0.106982,0.993724,0.0827276,0.11808,0.10766,0.217769,0,0,3.59711,4
1777158811520,0.109196,0.989114,0.0786787,0.107484,0.0920067,0.209261,0,0,3.54069,4
1777158811534,0.111632,0.989004,0.0756138,0.0963,0.0809089,0.198379,0,0,3.65232,4
1777158811548,0.114327,0.990292,0.0725345,0.0869421,0.0716353,0.187975,0,0,3.5585,4
1777158811561,0.112999,0.989159,0.0698932,0.0796146,0.0660447,0.17835,0,0,3.54965,4
1777158811575,0.110108,0.990105,0.0706562,0.0724524,0.0644774,0.169351,0,0,3.622,4
1777158811589,0.106473,0.99157,0.0702892,0.0663439,0.0639348,0.164217,0,0,3.58793,4
1777158811603,0.101354,0.992005,0.0685872,0.0610118,0.0671085,0.163298,0,0,3.61567,4
1777158811616,0.102829,0.992769,0.0667234,0.0557795,0.072196,0.164351,0,0,3.53998,4
1777158811630,0.111284,0.991373,0.0656521,0.0517629,0.0743618,0.164644,0,0,3.62847,4
1777158811644,0.119268,0.986526,0.0653333,0.0452604,0.0737112,0.158806,0,0,3.55971,4
1777158811657,0.127713,0.986822,0.0637052,0.038633,0.0710061,0.149807,0,0,3.57813,4
1777158811671,0.132535,0.986113,0.0616805,0.0328558,0.0651641,0.140959,0,0,3.57367,4
1777158811685,0.131478,0.986077,0.0613059,0.0268073,0.0611228,0.133623,0,0,3.53434,4
1777158811698,0.1322,0.987429,0.0594043,0.0239933,0.0616863,0.129877,0,0,3.62332,4
1777158811712,0.133986,0.98693,0.0580428,0.0224626,0.0624612,0.127264,0,0,3.51378,4
1777158811726,0.136598,0.98891,0.0592735,0.0213397,0.0633106,0.123254,0,0,3.57724,4
1777158811739,0.137901,0.997964,0.0602778,0.0243607,0.0662194,0.117279,0,0,3.52682,4
1777158811753,0.142571,0.995594,0.0592838,0.0283922,0.07288,0.109374,0,0,3.66469,4
1777158811767,0.149231,0.991542,0.0598041,0.0301233,0.0775781,0.0984732,0,0,3.55837,4
1777158811781,0.152215,0.989922,0.0591942,0.0295048,0.0789232,0.0864503,0,0,3.56291,4
1777158811794,0.149047,0.989931,0.0604663,0.0285313,0.0791281,0.0766475,0,0,3.67911,4
1777158811808,0.146715,0.992706,0.061056,0.0272239,0.0806221,0.0700943,0,0,3.58348,4
1777158811822,0.146491,0.994117,0.060635,0.0295568,0.0816634,0.0646587,0,0,3.64832,4
1777158811836,0.148775,0.990839,0.060366,0.0312465,0.0821368,0.0576482,0,0,3.55358,4
1777158811849,0.149953,0.988378,0.0592639,0.0308733,0.0830529,0.0490325,0,0,3.528,4
1777158811863,0.14882,0.987368,0.058693,0.0303207,0.0854831,0.040008,0,0,3.61441,4
1777158811877,0.147805,0.987038,0.0577791,0.0317049,0.0904344,0.0321186,0,0,3.59269,4
1777158811891,0.148145,0.986623,0.0567926,0.032464,0.096367,0.0252134,0,0,3.68406,4
1777158811905,0.149889,0.986037,0.0552927,0.0343943,0.102189,0.0176269,0,0,3.71776,4
1777158811918,0.151757,0.985336,0.0555025,0.038153,0.107257,0.00775526,0,0,3.45209,4
1777158811932,0.155373,0.984984,0.0560707,0.0411453,0.110704,-0.00547113,0,0,3.62426,4
1777158811946,0.157933,0.987316,0.0556954,0.0452928,0.110739,-0.0210605,0,0,3.64491,4
1777158811959,0.156714,0.988763,0.0561095,0.0497542,0.108657,-0.0375123,0,0,3.61547,4
1777158811973,0.154465,0.989922,0.054024,0.0540573,0.106641,-0.0528506,0,0,3.65458,4
1777158811987,0.153575,0.990317,0.0535645,0.0569434,0.104389,-0.06735,0,0,3.61319,4
1777158812001,0.153927,0.990274,0.0508814,0.0590941,0.0991794,-0.0817357,0,0,3.67665,4
1777158812015,0.151627,0.989175,0.0492596,0.0591051,0.0919625,-0.0943981,0,0,3.63176,4
1777158812028,0.147861,0.989282,0.0462108,0.0576894,0.0876023,-0.10364,0,0,3.54274,4
1777158812042,0.145138,0.988957,0.0435638,0.0555554,0.0843378,-0.110476,0,0,3.62656,4
1777158812056,0.141133,0.989672,0.0416516,0.0525302,0.0786658,-0.115244,0,0,3.49715,4
1777158812069,0.137463,0.990133,0.0408278,0.048737,0.0716235,-0.118161,0,0,3.59776,4
1777158812083,0.132507,0.992591,0.0401448,0.04466,0.06447,-0.119816,0,0,3.51158,4
1777158812097,0.130488,0.993696,0.0399378,0.0425475,0.060557,-0.12047,0,0,3.62572,4
1777158812110,0.12954,0.993401,0.0396295,0.0414231,0.056024,-0.125061,0,0,3.51848,4
1777158812124,0.13084,0.993595,0.0388148,0.0401554,0.0493711,-0.133569,0,0,3.73297,1
1777158812138,0.125727,0.993667,0.038011,0.037585,0.0397177,-0.142427,0,0,3.5256,1
1777158812151,0.120194,0.995466,0.0373131,0.0362572,0.0333143,-0.150038,0,0,3.40321,1
1777158812165,0.116903,0.99571,0.0359672,0.0360159,0.0283345,-0.157385,0,0,3.54411,1
1777158812179,0.116136,0.994699,0.0341874,0.0347969,0.0217673,-0.167223,0,0,3.45821,1
1777158812192,0.113508,0.995044,0.035055,0.0325089,0.0155185,-0.17934,0,0,3.56978,1
1777158812206,0.108942,0.995761,0.0336528,0.0310348,0.0098914,-0.192987,0,0,3.49419,1
1777158812220,0.105589,0.994775,0.0324997,0.029132,0.00331917,-0.208074,0,0,3.50917,1
1777158812233,0.101712,0.995271,0.0319812,0.0264523,-0.00472766,-0.223662,0,0,3.50791,1
1777158812247,0.0964807,0.997052,0.0307266,0.0246771,-0.0136853,-0.240177,0,0,3.41548,1
1777158812260,0.0918421,0.997473,0.0297661,0.0236177,-0.0227148,-0.257145,0,0,3.51395,1
1777158812274,0.0862705,0.997645,0.0308946,0.022773,-0.0316898,-0.273842,0,0,3.42626,1
1777158812288,0.0799531,0.999725,0.0322927,0.023176,-0.0391181,-0.291637,0,0,3.5163,1
1777158812305,0.071605,1.00957,0.0361767,0.0253439,-0.0436544,-0.313997,0,0,3.59254,4
1777158812318,0.071499,1.0252,0.0371682,0.0326721,-0.0403354,-0.340927,0,0,3.51424,4
1777158812332,0.0697019,1.03552,0.0369353,0.0430919,-0.034567,-0.378813,0,0,3.45822,4
1777158812345,0.0637342,1.04294,0.0380842,0.0534162,-0.0312613,-0.417942,0,0,3.43017,4
1777158812359,0.051089,1.05378,0.0436501,0.0642845,-0.0341936,-0.445372,0,0,3.50643,4
1777158812373,0.0323246,1.06873,0.0514424,0.0793211,-0.0403395,-0.461283,0,0,3.60556,4
1777158812386,0.000783625,1.09368,0.053382,0.100363,-0.0474457,-0.473957,0,0,3.51084,4
1777158812400,-0.0723168,1.15247,0.0814789,0.134247,-0.0564338,-0.503069,0,0,3.49578,4
1777158812414,-0.124814,1.14981,0.0972514,0.155002,0.0157708,-0.524669,0,0,3.55565,4
1777158812427,-0.146651,1.15932,0.126291,0.209868,0.0761576,-0.487466,0,0,3.46726,4
1777158812441,-0.136816,1.17625,0.11692,0.26101,0.136022,-0.465751,0,0,3.56854,4
1777158812455,-0.128568,1.16602,0.123068,0.311248,0.182779,-0.466434,0,0,3.48311,4
1777158812468,-0.129642,1.16528,0.119558,0.348178,0.233448,-0.481952,0,0,3.50909,4
1777158812482,-0.129448,1.16303,0.119182,0.386382,0.2908,-0.490558,0,0,3.51867,4
1777158812495,-0.126546,1.15284,0.116216,0.422736,0.350208,-0.482284,0,0,3.42617,4
1777158812509,-0.126246,1.13994,0.109299,0.456516,0.409856,-0.476305,0,0,3.54226,4
1777158812523,-0.131486,1.12745,0.105191,0.481754,0.479447,-0.484847,0,0,3.4405,4
1777158812536,-0.137323,1.12664,0.0970882,0.507555,0.563674,-0.506177,0,0,3.53026,4
1777158812550,-0.137984,1.13064,0.0899566,0.542429,0.655568,-0.5346,0,0,3.44532,4
1777158812564,-0.136208,1.13756,0.0812233,0.584925,0.75118,-0.566315,0,0,3.55154,4
1777158812577,-0.135182,1.15266,0.0624772,0.63544,0.849304,-0.601076,0,0,3.47867,4
1777158812591,-0.133647,1.17044,0.0502551,0.695907,0.944725,-0.638492,0,0,3.59447,4
1777158812605,-0.125108,1.21377,0.0116864,0.782658,1.02903,-0.678884,0,0,3.51408,5
1777158812618,-0.116665,1.24667,-0.0245344,0.88467,1.08668,-0.729337,0,0,3.4218,5
1777158812632,-0.127479,1.27886,-0.08632,0.989108,1.14599,-0.795974,0,0,3.52571,5
1777158812645,-0.152857,1.27953,-0.116511,1.07787,1.245,-0.871314,0,0,3.44778,5
1777158812659,-0.137058,1.28242,-0.140696,1.16106,1.35914,-0.922355,0,0,3.55406,5
1777158812673,-0.090075,1.28114,-0.135314,1.25307,1.43997,-0.92667,0,0,3.46017,5
1777158812686,-0.0258302,1.27669,-0.132507,1.35947,1.46093,-0.90253,0,0,3.51011,5
1777158812700,0.0280507,1.24679,-0.131454,1.46775,1.41831,-0.881307,0,0,3.53585,5
1777158812714,0.0803649,1.20053,-0.139032,1.54903,1.32251,-0.86843,0,0,3.49178,5
1777158812727,0.116649,1.15821,-0.144454,1.6256,1.18615,-0.839862,0,0,3.5255,5
1777158812741,0.139722,1.11365,-0.162126,1.69648,1.02884,-0.798816,0,0,3.43232,5
1777158812754,0.117707,1.02623,-0.201952,1.71414,0.887379,-0.790973,0,0,3.51685,5
1777158812768,0.0581215,0.919823,-0.268895,1.64847,0.804673,-0.827821,0,0,3.43421,5
1777158812782,-0.00162307,0.823289,-0.316014,1.51363,0.796388,-0.850958,0,0,3.57608,5
1777158812795,-0.0368944,0.748323,-0.35377,1.35558,0.841087,-0.80132,0,0,3.46409,5
1777158812809,-0.0299736,0.683333,-0.382627,1.18625,0.886007,-0.686532,0,0,3.70661,5
1777158812823,0.000324576,0.615003,-0.401825,0.990973,0.883123,-0.575138,0,0,3.52046,5
1777158812836,0.0209681,0.562175,-0.414376,0.763445,0.833277,-0.505796,0,0,3.37335,5
1777158812850,0.0104195,0.543623,-0.421702,0.538558,0.770237,-0.456433,0,0,3.52178,5
1777158812863,-0.021999,0.544631,-0.423012,0.34222,0.726928,-0.389241,0,0,3.44169,5
1777158812877,-0.0499526,0.528455,-0.432546,0.172512,0.709666,-0.30592,0,0,3.54369,5
1777158812891,-0.0757668,0.505659,-0.45144,0.00491771,0.706796,-0.22758,0,0,3.45619,5
1777158812904,-0.103198,0.47834,-0.467908,-0.170851,0.718488,-0.163021,0,0,3.55652,5
1777158812918,-0.125599,0.457484,-0.484652,-0.351689,0.747048,-0.0990697,0,0,3.51113,5
1777158812932,-0.138646,0.434679,-0.49713,-0.544105,0.790962,-0.0286268,0,0,3.42337,5
1777158812945,-0.140709,0.411726,-0.51131,-0.75599,0.848346,0.0393759,0,0,3.51523,5
1777158812959,-0.136676,0.390898,-0.517959,-0.990895,0.919118,0.0947725,0,0,3.42356,5
1777158812972,-0.129958,0.374551,-0.512858,-1.24264,1.00372,0.140402,0,0,3.53469,5
1777158812986,-0.110484,0.374385,-0.492568,-1.45243,1.09664,0.180475,0,0,3.45282,5
1777158813000,-0.0732121,0.406123,-0.471961,-1.62725,1.18416,0.207253,0,0,3.55491,5
1777158813013,-0.0328409,0.463115,-0.393683,-1.77294,1.25467,0.214747,0,0,3.49621,5
1777158813027,0.0341246,0.570152,-0.294867,-1.89357,1.26412,0.206131,0,0,3.67473,5
1777158813041,0.121992,0.658999,-0.271775,-1.90929,1.18412,0.207552,0,0,3.52706,5
1777158813054,0.146549,0.681575,-0.269002,-1.93345,1.08257,0.226573,0,0,3.40769,5
1777158813068,0.116203,0.683353,-0.288214,-1.97363,1.05377,0.237806,0,0,3.55767,5
1777158813082,0.0821023,0.679588,-0.279446,-2.03174,1.10458,0.235233,0,0,3.49385,1
1777158813095,0.113428,0.712223,-0.25858,-2.09336,1.17958,0.244284,0,0,3.70789,1
1777158813109,0.183639,0.786531,-0.231068,-2.11243,1.21193,0.288812,0,0,3.54795,1
1777158813123,0.247172,0.852173,-0.216898,-2.09639,1.20429,0.357534,0,0,3.7055,1
1777158813137,0.278268,0.888543,-0.216016,-2.07791,1.20062,0.417233,0,0,3.54613,1
1777158813150,0.318715,0.916195,-0.2111,-2.07001,1.20937,0.461892,0,0,3.68617,1
1777158813164,0.390443,0.950563,-0.200044,-2.06464,1.19934,0.510457,0,0,3.53496,1
1777158813178,0.469319,0.993817,-0.185941,-2.0507,1.14109,0.564262,0,0,3.40428,1
1777158813191,0.531528,1.03707,-0.173567,-2.03117,1.03502,0.612088,0,0,3.40398,1
1777158813205,0.57177,1.07558,-0.156325,-2.01186,0.899004,0.645773,0,0,3.55406,1
1777158813218,0.58776,1.11813,-0.134471,-1.98641,0.746193,0.665218,0,0,3.50265,1
1777158813232,0.585139,1.16542,-0.108901,-1.94386,0.583863,0.677415,0,0,3.51169,1
1777158813246,0.566521,1.20948,-0.0864437,-1.87989,0.420484,0.685823,0,0,3.44445,1
1777158813259,0.536361,1.24635,-0.0733797,-1.80175,0.267311,0.687855,0,0,3.46861,1
1777158813273,0.501232,1.2707,-0.0702088,-1.72154,0.131742,0.679993,0,0,3.45245,1
1777158813286,0.474335,1.2857,-0.0687747,-1.63878,0.0107135,0.664816,0,0,3.47141,1
1777158813300,0.4588,1.29689,-0.072838,-1.54542,-0.108146,0.647054,0,0,3.37467,1
1777158813314,0.434889,1.30203,-0.0801942,-1.44471,-0.228913,0.627367,0,0,3.49243,1
1777158813327,0.390772,1.29852,-0.082463,-1.34032,-0.335913,0.599524,0,0,3.41919,1
1777158813341,0.331621,1.2974,-0.0828887,-1.22901,-0.410526,0.557555,0,0,3.49604,1
1777158813354,0.271579,1.2993,-0.0823253,-1.10176,-0.443822,0.505418,0,0,3.41041,1
1777158813368,0.223792,1.2947,-0.0786512,-0.959707,-0.442956,0.453484,0,0,3.42,1
1777158813381,0.195267,1.28089,-0.0695095,-0.808459,-0.418392,0.411898,0,0,3.508,4
1777158813395,0.182662,1.25929,-0.0533365,-0.657825,-0.382706,0.380653,0,0,3.427,4
1777158813409,0.172393,1.23323,-0.0331178,-0.514065,-0.339812,0.352771,0,0,3.58028,4
1777158813422,0.149869,1.2042,-0.0118959,-0.378846,-0.280645,0.322004,0,0,3.55795,4
1777158813436,0.111268,1.18395,0.012803,-0.250259,-0.196085,0.285347,0,0,3.52315,4
1777158813450,0.0701927,1.162,0.0350837,-0.123969,-0.0859103,0.251657,0,0,3.57417,4
1777158813464,0.0256188,1.14071,0.0686481,-0.0049745,0.0481028,0.231533,0,0,3.6275,4
1777158813477,-0.043001,1.1194,0.118605,0.111771,0.210035,0.204547,0,0,3.55265,4
1777158813491,-0.0761012,1.09392,0.398535,0.191565,0.422446,0.158891,0,0,3.71754,4
1777158813505,0.0396104,1.28127,0.350522,0.393963,0.570385,0.146659,0,0,3.57921,4
1777158813518,0.122637,1.29526,0.314241,0.672577,0.518654,0.126338,0,0,3.55034,4
1777158813532,0.138552,1.19748,0.267395,0.707186,0.360748,0.0785639,0,0,3.5238,4
1777158813546,0.165849,1.12313,0.299334,0.707579,0.215089,-0.0204843,0,0,3.45428,4
1777158813559,0.15474,1.08648,0.274173,0.728326,0.101277,-0.135836,0,0,3.53993,4
1777158813573,0.133287,1.05009,0.233765,0.686836,0.0714202,-0.157141,0,0,3.46145,4
1777158813587,0.10456,1.0349,0.199519,0.636486,0.13869,-0.0644112,0,0,3.54471,4
1777158813600,0.164744,1.01482,0.205334,0.6023,0.199239,0.0393647,0,0,3.55261,4
1777158813614,0.275421,0.988902,0.208067,0.578151,0.171999,0.0639998,0,0,3.60295,4
1777158813628,0.328146,0.958321,0.207802,0.520609,0.0986127,-0.0013233,0,0,3.50513,4
1777158813641,0.310996,0.950913,0.207314,0.464312,0.0637931,-0.084716,0,0,3.41309,4
1777158813655,0.281628,0.950657,0.209819,0.435374,0.0686189,-0.120686,0,0,3.57008,4
1777158813669,0.280742,0.958414,0.212218,0.42542,0.0774496,-0.109528,0,0,3.48763,4
1777158813682,0.282771,0.958232,0.209315,0.422125,0.0802411,-0.0998485,0,0,3.61041,4
1777158813696,0.271922,0.961677,0.206118,0.412865,0.0917403,-0.113283,0,0,3.55578,4
1777158813710,0.262116,0.964025,0.201059,0.41067,0.118473,-0.130077,0,0,3.73113,4
1777158813723,0.258654,0.965194,0.19554,0.416347,0.154313,-0.131082,0,0,3.54915,4
1777158813737,0.26739,0.960901,0.188626,0.422961,0.187055,-0.125444,0,0,3.41745,4
1777158813751,0.28157,0.950804,0.182751,0.422162,0.203907,-0.129155,0,0,3.5513,4
1777158813764,0.290279,0.943357,0.172985,0.412298,0.202238,-0.14226,0,0,3.46656,4
1777158813778,0.293304,0.939271,0.167177,0.395566,0.184308,-0.151896,0,0,3.58758,4
1777158813792,0.285538,0.939746,0.158305,0.373621,0.156198,-0.15284,0,0,3.50409,4
1777158813806,0.273552,0.943407,0.15308,0.349404,0.126628,-0.145394,0,0,3.97863,4
1777158813820,0.262245,0.948612,0.146645,0.327455,0.0985131,-0.13377,0,0,3.50052,4
1777158813834,0.252589,0.954773,0.143793,0.308477,0.0731121,-0.11907,0,0,3.46348,4
1777158813847,0.245298,0.958802,0.137842,0.29354,0.0557868,-0.10448,0,0,3.46804,4
1777158813861,0.240449,0.959952,0.130906,0.278917,0.0474559,-0.0898655,0,0,3.40102,4
1777158813874,0.239069,0.960822,0.127361,0.267685,0.0439614,-0.0780559,0,0,3.54419,4
1777158813888,0.244949,0.959583,0.120905,0.256264,0.0384411,-0.0696903,0,0,3.42639,4
1777158813901,0.249636,0.956287,0.114367,0.24134,0.028421,-0.0640931,0,0,3.5581,4
1777158813915,0.255089,0.955516,0.109848,0.224552,0.014104,-0.059645,0,0,3.49348,4
1777158813929,0.259244,0.955297,0.102966,0.209086,-0.00334843,-0.0583047,0,0,3.48698,4
1777158813942,0.261372,0.954689,0.0984377,0.193678,-0.0210982,-0.0616279,0,0,3.49152,4
1777158813956,0.260485,0.9568,0.0944741,0.180928,-0.0367549,-0.0642319,0,0,3.42774,4
1777158813969,0.257108,0.958954,0.091065,0.1709,-0.0491024,-0.0655241,0,0,3.47717,4
1777158813983,0.251796,0.962786,0.0885556,0.162799,-0.0552952,-0.0686365,0,0,3.40893,4
1777158813996,0.246863,0.966564,0.0838031,0.159063,-0.0560539,-0.0747161,0,0,3.51043,4
1777158814010,0.24274,0.968332,0.0814785,0.157476,-0.0519024,-0.0799098,0,0,3.44119,4
1777158814024,0.241284,0.971347,0.0790098,0.159003,-0.0479849,-0.0839833,0,0,3.52539,4
1777158814037,0.239987,0.971551,0.0760942,0.160722,-0.0429263,-0.0897062,0,0,3.43089,4
1777158814051,0.241114,0.973113,0.0711501,0.163629,-0.0352121,-0.0983811,0,0,3.50924,4
1777158814064,0.243765,0.974275,0.0682408,0.167363,-0.0296997,-0.108867,0,0,3.52726,4
1777158814078,0.243814,0.973643,0.0640741,0.168311,-0.0290118,-0.118127,0,0,3.42813,4
1777158814092,0.239739,0.97657,0.0596844,0.168313,-0.0296345,-0.125144,0,0,3.50141,4
1777158814105,0.23115,0.98178,0.0542324,0.168861,-0.030955,-0.127735,0,0,3.41909,4
1777158814119,0.225752,0.984181,0.0522012,0.167601,-0.0363811,-0.125224,0,0,3.73054,4
1777158814132,0.222867,0.986105,0.0479926,0.1651,-0.0474041,-0.117941,0,0,3.42376,4
1777158814146,0.216405,0.98636,0.0414111,0.16168,-0.0583075,-0.110053,0,0,3.42848,4
1777158814159,0.209282,0.988028,0.0356324,0.156578,-0.0668211,-0.101698,0,0,3.47909,4
1777158814173,0.208471,0.98996,0.0320308,0.152581,-0.073496,-0.090499,0,0,3.43789,4
1777158814187,0.207059,0.992055,0.0272631,0.149504,-0.0805469,-0.0821461,0,0,3.4976,4
1777158814200,0.206058,0.997895,0.0249573,0.146037,-0.0885473,-0.0758596,0,0,3.408,4
1777158814214,0.208792,1.00245,0.0250788,0.144675,-0.103306,-0.0664861,0,0,3.53639,4
1777158814227,0.209557,1.00908,0.0231574,0.144863,-0.123251,-0.0571608,0,0,3.49667,4
1777158814241,0.211541,1.01586,0.0223579,0.146317,-0.146462,-0.0494406,0,0,3.51867,4
1777158814254,0.218153,1.02175,0.0212776,0.149819,-0.174368,-0.0430453,0,0,3.44593,4
1777158814268,0.225728,1.0277,0.020951,0.154455,-0.208156,-0.0396752,0,0,3.49209,4
1777158814282,0.229666,1.03318,0.0222438,0.160557,-0.24429,-0.0411033,0,0,3.48554,4
1777158814295,0.23315,1.03898,0.0190874,0.169192,-0.286336,-0.0390747,0,0,3.35678,4
1777158814309,0.226941,1.05771,0.0179877,0.182087,-0.325573,-0.0404375,0,0,3.47221,4
1777158814322,0.2682,1.11123,-0.00410373,0.21978,-0.328117,-0.0270949,0,0,3.74747,4
1777158814336,0.268246,1.08824,0.0173485,0.25413,-0.36763,-0.0142076,0,0,3.52017,4
1777158814350,0.278807,1.10431,0.0371321,0.292665,-0.413673,-0.0465343,0,0,3.42726,4
1777158814363,0.248405,1.11695,0.0353918,0.321992,-0.452171,-0.0977862,0,0,3.41902,4
1777158814377,0.20335,1.12885,0.0409264,0.358098,-0.473565,-0.132519,0,0,3.47523,4
1777158814390,0.171921,1.1397,0.0412277,0.414051,-0.468276,-0.146056,0,0,3.40967,1
1777158814404,0.145502,1.14404,0.0397521,0.475793,-0.451578,-0.148596,0,0,3.4795,1
1777158814417,0.135047,1.14069,0.0348998,0.536672,-0.428466,-0.15565,0,0,3.38521,1
1777158814431,0.133981,1.13489,0.0267299,0.596107,-0.401457,-0.169721,0,0,3.50513,1
1777158814444,0.134888,1.12529,0.0140709,0.652087,-0.37073,-0.188291,0,0,3.42365,1
1777158814458,0.143172,1.11473,8.80236e-05,0.705988,-0.338369,-0.206019,0,0,3.44976,1
1777158814471,0.163008,1.10791,-0.0144973,0.756912,-0.311924,-0.215805,0,0,3.46039,1
1777158814485,0.196477,1.10399,-0.0325332,0.809665,-0.305153,-0.217751,0,0,3.39037,1
1777158814499,0.233707,1.09266,-0.0465518,0.854187,-0.329268,-0.215288,0,0,3.49178,1
1777158814512,0.269023,1.07749,-0.0616506,0.885079,-0.384187,-0.216532,0,0,3.3843,1
1777158814526,0.303384,1.06924,-0.0632103,0.905518,-0.471135,-0.221168,0,0,3.55858,1
1777158814539,0.332317,1.0737,-0.0628271,0.923822,-0.583313,-0.225745,0,0,3.47139,1
1777158814553,0.353449,1.08866,-0.0524891,0.949623,-0.706794,-0.228349,0,0,3.44043,1
1777158814566,0.360696,1.09252,-0.0446073,0.976225,-0.827392,-0.231665,0,0,3.47859,1
1777158814580,0.363417,1.09805,-0.0292386,1.00356,-0.938272,-0.237902,0,0,3.44456,1
1777158814593,0.345416,1.10691,-0.00527849,1.03409,-1.03523,-0.249753,0,0,3.48698,1
1777158814607,0.31148,1.1166,0.00609802,1.07222,-1.11423,-0.270863,0,0,3.3878,1
1777158814620,0.254382,1.12819,-0.0165178,1.11333,-1.17413,-0.296495,0,0,3.48132,1
1777158814634,0.169483,1.1841,-0.0803249,1.17345,-1.19958,-0.326405,0,0,3.47939,1
1777158814648,0.0898518,1.32324,-0.176807,1.30449,-1.1514,-0.360821,0,0,3.503,1
1777158814661,0.13354,1.34866,-0.232296,1.50396,-1.05817,-0.365022,0,0,3.41882,1
1777158814675,0.219663,1.19722,-0.236913,1.59307,-1.01749,-0.315648,0,0,3.44145,1
1777158814688,0.294406,1.10525,-0.252954,1.55623,-1.05794,-0.264211,0,0,3.49591,1
1777158814702,0.285241,1.09129,-0.269712,1.49324,-1.12617,-0.259921,0,0,3.37413,1
1777158814715,0.223653,1.10837,-0.262353,1.46516,-1.15232,-0.296626,0,0,3.49482,1
1777158814729,0.161624,1.09876,-0.286849,1.48248,-1.13632,-0.318308,0,0,3.48939,1
1777158814743,0.0895274,1.02243,-0.303258,1.48045,-1.10084,-0.329748,0,0,3.49717,1
1777158814756,-0.00115457,0.935892,-0.337452,1.40678,-1.03047,-0.345032,0,0,3.42352,1
1777158814770,-0.110514,0.854742,-0.363762,1.27611,-0.889921,-0.352857,0,0,3.5883,1
1777158814783,-0.203758,0.781583,-0.377339,1.11874,-0.678725,-0.314251,0,0,3.49024,1
1777158814797,-0.239867,0.713239,-0.373846,0.955655,-0.445897,-0.209548,0,0,3.48572,1
1777158814810,-0.217846,0.650491,-0.365119,0.787053,-0.261377,-0.0629311,0,0,3.52002,1
1777158814824,-0.173376,0.591346,-0.351976,0.601679,-0.15387,0.0734353,0,0,3.41522,1
1777158814838,-0.132674,0.543342,-0.337541,0.408346,-0.117233,0.167659,0,0,3.55843,1
1777158814851,-0.113228,0.504815,-0.328257,0.214881,-0.123152,0.227566,0,0,3.44322,1
1777158814865,-0.116999,0.465575,-0.321548,0.0173756,-0.136622,0.273862,0,0,3.52243,1
1777158814878,-0.135201,0.431023,-0.317718,-0.184833,-0.135544,0.319211,0,0,3.43824,1
1777158814892,-0.159562,0.396584,-0.313781,-0.391102,-0.110561,0.372968,0,0,3.47387,1
1777158814906,-0.181646,0.360571,-0.310717,-0.611109,-0.0680121,0.439522,0,0,3.56171,1
1777158814919,-0.191522,0.325218,-0.30722,-0.854423,-0.0196666,0.515696,0,0,3.40011,1
1777158814933,-0.187035,0.297773,-0.294082,-1.12768,0.0231786,0.591642,0,0,3.54209,1
1777158814946,-0.166217,0.292185,-0.268552,-1.35663,0.0520636,0.649956,0,0,3.44369,1
1777158814960,-0.14708,0.30876,-0.216241,-1.54742,0.0636026,0.677597,0,0,3.54795,1
1777158814973,-0.131109,0.35558,-0.11935,-1.70641,0.0514246,0.681013,0,0,3.4678,1
1777158814987,-0.0874515,0.443651,-0.0596439,-1.83891,-0.00942353,0.677829,0,0,3.52346,1
1777158815001,-0.0514773,0.531183,-0.0213501,-1.94932,-0.118476,0.69627,0,0,3.47221,1
1777158815014,-0.0638359,0.61487,-0.0248102,-2.04133,-0.212674,0.732858,0,0,3.41828,1
1777158815028,-0.108539,0.692966,-0.0293907,-2.118,-0.254073,0.759952,0,0,3.82872,1
1777158815042,-0.116821,0.767495,-0.0314373,-2.1819,-0.266041,0.763777,0,0,3.39498,1
1777158815055,-0.0929657,0.851602,-0.0218898,-2.23514,-0.290263,0.761608,0,0,3.51628,2
1777158815069,-0.110281,0.94853,-0.0189731,-2.27951,-0.310525,0.760856,0,0,3.43926,2
1777158815082,-0.171802,1.05212,-0.0288268,-2.29594,-0.277142,0.756044,0,0,3.55428,2
1777158815096,-0.217495,1.12503,-0.0360952,-2.27135,-0.175646,0.761335,0,0,3.46304,2
1777158815109,-0.20328,1.17277,-0.0394138,-2.22304,-0.0487383,0.788441,0,0,3.44339,2
1777158815123,-0.150756,1.21975,-0.0348957,-2.16668,0.0531252,0.822428,0,0,3.48182,5
1777158815137,-0.102836,1.26096,-0.0275949,-2.10476,0.118622,0.838499,0,0,3.47039,5
1777158815150,-0.0856176,1.29552,-0.0202911,-2.03659,0.169043,0.827541,0,0,3.50169,5
1777158815164,-0.100394,1.33237,-0.014947,-1.95833,0.239037,0.800063,0,0,3.40543,5
1777158815177,-0.121009,1.37666,-0.0103071,-1.85254,0.340241,0.76752,0,0,3.49265,5
1777158815191,-0.11539,1.41524,-0.0128095,-1.71383,0.44875,0.73586,0,0,3.43687,5
1777158815204,-0.0753807,1.43197,-0.0192609,-1.55921,0.534709,0.705608,0,0,3.61778,5
1777158815218,-0.0211151,1.42958,-0.0357683,-1.40114,0.574828,0.669635,0,0,3.48045,4
1777158815232,0.0289594,1.41229,-0.0498753,-1.24606,0.567687,0.621897,0,0,3.87904,4
1777158815246,0.0590521,1.38633,-0.0605148,-1.09892,0.530134,0.559927,0,0,3.54395,4
1777158815259,0.0692544,1.3674,-0.0612911,-0.955054,0.488686,0.486224,0,0,3.39461,4
1777158815273,0.0707129,1.3502,-0.0528606,-0.801438,0.4579,0.409932,0,0,3.49871,4
1777158815286,0.0872606,1.31988,-0.0381416,-0.644239,0.432194,0.344371,0,0,3.47228,4
1777158815300,0.125274,1.28458,-0.00901907,-0.495225,0.391943,0.297676,0,0,3.54115,4
1777158815314,0.168219,1.2362,0.0271398,-0.363641,0.328375,0.262669,0,0,3.45356,4
1777158815327,0.19669,1.18153,0.0659334,-0.259332,0.250172,0.224616,0,0,3.42589,4
1777158815341,0.208573,1.13078,0.105534,-0.186199,0.172854,0.178567,0,0,3.47047,4
1777158815354,0.215158,1.09196,0.136668,-0.129759,0.100839,0.132622,0,0,3.36958,4
1777158815368,0.21769,1.07534,0.164728,-0.0772037,0.0337523,0.0944499,0,0,3.46956,4
1777158815381,0.220403,1.05563,0.202313,-0.0174662,-0.0258298,0.0623978,0,0,3.4438,4
1777158815395,0.229773,1.04006,0.314087,0.0338673,-0.0783824,0.0289065,0,0,3.51422,4
1777158815409,0.249843,1.06094,0.40309,0.10681,-0.12397,-0.00503335,0,0,3.41819,4
1777158815422,0.238861,1.0927,0.37764,0.218831,-0.180229,-0.0292072,0,0,3.58946,4
1777158815436,0.189884,1.07097,0.348081,0.284267,-0.196209,-0.0191358,0,0,3.49034,4
1777158815450,0.15209,1.05409,0.343199,0.337411,-0.148533,0.00335379,0,0,3.54069,4
1777158815463,0.148102,1.04104,0.350028,0.402168,-0.0782559,0.0160137,0,0,3.53687,4
1777158815477,0.162237,1.02337,0.346402,0.452328,-0.034628,0.0173396,0,0,3.43537,4
1777158815490,0.172194,1.00083,0.344154,0.481482,-0.0167829,0.021498,0,0,3.54784,4
1777158815504,0.168291,0.980388,0.34291,0.501121,0.00378782,0.0346071,0,0,3.45678,4
1777158815518,0.170404,0.971037,0.335364,0.520476,0.025243,0.0519563,0,0,3.58578,4
1777158815531,0.183499,0.960795,0.328169,0.537381,0.033644,0.0650272,0,0,3.50041,4
1777158815545,0.19876,0.949199,0.325654,0.545019,0.0259247,0.0687059,0,0,3.50972,4
1777158815559,0.208279,0.941223,0.322955,0.549602,0.00636219,0.0654483,0,0,3.49815,4
1777158815572,0.214967,0.936036,0.318618,0.554783,-0.0207033,0.0623774,0,0,3.38017,4
1777158815586,0.228013,0.931178,0.301887,0.553541,-0.0419092,0.063457,0,0,3.50174,4
1777158815599,0.240819,0.927121,0.284529,0.538892,-0.0632449,0.0570666,0,0,3.43398,4
1777158815613,0.233342,0.930354,0.264505,0.513669,-0.07904,0.0397183,0,0,3.62619,4
1777158815627,0.214176,0.937473,0.258604,0.48989,-0.0688819,0.0264574,0,0,3.46137,4
1777158815640,0.203904,0.948415,0.244344,0.479145,-0.0494372,0.0238672,0,0,3.74352,4
1777158815654,0.20496,0.947877,0.23502,0.467519,-0.0375972,0.030042,0,0,3.52826,4
1777158815668,0.204589,0.943614,0.231879,0.448925,-0.0394353,0.0375413,0,0,3.46333,4
1777158815681,0.199699,0.945189,0.220915,0.431699,-0.0516414,0.046857,0,0,3.54561,4
1777158815695,0.191658,0.944466,0.216898,0.405411,-0.0623984,0.0632205,0,0,3.46241,4
1777158815709,0.184418,0.947762,0.206365,0.382283,-0.0695432,0.084872,0,0,3.53345,4
1777158815722,0.184567,0.951622,0.19767,0.35946,-0.0718712,0.106516,0,0,3.45891,4
1777158815736,0.19528,0.950823,0.190603,0.340186,-0.0707833,0.122147,0,0,3.99509,4
1777158815750,0.209344,0.946107,0.185433,0.320511,-0.0760726,0.125161,0,0,3.46498,4
1777158815763,0.221361,0.943557,0.180493,0.298721,-0.0809765,0.119288,0,0,3.48613,4
1777158815777,0.227193,0.945397,0.174436,0.280664,-0.083142,0.109267,0,0,3.509,4
1777158815791,0.230038,0.949826,0.169851,0.267017,-0.0805445,0.0990199,0,0,3.42213,4
1777158815804,0.235274,0.953027,0.165711,0.258914,-0.0746395,0.0893487,0,0,3.52421,4
1777158815818,0.240239,0.952622,0.158448,0.252517,-0.0704184,0.0778033,0,0,3.42067,4
1777158815831,0.244581,0.951755,0.15256,0.243904,-0.0658576,0.0642127,0,0,3.50406,4
1777158815845,0.248094,0.953319,0.147159,0.236879,-0.0611409,0.0491976,0,0,3.46906,4
1777158815859,0.251756,0.954387,0.140733,0.230631,-0.0599584,0.0365069,0,0,3.52902,4
1777158815872,0.254291,0.953288,0.135442,0.222065,-0.063464,0.0270636,0,0,3.48165,4
1777158815886,0.252471,0.95436,0.130431,0.212319,-0.067505,0.0190034,0,0,3.59682,4
1777158815900,0.251405,0.957962,0.12756,0.204503,-0.0715086,0.0119685,0,0,3.5138,4
1777158815913,0.252539,0.96141,0.123909,0.199197,-0.0747814,0.00544447,0,0,3.42984,4
1777158815927,0.255583,0.961573,0.119581,0.19713,-0.0798751,-0.00379627,0,0,3.51487,4
1777158815940,0.257131,0.959655,0.115919,0.196107,-0.0858882,-0.0182145,0,0,3.49778,4
1777158815954,0.256899,0.960983,0.112226,0.194835,-0.0926804,-0.0355604,0,0,3.51898,4
1777158815968,0.252709,0.965545,0.108311,0.195047,-0.0965212,-0.0522927,0,0,3.45122,4
1777158815981,0.247236,0.970536,0.104655,0.198506,-0.0958415,-0.0650022,0,0,3.45484,4
1777158815995,0.245799,0.97355,0.100355,0.205396,-0.0937101,-0.073596,0,0,3.49139,4
1777158816008,0.248122,0.973175,0.0950772,0.210311,-0.0964378,-0.0809737,0,0,3.40748,4
1777158816022,0.251008,0.973203,0.0896905,0.211124,-0.105136,-0.0880506,0,0,3.47887,4
1777158816035,0.248172,0.976444,0.0847241,0.209258,-0.119369,-0.0913653,0,0,3.43984,4
1777158816049,0.245872,0.981318,0.082439,0.210641,-0.129436,-0.0836569,0,0,3.54674,4
1777158816063,0.241333,0.984584,0.0757257,0.216119,-0.141502,-0.0659227,0,0,3.4665,4
1777158816076,0.236973,0.988771,0.0650393,0.216219,-0.150565,-0.0627219,0,0,3.52691,4
1777158816090,0.247827,0.992696,0.0588494,0.216926,-0.160814,-0.0706397,0,0,3.46221,4
1777158816103,0.251877,0.993336,0.0531214,0.218303,-0.180653,-0.0790318,0,0,3.53309,4
1777158816117,0.247608,0.992381,0.0474082,0.219018,-0.196727,-0.0842822,0,0,3.48298,4
1777158816131,0.244095,0.993127,0.0423192,0.2202,-0.208252,-0.0868128,0,0,3.39406,4
1777158816144,0.24735,0.994676,0.03626,0.222787,-0.222271,-0.0905374,0,0,3.49411,4
1777158816158,0.248568,0.996504,0.0335087,0.223366,-0.238394,-0.0984504,0,0,3.43895,4
1777158816171,0.240682,1.0007,0.0291574,0.224892,-0.24758,-0.108098,0,0,3.49706,2
1777158816185,0.229749,1.00858,0.0254761,0.233504,-0.249994,-0.1154,0,0,3.42622,2
1777158816198,0.221061,1.01324,0.0197061,0.244841,-0.245631,-0.118546,0,0,3.42734,2
1777158816212,0.262161,1.04055,-0.011652,0.271401,-0.228675,-0.0971086,0,0,3.48537,2
1777158816225,0.24769,1.02327,-0.0210227,0.280544,-0.254672,-0.0953767,0,0,3.40224,2
1777158816239,0.240724,1.03484,-0.0115607,0.282451,-0.272265,-0.127674,0,0,3.46737,2
1777158816253,0.218171,1.04891,-0.0143483,0.292933,-0.281315,-0.154219,0,0,3.47159,2
1777158816266,0.204092,1.06888,-0.0137123,0.315739,-0.279365,-0.156328,0,0,3.47656,2
1777158816280,0.187622,1.07846,-0.0121305,0.346106,-0.275247,-0.155782,0,0,3.42906,2
1777158816293,0.170008,1.10267,-0.0038082,0.375584,-0.263253,-0.165582,0,0,3.48821,2
1777158816307,0.160313,1.14297,0.00711719,0.426727,-0.236057,-0.174003,0,0,3.42915,2
1777158816320,0.158491,1.17039,0.0140292,0.497515,-0.204615,-0.1756,0,0,3.49726,2
1777158816334,0.160126,1.17988,0.019226,0.570333,-0.18153,-0.175621,0,0,3.47923,2
1777158816348,0.159647,1.18954,0.0220974,0.639782,-0.167395,-0.177203,0,0,3.47443,2
1777158816361,0.156207,1.19844,0.0242042,0.710543,-0.159941,-0.179769,0,0,3.48567,2
1777158816375,0.153125,1.19825,0.0242319,0.779346,-0.155905,-0.182962,0,0,3.40932,2
1777158816388,0.151574,1.19146,0.0197519,0.842699,-0.153916,-0.185357,0,0,3.49839,1
1777158816402,0.152769,1.18113,0.0104252,0.900277,-0.152792,-0.185787,0,0,3.43613,1
1777158816416,0.163523,1.16968,-0.00233724,0.957139,-0.156449,-0.185573,0,0,3.45476,1
1777158816429,0.178715,1.14333,-0.00891396,1.00498,-0.16825,-0.18794,0,0,3.46767,1
1777158816443,0.202971,1.12737,-0.0161683,1.04128,-0.187931,-0.19271,0,0,3.48378,1
1777158816456,0.230177,1.11744,-0.0216945,1.07207,-0.212868,-0.199345,0,0,3.49611,1
1777158816470,0.271909,1.10039,-0.0253665,1.10265,-0.251042,-0.2099,0,0,3.3993,1
1777158816483,0.329151,1.09182,-0.0243402,1.13119,-0.310016,-0.222105,0,0,3.49337,1
1777158816497,0.393359,1.08899,-0.0133795,1.16395,-0.392863,-0.231181,0,0,3.42041,1
1777158816510,0.44103,1.08556,0.0101959,1.19487,-0.506559,-0.244432,0,0,3.44961,1
1777158816524,0.46434,1.09192,0.0223,1.22481,-0.648774,-0.264012,0,0,3.47254,1
1777158816538,0.437897,1.11899,-0.00393073,1.265,-0.798202,-0.281867,0,0,3.48682,1
1777158816551,0.363593,1.23248,-0.0920131,1.34525,-0.915855,-0.312523,0,0,3.48745,1
1777158816565,0.303166,1.40163,-0.162826,1.53792,-0.973518,-0.360576,0,0,3.37372,1
1777158816578,0.290047,1.37586,-0.15871,1.69848,-0.987995,-0.393266,0,0,3.48802,1
1777158816592,0.320288,1.25021,-0.183802,1.75598,-0.969271,-0.397658,0,0,3.41667,1
1777158816606,0.345803,1.19475,-0.19616,1.73586,-0.97966,-0.402501,0,0,3.54145,1
1777158816619,0.337747,1.19537,-0.197207,1.70945,-1.01712,-0.427771,0,0,3.47687,1
1777158816633,0.293948,1.18272,-0.228871,1.71113,-1.07612,-0.470764,0,0,3.46495,1
1777158816646,0.210817,1.1138,-0.265114,1.68028,-1.11633,-0.551349,0,0,3.46317,1
1777158816660,0.0603986,1.04475,-0.323122,1.59138,-1.05222,-0.66288,0,0,3.40519,1
1777158816673,-0.103335,0.955692,-0.355728,1.44645,-0.842383,-0.752921,0,0,3.54441,1
1777158816687,-0.216602,0.887311,-0.378535,1.28043,-0.529594,-0.750094,0,0,3.43883,1
1777158816701,-0.249218,0.832123,-0.38119,1.1261,-0.20503,-0.652279,0,0,3.53128,1
