timestamp,ax,ay,az,gx,gy,gz,roll,pitch,delay_ms,classe_prevista
1777250994672,0.0157789,0.775043,-0.0946733,0.0268999,-0.27546,0.210148,0,0,3.27814,-1
1777250994686,0.0145412,0.879913,-0.110766,0.0130779,-0.165136,0.101141,0,0,3.32973,-1
1777250994699,0.0122641,0.918052,-0.116898,0.00729283,-0.120982,0.0697619,0,0,3.24734,-1
1777250994712,0.011157,0.939676,-0.120478,0.00361153,-0.0968489,0.0555634,0,0,3.26727,-1
1777250994726,0.0120192,0.953578,-0.120126,0.00113222,-0.0820783,0.0477727,0,0,3.26051,-1
1777250994739,0.0124907,0.962758,-0.122888,-0.000268596,-0.072017,0.0433908,0,0,3.24432,-1
1777250994752,0.0129052,0.969605,-0.124347,-0.000908828,-0.0644695,0.0403318,0,0,3.25227,-1
1777250994766,0.0130033,0.9759,-0.124649,-0.000665535,-0.0587495,0.0381207,0,0,3.25382,-1
1777250994779,0.0131092,0.980057,-0.124095,-0.000154165,-0.0540749,0.0367175,0,0,3.26225,-1
1777250994792,0.0128828,0.982523,-0.124868,0.000236812,-0.0501392,0.0357079,0,0,3.26895,-1
1777250994806,0.0137835,0.985924,-0.124543,0.000992484,-0.0467441,0.0347641,0,0,3.24245,-1
1777250994819,0.0138412,0.988139,-0.12488,0.00177973,-0.0435146,0.0336831,0,0,3.24094,-1
1777250994832,0.0140621,0.989416,-0.125941,0.00242771,-0.040981,0.032589,0,0,3.24455,-1
1777250994846,0.014682,0.990219,-0.126494,0.00269673,-0.0384637,0.0316333,0,0,3.24155,-1
1777250994859,0.0151866,0.991254,-0.127175,0.00281674,-0.0362257,0.0307097,0,0,3.24742,-1
1777250994873,0.0147512,0.99217,-0.127627,0.00282319,-0.0341107,0.0302035,0,0,3.32371,-1
1777250994886,0.0147798,0.993349,-0.127069,0.00274962,-0.0320603,0.0301714,0,0,3.25892,-1
1777250994899,0.015157,0.995269,-0.127289,0.00277149,-0.0301537,0.0301151,0,0,3.25068,-1
1777250994913,0.0158908,0.995788,-0.12771,0.00286609,-0.0285337,0.0299894,0,0,3.24925,-1
1777250994926,0.0167238,0.99631,-0.128026,0.00286324,-0.0270633,0.029244,0,0,3.24597,-1
1777250994939,0.0171892,0.996883,-0.12833,0.00279426,-0.025687,0.0282835,0,0,3.25051,-1
1777250994953,0.0181599,0.997584,-0.128688,0.0026109,-0.0241868,0.0270487,0,0,3.23808,-1
1777250994966,0.0183114,0.998701,-0.127978,0.00241787,-0.0229467,0.0257274,0,0,3.24597,-1
1777250994979,0.0183578,0.999435,-0.128207,0.00223517,-0.0217023,0.024544,0,0,3.25358,-1
1777250994993,0.0183702,1.00007,-0.1277,0.0021525,-0.0206054,0.0234842,0,0,3.25329,-1
1777250995006,0.0185176,1.0007,-0.127639,0.00225555,-0.0195895,0.0228005,0,0,3.25562,-1
1777250995021,0.0183853,1.0016,-0.127761,0.002599,-0.018427,0.0223625,0,0,4.19831,-1
1777250995035,0.0186326,1.00208,-0.127727,0.00288592,-0.0174433,0.021983,0,0,4.63898,-1
1777250995049,0.0191713,1.00247,-0.127578,0.00333222,-0.0165685,0.0216433,0,0,3.24881,-1
1777250995062,0.0189741,1.00267,-0.128094,0.00369836,-0.0156843,0.0213082,0,0,3.56082,0
1777250995076,0.019094,1.00309,-0.128302,0.00406294,-0.0148267,0.0209093,0,0,3.32849,0
1777250995091,0.0195371,1.00341,-0.12897,0.00451181,-0.01371,0.0201854,0,0,5.67896,0
1777250995105,0.0197228,1.00401,-0.129081,0.00512437,-0.0125036,0.0192751,0,0,3.42694,0
1777250995119,0.0198825,1.00451,-0.129185,0.00613913,-0.0112977,0.0175183,0,0,4.23994,0
1777250995133,0.0206421,1.00483,-0.129807,0.00739214,-0.00973244,0.0149886,0,0,3.45718,0
1777250995146,0.0210723,1.00477,-0.130037,0.00853695,-0.00817093,0.0124118,0,0,3.37249,0
1777250995160,0.0206033,1.00488,-0.129747,0.00966028,-0.0065771,0.010252,0,0,3.46503,0
1777250995173,0.0198959,1.00533,-0.129951,0.0107112,-0.00498755,0.00879349,0,0,3.38192,0
1777250995187,0.019231,1.00523,-0.130997,0.0114321,-0.00332272,0.00798722,0,0,3.47405,0
1777250995201,0.0192063,1.0052,-0.131646,0.0120227,-0.00188812,0.00778796,0,0,3.46044,0
1777250995214,0.0183747,1.00561,-0.132562,0.0124737,-0.00048619,0.00800573,0,0,3.42819,0
1777250995228,0.0181485,1.00551,-0.132187,0.0126198,0.000676629,0.00875867,0,0,3.33242,0
1777250995241,0.017644,1.00545,-0.132917,0.0123883,0.00156293,0.0102447,0,0,3.46629,0
1777250995255,0.0175154,1.00504,-0.133383,0.0119752,0.00238456,0.012264,0,0,3.40366,0
1777250995268,0.0174359,1.00477,-0.133613,0.0115341,0.00289872,0.0145167,0,0,3.33334,0
1777250995282,0.0188131,1.0045,-0.133471,0.0106127,0.00303288,0.0165137,0,0,3.37836,0
1777250995296,0.0184669,1.00523,-0.133724,0.00989986,0.00297357,0.0183308,0,0,3.82642,0
1777250995309,0.0193276,1.0049,-0.133935,0.00937473,0.00269759,0.0199097,0,0,3.46103,4
1777250995323,0.020263,1.00488,-0.133485,0.00886677,0.00222184,0.0209582,0,0,3.4594,4
1777250995336,0.0215583,1.00537,-0.13302,0.00862052,0.00188963,0.0216452,0,0,3.44853,4
1777250995350,0.0226282,1.00496,-0.133242,0.0084443,0.00157208,0.022026,0,0,3.38968,4
1777250995363,0.0232931,1.005,-0.13286,0.00829533,0.00136298,0.0218774,0,0,3.48996,4
1777250995377,0.0230812,1.00562,-0.133573,0.00822365,0.00112277,0.0219221,0,0,3.49071,4
1777250995391,0.0229225,1.00627,-0.133695,0.00805286,0.000879004,0.0224157,0,0,3.52897,4
1777250995404,0.0226354,1.0071,-0.133783,0.0079777,0.000481489,0.0233195,0,0,3.4669,4
1777250995418,0.0223646,1.00791,-0.133975,0.00786814,0.000196689,0.0250784,0,0,3.39951,4
1777250995431,0.0227271,1.00867,-0.133292,0.00800523,-2.90592e-05,0.0271758,0,0,3.44169,4
1777250995445,0.0233024,1.00873,-0.133718,0.00818178,-0.000156197,0.0294937,0,0,3.45738,4
1777250995458,0.0243256,1.0088,-0.133708,0.00854576,-0.000336231,0.0315648,0,0,3.38097,4
1777250995472,0.0256753,1.00831,-0.133548,0.00891494,-0.0004203,0.0328025,0,0,3.49503,4
1777250995486,0.0271134,1.00786,-0.13422,0.00939197,-0.000512495,0.0330997,0,0,3.41334,4
1777250995499,0.027579,1.00718,-0.134964,0.00983353,-0.000728148,0.0332129,0,0,3.50286,4
1777250995513,0.0280732,1.00723,-0.135694,0.0100358,-0.000824456,0.033234,0,0,3.44775,4
1777250995526,0.0285532,1.00703,-0.136162,0.0104282,-0.000773867,0.0331809,0,0,3.51195,4
1777250995540,0.0287595,1.00714,-0.136879,0.0107857,-0.000708978,0.0331695,0,0,3.70562,4
1777250995554,0.0290227,1.00674,-0.137021,0.0110373,-0.000604881,0.0333559,0,0,3.46444,4
1777250995568,0.0303676,1.00709,-0.136977,0.0112534,-0.000369499,0.0330475,0,0,3.45145,4
1777250995581,0.0311161,1.00709,-0.137318,0.0111573,-8.30758e-05,0.0324736,0,0,3.3676,4
1777250995595,0.0320007,1.00702,-0.137723,0.0109595,-1.28586e-06,0.0317606,0,0,3.46934,4
1777250995608,0.0332877,1.00738,-0.138311,0.0106657,-0.000116895,0.0308477,0,0,3.50566,4
1777250995622,0.0339407,1.00761,-0.138701,0.0104441,-0.000247429,0.0297848,0,0,3.48403,4
1777250995636,0.03405,1.00818,-0.13859,0.00996939,-0.000550556,0.028713,0,0,3.53057,4
1777250995649,0.0343998,1.00886,-0.138375,0.00966268,-0.000798103,0.0280998,0,0,3.48251,4
1777250995663,0.0339353,1.01034,-0.138392,0.00920614,-0.00110885,0.0287376,0,0,3.49405,4
1777250995676,0.0320312,1.01402,-0.137723,0.00921642,-0.000772497,0.0312242,0,0,3.42507,4
1777250995690,0.0330832,1.01438,-0.13805,0.00967157,-0.00024087,0.0333571,0,0,3.44375,4
1777250995704,0.035268,1.01403,-0.138112,0.010628,0.000376553,0.0344579,0,0,3.48466,4
1777250995717,0.0364808,1.0138,-0.138568,0.0123102,0.0011392,0.0345119,0,0,3.45894,4
1777250995731,0.039913,1.01448,-0.137519,0.0145832,0.00185047,0.0333208,0,0,3.46431,4
1777250995744,0.0418788,1.01408,-0.13731,0.017157,0.00250469,0.0309075,0,0,3.57068,4
1777250995758,0.0432274,1.01394,-0.137962,0.0199374,0.00281813,0.0279787,0,0,3.36225,4
1777250995771,0.0442675,1.01681,-0.138974,0.0238423,0.00306687,0.0245976,0,0,3.33953,4
1777250995785,0.0458793,1.0207,-0.137724,0.0287271,0.0030704,0.0211663,0,0,3.46971,4
1777250995798,0.0472911,1.02945,-0.135901,0.0361214,0.00265834,0.0176365,0,0,3.38549,4
1777250995812,0.0501028,1.04103,-0.135084,0.0465866,0.00110888,0.0135381,0,0,3.49399,4
1777250995826,0.0612618,1.05221,-0.129232,0.0638601,-0.00405352,0.00453099,0,0,3.46403,4
1777250995839,0.078848,1.08713,-0.131391,0.090339,-0.0161033,0.0137448,0,0,3.46494,4
1777250995853,0.0696315,1.11079,-0.123706,0.140345,-0.025884,-1.41023e-05,0,0,3.48053,4
1777250995866,0.0809957,1.13673,-0.119574,0.193484,-0.0397493,-0.0025355,0,0,3.41566,4
1777250995880,0.0743157,1.1639,-0.11503,0.256968,-0.0526226,-0.00674819,0,0,3.57125,4
1777250995894,0.0693526,1.19169,-0.11259,0.330679,-0.0637545,-0.0100737,0,0,3.65584,4
1777250995908,0.0732685,1.21407,-0.108096,0.413717,-0.0765828,-0.0131269,0,0,3.49029,4
1777250995921,0.0785533,1.23359,-0.103813,0.504601,-0.0920871,-0.0171094,0,0,3.4339,4
1777250995935,0.0883897,1.25975,-0.0951954,0.602208,-0.108623,-0.0256343,0,0,3.49149,4
1777250995948,0.102906,1.28204,-0.0902663,0.70597,-0.12698,-0.0385411,0,0,3.4932,4
1777250995962,0.123811,1.30275,-0.0884212,0.806678,-0.149549,-0.0579733,0,0,3.45477,4
1777250995976,0.130259,1.32323,-0.0889529,0.901736,-0.169601,-0.102885,0,0,3.50036,4
1777250995989,0.135565,1.34743,-0.0965076,0.991461,-0.190485,-0.176874,0,0,3.40732,4
1777250996003,0.128372,1.34247,-0.100448,1.07615,-0.194281,-0.245942,0,0,3.91788,4
1777250996017,0.147848,1.35083,-0.0891573,1.15609,-0.206219,-0.300426,0,0,3.44695,4
1777250996030,0.164082,1.3399,-0.0728855,1.23155,-0.216588,-0.367444,0,0,3.52631,4
1777250996044,0.175831,1.31856,-0.0619087,1.30278,-0.228383,-0.440042,0,0,3.62305,4
1777250996058,0.150425,1.30405,-0.0559299,1.37,-0.224273,-0.51195,0,0,3.57994,4
1777250996071,0.129032,1.24894,-0.0611463,1.43346,-0.199541,-0.561327,0,0,3.50934,4
1777250996085,0.108757,1.182,-0.068138,1.49336,-0.157471,-0.591153,0,0,3.41397,4
1777250996099,0.0970279,1.10588,-0.0750525,1.51937,-0.101144,-0.611744,0,0,3.56801,4
1777250996112,0.0907363,1.02236,-0.0776351,1.50324,-0.0367096,-0.63479,0,0,3.47358,4
1777250996126,0.0950411,0.936737,-0.0779365,1.44269,0.0269403,-0.655002,0,0,3.43634,4
1777250996139,0.106239,0.853736,-0.0765365,1.3392,0.0829436,-0.658318,0,0,3.49505,4
1777250996153,0.122671,0.776445,-0.0751877,1.19511,0.12633,-0.634618,0,0,3.46103,4
1777250996167,0.136071,0.711912,-0.0714084,1.01557,0.158328,-0.587571,0,0,3.47642,4
1777250996180,0.144352,0.671623,-0.0631029,0.818295,0.185051,-0.531529,0,0,3.46242,4
1777250996194,0.147169,0.649685,-0.0516889,0.632086,0.2101,-0.478562,0,0,3.5364,4
1777250996208,0.148596,0.637482,-0.0418191,0.456322,0.234745,-0.431255,0,0,3.91405,4
1777250996221,0.14919,0.641534,-0.0338449,0.290417,0.260739,-0.391795,0,0,3.46782,4
1777250996235,0.148052,0.659505,-0.0264413,0.133819,0.288059,-0.360381,0,0,3.3882,4
1777250996249,0.146704,0.684821,-0.0220001,-0.0139961,0.316604,-0.335915,0,0,3.49245,4
1777250996262,0.146418,0.707526,-0.0199307,-0.153519,0.345166,-0.31384,0,0,3.38844,4
1777250996276,0.147271,0.72652,-0.018799,-0.285217,0.373745,-0.289355,0,0,3.45199,4
1777250996289,0.151157,0.748995,-0.0178267,-0.409526,0.402827,-0.262368,0,0,3.35405,4
1777250996302,0.156496,0.778111,-0.0164433,-0.526863,0.431438,-0.234857,0,0,3.37032,4
1777250996316,0.163261,0.812208,-0.0155073,-0.637619,0.458941,-0.208786,0,0,3.47705,4
1777250996330,0.168592,0.840298,-0.0158015,-0.742161,0.486272,-0.183129,0,0,3.37731,4
1777250996343,0.173186,0.868004,-0.0145728,-0.84084,0.515037,-0.158876,0,0,3.41205,4
1777250996356,0.178535,0.903304,-0.013276,-0.933983,0.545687,-0.137851,0,0,3.35877,4
1777250996370,0.187487,0.942854,-0.0125177,-1.0219,0.57633,-0.120198,0,0,3.39131,4
1777250996383,0.19895,0.988225,-0.0138286,-1.10489,0.60456,-0.102597,0,0,3.38123,4
1777250996397,0.213304,1.03571,-0.0183801,-1.18322,0.627024,-0.0837349,0,0,3.6419,4
1777250996412,0.228919,1.08573,-0.0256753,-1.25716,0.641497,-0.0647966,0,0,4.44701,4
1777250996425,0.245138,1.13905,-0.037149,-1.32695,0.646881,-0.0487531,0,0,3.50584,4
1777250996439,0.260598,1.18961,-0.0548263,-1.39283,0.642902,-0.0362986,0,0,3.50546,4
1777250996453,0.279039,1.22842,-0.0783318,-1.44799,0.628087,-0.0279725,0,0,3.42071,5
1777250996466,0.300417,1.26151,-0.106969,-1.48903,0.599502,-0.0158957,0,0,3.52408,5
1777250996480,0.318774,1.29102,-0.140272,-1.51355,0.553812,0.00697044,0,0,3.43179,5
1777250996493,0.316163,1.31084,-0.179157,-1.52127,0.495155,0.0393914,0,0,3.62273,5
1777250996507,0.286199,1.32775,-0.223502,-1.51106,0.435451,0.062569,0,0,3.37955,5
1777250996521,0.236293,1.3412,-0.271617,-1.47872,0.386169,0.065191,0,0,3.43801,5
1777250996534,0.190186,1.3494,-0.320362,-1.42276,0.350386,0.047828,0,0,3.43499,5
1777250996547,0.160702,1.3499,-0.363839,-1.34805,0.323295,0.0224042,0,0,3.34157,5
1777250996561,0.144662,1.34894,-0.39803,-1.25787,0.298545,-0.00244126,0,0,3.37407,5
1777250996575,0.129673,1.34421,-0.421964,-1.15779,0.276125,-0.0230328,0,0,3.54547,5
1777250996588,0.11002,1.34356,-0.436845,-1.05058,0.259515,-0.042448,0,0,3.4539,5
1777250996602,0.0878122,1.33836,-0.440524,-0.938811,0.251235,-0.0636258,0,0,3.38675,5
1777250996616,0.0767789,1.267,-0.34222,-0.745847,0.222559,-0.0871268,0,0,4.15986,5
1777250996630,0.078306,1.31298,-0.275751,-0.576522,0.196099,-0.125773,0,0,3.37088,5
1777250996643,0.0480311,1.30335,-0.24611,-0.418284,0.185609,-0.141952,0,0,3.44569,5
1777250996657,0.0431047,1.28063,-0.221253,-0.273979,0.178353,-0.1432,0,0,3.46345,5
1777250996670,0.0556412,1.26119,-0.201366,-0.145672,0.165857,-0.153618,0,0,3.44025,5
1777250996684,0.0501784,1.24196,-0.187263,-0.0341197,0.151809,-0.15747,0,0,3.41883,5
1777250996697,0.0445427,1.2216,-0.178745,0.0609589,0.138541,-0.155038,0,0,3.45684,5
1777250996711,0.0310339,1.20735,-0.171047,0.138475,0.126274,-0.144603,0,0,3.81049,5
1777250996725,0.0253902,1.19273,-0.166971,0.202725,0.11613,-0.125291,0,0,3.47519,5
1777250996739,0.0217612,1.179,-0.164042,0.252413,0.104717,-0.0984937,0,0,3.76625,1
1777250996753,0.017117,1.16569,-0.157867,0.291375,0.0922149,-0.0686565,0,0,3.43086,1
1777250996766,0.0143081,1.15352,-0.153969,0.319237,0.0833429,-0.0378339,0,0,3.32192,1
1777250996780,0.0231053,1.1402,-0.158411,0.334973,0.0782355,-0.0177193,0,0,3.47377,1
1777250996793,0.0271227,1.12771,-0.162836,0.342504,0.079011,-0.00317761,0,0,3.37723,1
1777250996807,0.0384741,1.11819,-0.161932,0.346705,0.0809633,0.00118829,0,0,3.47436,1
1777250996820,0.0506815,1.10949,-0.163325,0.347121,0.085645,-0.00381963,0,0,3.44331,1
1777250996835,0.0572741,1.09901,-0.162956,0.345322,0.0921237,-0.0162626,0,0,4.06631,1
1777250996848,0.0598268,1.08751,-0.167688,0.339303,0.0985344,-0.0291979,0,0,3.46808,1
1777250996862,0.0604013,1.08219,-0.170881,0.330187,0.102085,-0.0401873,0,0,3.40038,1
1777250996875,0.0588483,1.07661,-0.172155,0.317789,0.102782,-0.0461714,0,0,3.46101,1
1777250996889,0.0573002,1.07242,-0.171304,0.304524,0.100527,-0.0471055,0,0,3.4392,1
1777250996903,0.0549626,1.06839,-0.171254,0.290752,0.0966527,-0.0442321,0,0,3.42105,1
1777250996916,0.0546459,1.06449,-0.170549,0.276216,0.0923574,-0.040248,0,0,3.48925,1
1777250996930,0.0560724,1.06071,-0.169323,0.261836,0.0880674,-0.0365432,0,0,3.47618,1
1777250996944,0.0577887,1.05631,-0.168275,0.248151,0.0843436,-0.0344291,0,0,3.36725,1
1777250996958,0.0595457,1.0534,-0.167641,0.235199,0.0813681,-0.0338339,0,0,3.84135,1
1777250996971,0.0623544,1.04972,-0.166728,0.222875,0.0789321,-0.0354429,0,0,3.42995,1
1777250996985,0.0647591,1.0462,-0.166017,0.210819,0.0765128,-0.0389013,0,0,3.46344,1
1777250996998,0.0664948,1.04301,-0.165483,0.198852,0.0734499,-0.0446793,0,0,3.4561,1
1777250997012,0.0669007,1.04232,-0.163062,0.187951,0.0704475,-0.0526936,0,0,3.34451,1
1777250997025,0.0683109,1.04063,-0.161981,0.177139,0.0667999,-0.0620183,0,0,3.4686,1
1777250997039,0.065205,1.04034,-0.162344,0.167541,0.0635068,-0.0709527,0,0,3.38609,1
1777250997053,0.0645602,1.03994,-0.160318,0.157282,0.0607239,-0.0762259,0,0,4.01585,4
1777250997067,0.0604459,1.03762,-0.160679,0.147544,0.0580885,-0.0776707,0,0,3.44614,4
1777250997080,0.0572471,1.03726,-0.158951,0.138129,0.0551427,-0.0762085,0,0,3.45103,4
1777250997094,0.0554328,1.03628,-0.157704,0.129165,0.0519169,-0.0733383,0,0,3.41892,4
1777250997107,0.0540215,1.03537,-0.157212,0.120892,0.0481655,-0.069824,0,0,3.43453,4
1777250997121,0.053785,1.034,-0.155953,0.113057,0.0441535,-0.0670336,0,0,3.52547,4
1777250997135,0.0532604,1.03152,-0.155655,0.105422,0.0402938,-0.0653116,0,0,3.44059,4
1777250997148,0.0538198,1.0299,-0.154579,0.0983744,0.0367062,-0.0656603,0,0,3.44455,4
1777250997162,0.0539643,1.02811,-0.154344,0.0920642,0.0334741,-0.0676935,0,0,3.43781,4
1777250997175,0.0528409,1.02637,-0.154081,0.0862193,0.0301834,-0.0706318,0,0,3.37586,4
1777250997191,0.0509588,1.02485,-0.152792,0.0802655,0.0267605,-0.0725275,0,0,3.43642,4
1777250997204,0.0479223,1.02424,-0.151808,0.0744658,0.0231827,-0.0725484,0,0,3.37149,4
1777250997218,0.0446591,1.02334,-0.151811,0.0684904,0.0193518,-0.0710224,0,0,3.45275,4
1777250997231,0.0415515,1.02283,-0.150937,0.0627304,0.0155045,-0.0678821,0,0,3.42645,4
1777250997245,0.0394536,1.02262,-0.150687,0.0571607,0.0117831,-0.0638818,0,0,3.54138,4
1777250997259,0.0374322,1.02218,-0.149534,0.0520275,0.00855301,-0.0595534,0,0,3.40058,4
1777250997272,0.0359762,1.02155,-0.149048,0.0474992,0.0057953,-0.0555664,0,0,3.43125,4
1777250997286,0.0350538,1.022,-0.148534,0.0438158,0.00353911,-0.0519785,0,0,3.34216,4
1777250997299,0.0340735,1.02193,-0.147365,0.041114,0.00184622,-0.0489901,0,0,3.46023,4
1777250997313,0.0324225,1.02198,-0.145672,0.0392788,0.000697889,-0.0465034,0,0,3.40294,4
1777250997326,0.0316309,1.02124,-0.144814,0.0381289,-0.000137684,-0.0447727,0,0,3.43573,4
1777250997340,0.0301716,1.02255,-0.142593,0.0380369,-0.000566711,-0.0432889,0,0,3.50497,4
1777250997353,0.0291913,1.02192,-0.142141,0.0383354,-0.00107016,-0.0422566,0,0,3.42801,4
1777250997367,0.0268966,1.02092,-0.141576,0.0388612,-0.00118568,-0.0407084,0,0,3.4887,5
1777250997380,0.0257165,1.02047,-0.141276,0.0391349,-0.0014446,-0.0377699,0,0,3.4162,5
1777250997394,0.0243562,1.01998,-0.141103,0.0391321,-0.00137641,-0.0339214,0,0,3.44864,5
1777250997407,0.0234282,1.01957,-0.141336,0.0390052,-0.00129064,-0.0291541,0,0,3.42381,5
1777250997421,0.0229494,1.01887,-0.141844,0.0382988,-0.00094849,-0.0239606,0,0,3.66118,5
1777250997438,0.022744,1.01826,-0.14205,0.0378847,-0.000445691,-0.0187843,0,0,6.50061,5
1777250997452,0.0220434,1.01806,-0.141641,0.0373482,5.88772e-05,-0.0131961,0,0,3.38431,5
1777250997470,0.021834,1.01771,-0.142022,0.0367177,0.000749237,-0.00744615,0,0,8.07036,5
1777250997483,0.0213351,1.01689,-0.142546,0.0360497,0.00140515,-0.000973923,0,0,3.36955,5
1777250997497,0.0212476,1.01618,-0.142329,0.0352993,0.00193864,0.00619288,0,0,3.40816,5
1777250997510,0.021302,1.01552,-0.14285,0.0345653,0.00231803,0.0139297,0,0,3.38186,5
1777250997525,0.0222297,1.01526,-0.142807,0.0340523,0.00244492,0.0208942,0,0,3.43332,5
1777250997539,0.0228179,1.01478,-0.143356,0.0337651,0.00232919,0.0269928,0,0,3.41158,5
1777250997553,0.0245371,1.01452,-0.143148,0.0334383,0.00211718,0.0321627,0,0,4.22864,5
1777250997567,0.026242,1.01304,-0.143513,0.033087,0.00165159,0.0362847,0,0,3.42014,5
1777250997581,0.0277417,1.01172,-0.144392,0.0327425,0.00103228,0.0396403,0,0,4.21168,5
1777250997594,0.0298283,1.01195,-0.144098,0.0327771,0.000353509,0.0424522,0,0,3.47603,5
1777250997608,0.0313186,1.01142,-0.144287,0.0330195,-0.000437056,0.0445712,0,0,3.39796,5
1777250997622,0.0327116,1.01108,-0.144999,0.0332998,-0.00140593,0.0462331,0,0,3.41679,5
1777250997635,0.0339169,1.01118,-0.145644,0.0337655,-0.00227336,0.0473436,0,0,3.41662,5
1777250997650,0.03526,1.01029,-0.146814,0.0340039,-0.00294655,0.0482676,0,0,4.71033,5
1777250997664,0.0348159,1.00877,-0.148055,0.0332826,-0.00337217,0.0496964,0,0,3.38281,5
1777250997678,0.0361223,1.01225,-0.147858,0.0333468,-0.00165011,0.0527878,0,0,4.18179,5
1777250997691,0.0399025,1.01199,-0.146233,0.0333903,-0.00141625,0.0520106,0,0,3.42905,5
1777250997706,0.040814,1.00973,-0.145987,0.0338424,-0.00105421,0.0512127,0,0,4.12268,5
1777250997719,0.042455,1.00632,-0.145399,0.0336183,-2.30902e-05,0.0496161,0,0,3.42097,5
1777250997733,0.0431,1.01993,-0.142146,0.036327,0.000851705,0.0485286,0,0,3.4336,5
1777250997747,0.050296,1.02859,-0.137486,0.0438936,0.000551301,0.045267,0,0,3.6181,5
1777250997760,0.0544452,1.05729,-0.13391,0.0581222,-0.00137221,0.0419443,0,0,3.38062,5
1777250997775,0.0698376,1.07465,-0.126851,0.0891597,-0.00960205,0.0584274,0,0,4.76727,5
1777250997789,0.064455,1.0968,-0.124542,0.124254,-0.0194855,0.0575437,0,0,3.3994,5
1777250997803,0.0677415,1.11484,-0.121665,0.166393,-0.0296881,0.0623829,0,0,3.98175,5
1777250997816,0.0707479,1.13544,-0.117045,0.217652,-0.0409198,0.0648698,0,0,3.41497,5
1777250997830,0.0735856,1.16151,-0.112794,0.278394,-0.0531229,0.066836,0,0,3.85629,5
1777250997844,0.0762641,1.19327,-0.106193,0.350372,-0.0675531,0.0712697,0,0,3.4419,5
1777250997857,0.082668,1.22186,-0.0999352,0.432464,-0.0853916,0.0770261,0,0,3.35838,5
1777250997871,0.0865078,1.24898,-0.0934669,0.52508,-0.104512,0.0806612,0,0,3.45038,5
1777250997884,0.100691,1.27285,-0.0874161,0.623235,-0.128374,0.0871968,0,0,3.37999,4
1777250997898,0.110668,1.29833,-0.0817595,0.727051,-0.157787,0.101099,0,0,3.47018,4
1777250997911,0.122962,1.34,-0.0722024,0.826573,-0.192415,0.121504,0,0,3.38416,4
1777250997925,0.137921,1.37255,-0.0621816,0.920513,-0.231827,0.144936,0,0,3.76246,4
1777250997939,0.1457,1.38641,-0.0578035,1.00918,-0.273215,0.184575,0,0,3.83031,4
1777250997953,0.145142,1.37352,-0.0701866,1.09288,-0.313554,0.207286,0,0,3.8449,4
1777250997967,0.150133,1.37327,-0.0668111,1.17188,-0.351185,0.20522,0,0,3.45297,4
1777250997980,0.153051,1.36217,-0.0593934,1.24645,-0.39127,0.200042,0,0,3.37912,4
1777250997994,0.159543,1.35211,-0.0472974,1.31684,-0.436852,0.19789,0,0,3.45231,4
1777250998007,0.1551,1.33829,-0.0234865,1.38328,-0.481898,0.191821,0,0,3.37677,4
1777250998021,0.15641,1.27802,-0.00542079,1.44599,-0.527025,0.176373,0,0,3.40903,4
1777250998034,0.149267,1.16286,-0.0199067,1.50518,-0.570606,0.152966,0,0,3.42357,4
1777250998048,0.129514,1.07702,-0.0292253,1.52706,-0.605786,0.128329,0,0,3.99662,4
1777250998062,0.0989412,0.984822,-0.0383772,1.50458,-0.625226,0.09949,0,0,3.44201,4
1777250998075,0.0684264,0.884649,-0.0449752,1.4375,-0.629536,0.0751162,0,0,3.3559,4
1777250998089,0.0425264,0.794546,-0.0481904,1.32717,-0.622031,0.0618252,0,0,3.44459,4
1777250998102,0.0180519,0.720727,-0.0503215,1.18241,-0.60559,0.0669339,0,0,3.46707,4
1777250998117,-0.00614536,0.653664,-0.0476357,1.00511,-0.580215,0.0952976,0,0,3.69588,4
1777250998131,-0.0273557,0.600332,-0.0441284,0.808422,-0.546992,0.14196,0,0,3.51882,4
1777250998144,-0.045596,0.564864,-0.0374763,0.622767,-0.506021,0.198079,0,0,3.44368,4
1777250998158,-0.0596909,0.548326,-0.0289104,0.447527,-0.459572,0.251659,0,0,3.45071,4
1777250998172,-0.0709409,0.545834,-0.0208934,0.282116,-0.41044,0.295288,0,0,4.26759,4
1777250998187,-0.0800125,0.56716,-0.0158323,0.125983,-0.361294,0.326459,0,0,4.77574,4
1777250998201,-0.0893832,0.599861,-0.0178885,-0.0213916,-0.314352,0.351184,0,0,3.40609,4
1777250998218,-0.0988582,0.620334,-0.0281419,-0.1605,-0.271195,0.370343,0,0,6.9235,4
1777250998232,-0.10279,0.634988,-0.0427639,-0.291805,-0.232459,0.375809,0,0,3.42245,4
1777250998246,-0.105364,0.663912,-0.0579899,-0.415745,-0.198481,0.3679,0,0,3.53005,4
1777250998259,-0.108108,0.698088,-0.0750186,-0.532733,-0.169959,0.35399,0,0,3.44484,4
1777250998274,-0.110549,0.730566,-0.0938035,-0.643159,-0.146244,0.341666,0,0,3.46014,4
1777250998287,-0.11848,0.775492,-0.117369,-0.747391,-0.123003,0.334734,0,0,3.46634,4
1777250998301,-0.133417,0.824472,-0.143405,-0.845776,-0.0941847,0.320103,0,0,3.50053,4
1777250998315,-0.154322,0.867116,-0.171282,-0.938642,-0.0557729,0.292141,0,0,3.43321,4
1777250998329,-0.166372,0.910476,-0.198279,-1.02314,-0.00938475,0.25762,0,0,4.20336,4
1777250998343,-0.158957,0.959046,-0.22531,-1.08966,0.0363153,0.226162,0,0,3.50534,4
1777250998358,-0.136565,1.00178,-0.252783,-1.13794,0.0731405,0.203731,0,0,4.26655,4
1777250998371,-0.109185,1.03934,-0.279797,-1.16879,0.0970969,0.188133,0,0,3.3882,4
1777250998385,-0.0822174,1.07106,-0.304542,-1.18323,0.109129,0.172232,0,0,3.44708,4
1777250998398,-0.0602685,1.09194,-0.326489,-1.18562,0.112484,0.157788,0,0,3.43212,4
1777250998412,-0.0442479,1.10983,-0.343164,-1.17703,0.110811,0.144073,0,0,3.44995,4
1777250998425,-0.0328919,1.12855,-0.354536,-1.15627,0.107807,0.127077,0,0,3.42846,4
1777250998439,-0.0251857,1.14202,-0.363695,-1.12341,0.105978,0.108743,0,0,3.36619,5
1777250998453,-0.0191169,1.14987,-0.370519,-1.08147,0.106683,0.0932019,0,0,4.25414,5
1777250998467,-0.00945816,1.15191,-0.375755,-1.03459,0.1099,0.0820436,0,0,3.52858,5
1777250998480,0.00498591,1.15464,-0.380342,-0.982166,0.11292,0.074911,0,0,3.43749,5
1777250998494,0.0218243,1.15045,-0.384411,-0.926428,0.112876,0.0709403,0,0,3.41373,5
1777250998508,0.0397175,1.14652,-0.38784,-0.870116,0.103852,0.0698171,0,0,3.44723,5
1777250998523,0.0303686,1.04593,-0.331986,-0.762832,0.0897838,0.0698745,0,0,4.6892,5
1777250998536,0.0438249,1.06202,-0.281374,-0.672818,0.0633982,0.0651158,0,0,3.42827,5
1777250998550,0.0373679,1.05078,-0.25606,-0.585224,0.0388781,0.06193,0,0,3.50914,5
1777250998563,0.0343543,1.04131,-0.232919,-0.501482,0.0186792,0.0636844,0,0,3.45016,5
1777250998578,0.0349197,1.03575,-0.214253,-0.424021,0.00422922,0.0630324,0,0,4.14883,5
1777250998591,0.0324679,1.03424,-0.195442,-0.350246,-0.00423347,0.0613208,0,0,3.42332,5
1777250998605,0.0285515,1.03115,-0.179673,-0.280061,-0.00874887,0.0606772,0,0,3.36358,5
1777250998618,0.027799,1.02668,-0.169389,-0.216232,-0.0119791,0.0608533,0,0,3.45581,5
1777250998632,0.0287732,1.0229,-0.160463,-0.159092,-0.0152893,0.0616961,0,0,3.3909,5
1777250998646,0.030843,1.02211,-0.15012,-0.10666,-0.0204605,0.0610058,0,0,3.70088,5
1777250998659,0.0288528,1.02296,-0.142658,-0.0592077,-0.024481,0.0625808,0,0,3.4381,5
1777250998673,0.0278095,1.02143,-0.137354,-0.0166348,-0.0277408,0.0645427,0,0,3.43849,5
1777250998686,0.0294404,1.02071,-0.133689,0.019842,-0.0303553,0.0668185,0,0,3.42879,5
1777250998700,0.0300623,1.01974,-0.131449,0.0516052,-0.0327846,0.0695146,0,0,3.47295,5
1777250998713,0.0317586,1.01777,-0.129786,0.0782682,-0.0342641,0.07167,0,0,3.43714,5
1777250998727,0.0330447,1.01485,-0.129778,0.0992951,-0.0345558,0.072514,0,0,3.37666,1
1777250998740,0.0365594,1.01018,-0.131865,0.112369,-0.0337908,0.0689261,0,0,3.46018,1
1777250998754,0.0384116,1.00819,-0.132535,0.12145,-0.0312788,0.0626021,0,0,3.43355,1
1777250998768,0.0419539,1.00583,-0.13366,0.127929,-0.0278415,0.0544533,0,0,3.52382,1
1777250998781,0.0439143,1.00212,-0.133817,0.131942,-0.0235865,0.0444751,0,0,3.39708,1
1777250998795,0.0451486,1.0004,-0.134555,0.134312,-0.0186282,0.0337507,0,0,3.40957,1
1777250998808,0.0447524,0.997114,-0.137826,0.134387,-0.0136311,0.0231653,0,0,3.42744,1
1777250998822,0.0424886,0.997098,-0.13645,0.131888,-0.0106399,0.0141329,0,0,3.34881,1
1777250998835,0.0417761,0.997124,-0.13567,0.129445,-0.00762387,0.00565419,0,0,3.37236,1
1777250998849,0.0401312,0.997395,-0.136496,0.126924,-0.00561622,-0.00154392,0,0,3.43197,1
1777250998862,0.0380581,0.998363,-0.135427,0.123705,-0.00420076,-0.00575203,0,0,3.43847,1
1777250998876,0.0363616,0.999468,-0.134185,0.120483,-0.0034984,-0.00798565,0,0,3.33605,1
1777250998889,0.0344315,0.999566,-0.134601,0.117035,-0.00325079,-0.00880515,0,0,3.46416,1
1777250998903,0.0330343,0.99996,-0.133898,0.113,-0.00328682,-0.00899207,0,0,3.34405,1
1777250998916,0.0324412,1.00039,-0.133686,0.109415,-0.00345357,-0.00921988,0,0,3.45032,1
1777250998930,0.0318951,1.00173,-0.13361,0.105693,-0.00387215,-0.00916515,0,0,3.41181,1
1777250998943,0.0323519,1.00313,-0.132675,0.102714,-0.0045413,-0.00966586,0,0,3.4249,1
1777250998957,0.0327146,1.00471,-0.13182,0.100622,-0.00571243,-0.0106823,0,0,3.9396,1
1777250998971,0.0328789,1.00543,-0.13152,0.0994871,-0.0071176,-0.0124766,0,0,3.53831,1
1777250998985,0.0321028,1.00633,-0.131893,0.0986295,-0.00844394,-0.0144615,0,0,3.46707,4
1777250998999,0.0301926,1.0058,-0.133383,0.0975161,-0.00930196,-0.0159155,0,0,3.50542,4
1777250999012,0.0279923,1.00529,-0.134556,0.095994,-0.00984638,-0.0168939,0,0,3.50581,4
1777250999026,0.0259839,1.00419,-0.136403,0.0938423,-0.0101333,-0.0164216,0,0,3.40051,4
1777250999040,0.0229516,1.00476,-0.136215,0.0915073,-0.00994172,-0.0145541,0,0,3.43175,4
1777250999053,0.0199113,1.00441,-0.136846,0.089072,-0.00947398,-0.0113014,0,0,3.45827,4
1777250999067,0.0200132,1.00369,-0.137209,0.0862809,-0.00872419,-0.0076359,0,0,3.44499,4
1777250999080,0.0176307,1.00415,-0.137606,0.0833937,-0.00771244,-0.00314838,0,0,3.40997,4
1777250999094,0.0195313,1.00279,-0.138692,0.0803687,-0.00686877,0.000659241,0,0,3.37401,4
1777250999108,0.0201612,1.00142,-0.139225,0.0773722,-0.00603817,0.00404347,0,0,3.46781,4
1777250999121,0.0207969,1.00243,-0.139345,0.0749076,-0.00542972,0.00681825,0,0,3.38216,4
1777250999136,0.022424,1.00405,-0.139335,0.0728126,-0.00535209,0.00822562,0,0,4.34085,4
1777250999149,0.0231656,1.00519,-0.14001,0.0711519,-0.00546294,0.00869767,0,0,3.60358,4
1777250999163,0.0240984,1.00515,-0.140619,0.0691005,-0.00576882,0.00807278,0,0,3.4299,4
1777250999176,0.0256225,1.00464,-0.14151,0.0669072,-0.0061132,0.00633539,0,0,3.41405,4
1777250999190,0.0257601,1.00483,-0.142364,0.0645587,-0.00665664,0.00390761,0,0,3.43236,4
1777250999204,0.0257805,1.0049,-0.142965,0.0620935,-0.00705399,0.0016631,0,0,3.41036,4
1777250999217,0.0258956,1.00489,-0.143874,0.0593556,-0.00764742,-0.000472639,0,0,3.36823,4
1777250999232,0.0254016,1.00433,-0.144651,0.0564544,-0.00839169,-0.00240722,0,0,4.68233,4
1777250999245,0.0246067,1.00291,-0.145863,0.0532535,-0.00926121,-0.00423329,0,0,3.37512,4
1777250999260,0.0240208,1.00215,-0.146473,0.0499538,-0.010386,-0.0058456,0,0,4.17644,4
1777250999273,0.0243167,1.00144,-0.146761,0.0467107,-0.0116617,-0.00784704,0,0,3.3211,4
1777250999287,0.0240209,1.00095,-0.147334,0.0434398,-0.0130543,-0.0102158,0,0,3.43247,4
1777250999300,0.0242894,1.00083,-0.147437,0.0402752,-0.0147156,-0.0134108,0,0,3.41625,4
1777250999314,0.024228,1.00096,-0.147781,0.0372967,-0.0162152,-0.0171417,0,0,3.39233,4
1777250999327,0.0240467,1.00183,-0.148105,0.0348535,-0.0175537,-0.0216138,0,0,3.37149,4
1777250999341,0.0232593,1.00264,-0.147987,0.0328343,-0.01868,-0.0263276,0,0,3.3804,4
1777250999354,0.021133,1.00268,-0.148711,0.0307699,-0.0197603,-0.0306741,0,0,3.51229,4
1777250999368,0.0182769,1.00386,-0.14949,0.0285215,-0.0206001,-0.0330984,0,0,3.40907,4
1777250999381,0.0139513,1.00536,-0.149842,0.0260653,-0.0207249,-0.0327833,0,0,3.33582,4
1777250999395,0.0106764,1.0067,-0.150324,0.0233872,-0.0202817,-0.0298011,0,0,3.40449,4
1777250999408,0.00888607,1.00752,-0.150369,0.0206666,-0.0194395,-0.0253677,0,0,3.33629,4
1777250999422,0.00767552,1.00779,-0.149973,0.0177475,-0.0186274,-0.0203052,0,0,3.44294,5
1777250999435,0.00709434,1.00856,-0.150229,0.014898,-0.0178952,-0.014833,0,0,3.36531,5
1777250999448,0.00664163,1.00846,-0.150375,0.0120798,-0.0171098,-0.00909394,0,0,3.36532,5
1777250999462,0.00599519,1.00761,-0.150677,0.00884597,-0.0163213,-0.00321866,0,0,3.41862,5
1777250999479,0.00511113,1.00566,-0.151305,0.00531393,-0.0153801,0.00299502,0,0,5.21081,5
1777250999492,0.00461902,1.00318,-0.152021,0.000502779,-0.0141834,0.00951101,0,0,3.41947,5
1777250999506,0.00567459,1.00177,-0.152313,-0.00474502,-0.0129596,0.0151263,0,0,3.40981,5
1777250999520,0.00739676,1.00133,-0.151808,-0.00983547,-0.0116547,0.0195402,0,0,3.43171,5
1777250999533,0.00895386,1.00155,-0.150948,-0.014392,-0.0105085,0.0223963,0,0,3.38319,5
1777250999547,0.0110673,1.00188,-0.149876,-0.0182349,-0.00970497,0.0240389,0,0,3.41927,5
1777250999560,0.0113229,1.0022,-0.148289,-0.0214211,-0.00905783,0.0250112,0,0,3.41849,5
1777250999575,0.0123311,1.0028,-0.147201,-0.024283,-0.00868677,0.0252611,0,0,4.77788,5
1777250999589,0.0121872,1.00389,-0.146339,-0.0267061,-0.00875615,0.0258095,0,0,3.3692,5
1777250999603,0.0121609,1.00486,-0.14554,-0.0288048,-0.00879167,0.0267254,0,0,4.21185,5
1777250999617,0.0118485,1.00586,-0.144168,-0.0304262,-0.00870958,0.0282964,0,0,3.40501,5
1777250999630,0.0117865,1.00685,-0.142573,-0.0316012,-0.00842657,0.0305629,0,0,3.50212,5
1777250999644,0.0121798,1.00772,-0.141341,-0.0322821,-0.00804382,0.0332974,0,0,3.40818,5
1777250999657,0.0132906,1.00737,-0.140164,-0.0328778,-0.00741278,0.035947,0,0,3.41705,5
1777250999671,0.0145719,1.00766,-0.138724,-0.0330974,-0.00671866,0.0378486,0,0,3.39414,5
1777250999684,0.0164797,1.00789,-0.137051,-0.0327396,-0.00590933,0.0386244,0,0,3.40258,5
1777250999698,0.0181299,1.00788,-0.135827,-0.0318023,-0.00529097,0.0383076,0,0,3.39421,5
1777250999711,0.020112,1.00827,-0.13433,-0.0303824,-0.00470731,0.0369124,0,0,3.40888,5
1777250999726,0.0213393,1.00793,-0.133861,-0.0286439,-0.00425914,0.0348762,0,0,4.15761,5
1777250999739,0.0220869,1.00791,-0.132679,-0.0269387,-0.0038875,0.0325559,0,0,3.42525,5
1777250999753,0.0223544,1.00806,-0.131728,-0.025235,-0.00356667,0.0301004,0,0,3.3346,5
1777250999766,0.0225521,1.00787,-0.131926,-0.0240636,-0.00334948,0.0281336,0,0,3.40518,5
1777250999780,0.0232043,1.00816,-0.131291,-0.0233132,-0.00335429,0.02641,0,0,3.38842,5
1777250999794,0.0238748,1.00854,-0.130828,-0.0225922,-0.00346159,0.0247873,0,0,4.35403,5
1777250999808,0.0237818,1.00871,-0.130351,-0.02204,-0.00381121,0.0235682,0,0,3.37108,5
1777250999821,0.0239679,1.0086,-0.129722,-0.0216729,-0.00423971,0.0225844,0,0,3.40408,5
1777250999835,0.0236642,1.00805,-0.129635,-0.0219773,-0.00475122,0.0220969,0,0,3.39701,5
1777250999849,0.0235146,1.00789,-0.128882,-0.0222518,-0.00509274,0.0219408,0,0,3.7481,5
1777250999862,0.0239074,1.00795,-0.128144,-0.0222753,-0.00541082,0.0218576,0,0,3.43127,1
1777250999876,0.0239769,1.00777,-0.127571,-0.0222547,-0.00547984,0.0218562,0,0,3.38492,1
1777250999889,0.0244533,1.0073,-0.126714,-0.022428,-0.00556211,0.0215893,0,0,3.41646,1
1777250999903,0.0252728,1.00789,-0.125961,-0.022416,-0.00551559,0.0209821,0,0,3.37951,1
1777250999916,0.0261284,1.00867,-0.124592,-0.021955,-0.00578854,0.0200321,0,0,3.40092,1
1777250999930,0.0264431,1.009,-0.123876,-0.0213101,-0.00605903,0.0189084,0,0,3.31675,1
1777250999945,0.0267538,1.00839,-0.123336,-0.0207528,-0.00637429,0.0177451,0,0,4.61959,1
1777250999958,0.027143,1.00847,-0.122676,-0.0203423,-0.00668043,0.016557,0,0,3.42427,1
1777250999972,0.0273186,1.00888,-0.121807,-0.0195695,-0.00688376,0.0154613,0,0,3.41384,1
1777250999985,0.0266763,1.0094,-0.121205,-0.0184504,-0.00699005,0.0144142,0,0,3.52962,1
1777250999999,0.0267138,1.00918,-0.120268,-0.0173898,-0.00708181,0.0135243,0,0,3.42701,1
1777251000012,0.0267354,1.009,-0.119479,-0.0162645,-0.00689866,0.0129156,0,0,3.40018,1
1777251000026,0.0266737,1.00879,-0.118556,-0.0150696,-0.00661447,0.012341,0,0,3.37095,1
1777251000040,0.0265332,1.00849,-0.118205,-0.0139417,-0.00638475,0.0119913,0,0,3.43214,1
1777251000053,0.0266061,1.00818,-0.118231,-0.0129884,-0.00599236,0.0118196,0,0,3.40075,1
1777251000067,0.0270994,1.00868,-0.11798,-0.0119644,-0.00559628,0.0115677,0,0,3.63797,1
1777251000080,0.02725,1.00862,-0.117717,-0.0108565,-0.00505972,0.0110259,0,0,3.37668,1
1777251000094,0.0275703,1.00846,-0.116948,-0.00979368,-0.00474593,0.0103004,0,0,3.42181,1
1777251000107,0.0278451,1.008,-0.117139,-0.00883755,-0.00447972,0.00933723,0,0,3.41668,1
1777251000121,0.0277485,1.00779,-0.117197,-0.00812346,-0.00427983,0.00817549,0,0,3.3127,1
1777251000134,0.0277121,1.00806,-0.116429,-0.00747083,-0.00403976,0.00721164,0,0,3.4234,1
1777251000148,0.0278147,1.00784,-0.116307,-0.00675632,-0.00384313,0.00640035,0,0,3.45532,1
1777251000163,0.0275144,1.00754,-0.116247,-0.00600482,-0.00358046,0.00564312,0,0,4.22714,1
1777251000176,0.0274227,1.00806,-0.11604,-0.00523981,-0.0034096,0.00494978,0,0,3.37399,1
1777251000190,0.0271444,1.00838,-0.115597,-0.00436356,-0.0032055,0.00454797,0,0,3.34029,1
1777251000203,0.0267858,1.00822,-0.11607,-0.0036478,-0.0029786,0.00442131,0,0,3.36792,1
1777251000216,0.0268308,1.00838,-0.116037,-0.00279662,-0.00257173,0.00451586,0,0,3.30162,1
1777251000230,0.0268185,1.00833,-0.116718,-0.00207455,-0.00226905,0.00462223,0,0,3.34729,1
1777251000243,0.0265604,1.00814,-0.11684,-0.00148717,-0.00176925,0.00495814,0,0,3.28875,1
1777251000257,0.0265906,1.00824,-0.116544,-0.000928468,-0.0014131,0.0053951,0,0,3.34295,1
1777251000270,0.0264548,1.00814,-0.116375,-0.000448202,-0.00107692,0.00570478,0,0,3.41684,1
1777251000285,0.0265184,1.00779,-0.116284,-0.000388806,-0.000789577,0.00609986,0,0,4.15192,1
1777251000298,0.0262908,1.00776,-0.116403,-0.000474044,-0.000638241,0.00651987,0,0,3.29794,1
1777251000313,0.0263225,1.0077,-0.116707,-0.000687238,-0.000628132,0.00697199,0,0,4.67881,1
1777251000326,0.0267632,1.00787,-0.11735,-0.00099552,-0.000884065,0.00742016,0,0,3.4354,1
1777251000341,0.0273709,1.00807,-0.117232,-0.00134646,-0.00116846,0.00770617,0,0,4.77692,1
1777251000355,0.0277665,1.00766,-0.117558,-0.00174193,-0.0013898,0.00785625,0,0,3.42501,1
1777251000370,0.0278661,1.00771,-0.117304,-0.00215805,-0.00159017,0.00805785,0,0,4.58362,1
1777251000383,0.0275492,1.0077,-0.117339,-0.00247803,-0.00190775,0.00826099,0,0,3.40612,1
1777251000397,0.0275514,1.00752,-0.117358,-0.00273296,-0.00201055,0.00855122,0,0,3.42751,1
1777251000411,0.0271289,1.00731,-0.117074,-0.00298644,-0.00199626,0.00903498,0,0,4.17812,1
1777251000425,0.0268944,1.00752,-0.116834,-0.00318717,-0.00201702,0.00973139,0,0,3.4194,1
1777251000438,0.0268923,1.00759,-0.116525,-0.00323533,-0.00196811,0.0104401,0,0,3.3691,1
1777251000453,0.0268491,1.00768,-0.116631,-0.00333645,-0.00192622,0.0111391,0,0,4.71216,5
1777251000467,0.0270138,1.00771,-0.116388,-0.0034105,-0.00196376,0.0118545,0,0,3.46112,5
1777251000480,0.0273199,1.00748,-0.115967,-0.00345042,-0.00201204,0.0124998,0,0,3.40788,5
1777251000494,0.0276773,1.00791,-0.115529,-0.0034153,-0.0020833,0.0129676,0,0,3.44075,5
1777251000508,0.0275627,1.00793,-0.115526,-0.00338644,-0.00232612,0.0133235,0,0,3.45664,5
1777251000521,0.0277422,1.00781,-0.115619,-0.00347481,-0.0024397,0.0139035,0,0,3.41649,5
1777251000536,0.0276924,1.0077,-0.115735,-0.00360532,-0.00250838,0.0143954,0,0,3.97903,5
1777251000549,0.0282206,1.00775,-0.115953,-0.00380558,-0.00244904,0.0148211,0,0,3.37086,5
1777251000563,0.0284864,1.00729,-0.115694,-0.00415733,-0.00227741,0.0152957,0,0,3.41234,5
1777251000576,0.028929,1.00707,-0.115627,-0.00444652,-0.0019998,0.0155639,0,0,3.41179,5
1777251000590,0.0289633,1.00685,-0.115536,-0.00475374,-0.00157505,0.0157142,0,0,3.41768,5
1777251000603,0.0292696,1.00681,-0.115561,-0.00517648,-0.00112703,0.015642,0,0,3.49645,5
1777251000618,0.0295177,1.00636,-0.115679,-0.0055498,-0.000734105,0.0154412,0,0,3.4441,5
1777251000632,0.0302311,1.00596,-0.115736,-0.00593216,-0.000500243,0.0148491,0,0,3.7142,5
1777251000646,0.0307402,1.00563,-0.115667,-0.00641297,-0.0003737,0.0139134,0,0,3.40944,5
1777251000660,0.0310016,1.00578,-0.115109,-0.00670837,-0.000348457,0.0127733,0,0,3.89288,5
1777251000673,0.0315496,1.00541,-0.115006,-0.00686304,-0.000572977,0.011179,0,0,3.41719,5
1777251000687,0.0323134,1.00584,-0.114088,-0.00671357,-0.000823441,0.0092417,0,0,3.32405,5
1777251000700,0.0323907,1.00654,-0.113358,-0.00617,-0.00102988,0.00717328,0,0,3.41895,5
1777251000714,0.0326416,1.00744,-0.11271,-0.00516022,-0.00121618,0.00503247,0,0,3.36892,5
1777251000727,0.0321391,1.00876,-0.111893,-0.00346204,-0.00126357,0.00304601,0,0,3.44129,5
1777251000741,0.0315551,1.00942,-0.111286,-0.00130675,-0.00123123,0.00133796,0,0,3.3604,5
1777251000755,0.0309765,1.01072,-0.110234,0.00133138,-0.0012264,0.000624915,0,0,3.76962,5
1777251000768,0.0308686,1.01144,-0.110076,0.00450235,-0.00109338,-0.000317893,0,0,3.67986,5
1777251000782,0.0307257,1.01244,-0.110283,0.00783373,-0.000813672,-0.00113074,0,0,3.75599,5
1777251000796,0.0300156,1.01314,-0.110493,0.0112737,-0.000553938,-0.00132851,0,0,3.4369,5
1777251000809,0.0292495,1.01339,-0.110608,0.0147904,-0.000171753,-0.000967106,0,0,3.41066,5
1777251000823,0.0291289,1.01356,-0.110909,0.0179943,0.000201839,-0.000313398,0,0,3.43099,5
1777251000836,0.0289603,1.0134,-0.111863,0.0209243,0.000738596,0.000402125,0,0,3.39749,5
1777251000850,0.0290476,1.01339,-0.11208,0.0238483,0.00141224,0.00123594,0,0,3.49625,5
1777251000863,0.0288014,1.01346,-0.112846,0.0263943,0.00204809,0.00203155,0,0,3.37688,5
1777251000877,0.0287881,1.01268,-0.113966,0.0286861,0.00281956,0.00266692,0,0,4.01418,5
1777251000891,0.0283237,1.01279,-0.114845,0.0308707,0.00347067,0.00306541,0,0,3.41892,5
1777251000904,0.0288849,1.01212,-0.116058,0.0326074,0.00408527,0.00269221,0,0,3.34558,5
1777251000918,0.0289217,1.01201,-0.117094,0.0342853,0.0047082,0.00179616,0,0,3.43162,5
1777251000931,0.029066,1.01135,-0.118605,0.0355949,0.00504785,0.000714859,0,0,3.35773,5
1777251000945,0.0288188,1.01061,-0.119457,0.0365614,0.00536845,-0.000592671,0,0,3.38634,5
1777251000958,0.0282157,1.0102,-0.120357,0.037221,0.00559399,-0.00138583,0,0,3.40734,5
1777251000972,0.0282626,1.00939,-0.12122,0.0377451,0.00560135,-0.00251558,0,0,3.62162,5
1777251000986,0.0280057,1.00932,-0.121254,0.0380214,0.00554407,-0.00352629,0,0,3.41586,5
1777251001000,0.027366,1.00897,-0.122573,0.0380639,0.00526734,-0.00451029,0,0,3.88503,5
1777251001013,0.0269265,1.00922,-0.123449,0.0381554,0.00497617,-0.00509226,0,0,3.48373,5
1777251001029,0.0257311,1.00946,-0.124618,0.0380062,0.00469276,-0.00486229,0,0,3.42749,5
1777251001042,0.0247534,1.00922,-0.125584,0.0377198,0.00436958,-0.00399865,0,0,3.41234,5
1777251001056,0.0238442,1.00955,-0.126524,0.0371198,0.00425294,-0.00223717,0,0,3.31057,4
1777251001071,0.0234517,1.01007,-0.127452,0.0365749,0.00418566,0.000328981,0,0,3.46268,4
1777251001084,0.0232865,1.01028,-0.128355,0.0359749,0.00383098,0.00350908,0,0,3.37694,4
1777251001098,0.0233361,1.01042,-0.129659,0.0353014,0.00362037,0.00696468,0,0,3.43479,4
1777251001111,0.0240402,1.01133,-0.130357,0.0351368,0.00319036,0.010295,0,0,3.41308,4
1777251001125,0.0270465,1.01555,-0.130864,0.0358421,0.00254896,0.014055,0,0,3.39534,4
1777251001139,0.0282135,1.01836,-0.130727,0.0370858,0.00208056,0.0162939,0,0,3.4534,4
1777251001153,0.0303285,1.01889,-0.130474,0.039356,0.00165985,0.0168272,0,0,3.33821,4
1777251001166,0.0328589,1.01983,-0.1314,0.042368,0.00132696,0.0160289,0,0,3.45305,4
1777251001180,0.034275,1.01987,-0.131986,0.045909,0.00082434,0.0137339,0,0,3.43164,4
1777251001194,0.0343792,1.02051,-0.132854,0.049838,0.000461243,0.0103174,0,0,3.44788,4
1777251001207,0.0369974,1.01954,-0.133865,0.0539662,-0.0002326,0.00580361,0,0,3.40666,4
1777251001221,0.037346,1.01822,-0.134983,0.0578372,-0.00144417,0.00108916,0,0,3.71325,4
1777251001235,0.0379627,1.01852,-0.136327,0.0611956,-0.00278046,-0.00340794,0,0,3.41412,4
1777251001248,0.0351211,1.02193,-0.137828,0.065997,-0.0045599,-0.00771274,0,0,3.32497,4
1777251001261,0.0344384,1.02088,-0.140135,0.0694929,-0.006976,-0.0118189,0,0,3.42877,4
1777251001275,0.0328353,1.01959,-0.142353,0.072827,-0.00933794,-0.0154378,0,0,3.65621,4
1777251001289,0.0309798,1.02034,-0.144516,0.0758455,-0.0116573,-0.0186568,0,0,3.43845,4
1777251001302,0.0297077,1.02086,-0.14538,0.0783351,-0.0136582,-0.020599,0,0,3.36986,4
1777251001316,0.02837,1.02072,-0.145688,0.0806208,-0.0155383,-0.0212548,0,0,3.49253,4
1777251001329,0.0277783,1.02416,-0.146486,0.0838702,-0.0177196,-0.0213428,0,0,3.40781,4
1777251001343,0.0285072,1.02392,-0.148006,0.0885815,-0.0200698,-0.0188654,0,0,3.86683,4
1777251001357,0.0295511,1.03363,-0.149222,0.0951395,-0.0239753,-0.00817726,0,0,3.41712,4
1777251001370,0.0204575,1.04859,-0.148685,0.107316,-0.0246814,0.000605366,0,0,3.33803,4
1777251001384,0.019666,1.05944,-0.150095,0.124585,-0.0252153,0.0079405,0,0,3.43968,4
1777251001397,0.0153995,1.07307,-0.148633,0.144735,-0.0252781,0.0153994,0,0,3.37414,4
1777251001411,0.00834581,1.0972,-0.145308,0.172803,-0.0229225,0.0258055,0,0,3.38958,4
1777251001424,0.018573,1.11824,-0.141046,0.210086,-0.0227115,0.0336111,0,0,3.31207,4
1777251001438,0.0229268,1.13475,-0.137448,0.25481,-0.0259078,0.0394802,0,0,3.70505,4
1777251001451,0.0269953,1.14957,-0.135463,0.306851,-0.0295585,0.0429049,0,0,3.35784,4
1777251001465,0.0327939,1.16155,-0.133684,0.36536,-0.0358134,0.0458549,0,0,3.31612,4
1777251001479,0.0402804,1.17283,-0.133006,0.428739,-0.0439997,0.0444046,0,0,3.6244,4
1777251001492,0.0543584,1.18741,-0.131064,0.497714,-0.0556404,0.0384926,0,0,3.38953,4
1777251001506,0.0693449,1.20311,-0.132134,0.571944,-0.0726955,0.0269477,0,0,3.4354,4
1777251001519,0.0813133,1.23303,-0.129064,0.651602,-0.0949342,0.0158062,0,0,3.59651,4
1777251001533,0.0866259,1.27586,-0.122057,0.744784,-0.118062,0.00570072,0,0,3.50986,4
1777251001547,0.103801,1.32405,-0.117675,0.843311,-0.144748,0.00404502,0,0,3.50288,4
1777251001561,0.133488,1.35595,-0.120045,0.936311,-0.180184,0.0188132,0,0,4.71372,4
1777251001575,0.17552,1.353,-0.132716,1.0241,-0.228846,0.0301411,0,0,3.44464,4
1777251001589,0.160649,1.38977,-0.151455,1.10695,-0.256451,0.00297759,0,0,3.50079,4
1777251001602,0.182984,1.40619,-0.146164,1.18517,-0.290529,-0.0251671,0,0,3.50482,4
1777251001616,0.217405,1.42275,-0.125148,1.25899,-0.334525,-0.0349782,0,0,3.50766,4
1777251001630,0.234667,1.42568,-0.100531,1.32868,-0.387079,-0.0576112,0,0,3.49333,4
1777251001644,0.223298,1.38327,-0.114584,1.39445,-0.435376,-0.0671567,0,0,3.48351,4
1777251001658,0.192682,1.35227,-0.119907,1.45654,-0.472249,-0.0509552,0,0,3.47792,4
1777251001672,0.16199,1.3115,-0.12489,1.51514,-0.488531,-0.0326481,0,0,3.47747,4
1777251001685,0.119201,1.2437,-0.12795,1.56268,-0.482855,-0.0113514,0,0,3.59651,4
1777251001700,0.0822915,1.09789,-0.13722,1.55406,-0.447502,-0.0128342,0,0,3.53199,4
1777251001714,0.0464797,1.01055,-0.136657,1.49265,-0.388629,-0.0322391,0,0,3.52823,4
1777251001727,0.0173738,0.943185,-0.13484,1.40353,-0.312429,-0.0502129,0,0,3.52353,4
1777251001741,0.0015271,0.879064,-0.124565,1.29034,-0.229255,-0.061291,0,0,3.45151,4
1777251001755,-0.00488539,0.827002,-0.113688,1.15923,-0.146704,-0.0623533,0,0,3.50886,4
1777251001768,-0.00185878,0.774534,-0.102176,1.01209,-0.0704015,-0.0525228,0,0,3.42531,4
1777251001783,0.00447646,0.724789,-0.090145,0.847922,-0.0046524,-0.032779,0,0,3.76546,4
1777251001796,0.012442,0.6826,-0.0757764,0.667639,0.0516796,-0.0129436,0,0,3.48316,4
1777251001810,0.0219876,0.657855,-0.0602417,0.489881,0.097624,-0.00247636,0,0,4.01442,4
1777251001824,0.0310387,0.647467,-0.0472491,0.322095,0.132594,0.000788307,0,0,3.38368,4
1777251001837,0.0391988,0.642673,-0.0393264,0.16372,0.156611,0.00250822,0,0,3.35307,4
1777251001851,0.0434501,0.638902,-0.033245,0.014228,0.1716,0.00669649,0,0,3.51721,4
1777251001865,0.0452992,0.641066,-0.028162,-0.126878,0.180399,0.0126666,0,0,3.46882,4
1777251001878,0.0444153,0.651313,-0.0247336,-0.260069,0.185297,0.0189955,0,0,3.46973,4
1777251001892,0.0426635,0.66727,-0.0237296,-0.38579,0.1875,0.0238432,0,0,3.5244,4
1777251001906,0.0358745,0.689809,-0.0261919,-0.504458,0.188856,0.0289029,0,0,3.76827,4
1777251001919,0.0275627,0.717027,-0.0309948,-0.61647,0.191434,0.0342996,0,0,3.5459,4
1777251001933,0.0176357,0.745485,-0.0377605,-0.722198,0.196569,0.0380877,0,0,3.4662,4
1777251001947,0.00555395,0.782316,-0.0447492,-0.821997,0.204751,0.0407641,0,0,3.5211,4
1777251001960,-0.00756188,0.825188,-0.0535918,-0.916197,0.217129,0.0424425,0,0,3.42094,4
1777251001974,-0.0216401,0.868956,-0.0646088,-1.00511,0.234486,0.0409696,0,0,3.45744,4
1777251001987,-0.0354902,0.910022,-0.0779385,-1.08904,0.257845,0.0320046,0,0,3.46999,4
1777251002001,-0.0406205,0.951894,-0.0925198,-1.16826,0.285271,0.0120929,0,0,3.4912,4
1777251002015,-0.0314263,1.00087,-0.110255,-1.24304,0.309057,-0.0132618,0,0,3.51318,4
1777251002029,-0.00505466,1.0704,-0.133404,-1.31362,0.319673,-0.0343512,0,0,4.55609,4
1777251002043,0.0313685,1.14834,-0.168456,-1.38025,0.309081,-0.0484984,0,0,3.51221,4
1777251002057,0.0554504,1.2114,-0.214989,-1.44313,0.282199,-0.0529759,0,0,3.56442,4
1777251002071,0.0577767,1.261,-0.270211,-1.48359,0.251628,-0.0516571,0,0,3.67558,4
1777251002084,0.0417453,1.30659,-0.32973,-1.49707,0.229386,-0.0519453,0,0,3.43268,4
1777251002099,0.0169585,1.34514,-0.391388,-1.47728,0.222013,-0.0564563,0,0,3.51281,5
1777251002112,-0.00248024,1.36558,-0.450272,-1.43066,0.226764,-0.0617804,0,0,3.41755,5
1777251002126,-0.014132,1.3711,-0.507292,-1.36762,0.236208,-0.0611924,0,0,3.43629,5
1777251002139,-0.0182556,1.37543,-0.556895,-1.28916,0.245763,-0.0642342,0,0,3.50214,5
1777251002154,0.003625,1.52264,-0.467908,-1.08021,0.207002,-8.55826e-05,0,0,4.27705,5
1777251002167,0.000833413,1.4632,-0.407357,-0.957,0.15673,-0.00147239,0,0,3.52645,5
1777251002181,0.00766127,1.42799,-0.354804,-0.796881,0.114103,-0.0142397,0,0,3.42371,5
1777251002195,0.00421876,1.41183,-0.324933,-0.656162,0.0881431,-0.0232336,0,0,3.50518,5
1777251002208,0.00585825,1.38018,-0.29849,-0.526401,0.0770116,-0.0288627,0,0,3.50242,5
1777251002223,0.0133629,1.35846,-0.275653,-0.410534,0.0679004,-0.0426798,0,0,4.84609,5
1777251002237,0.0122846,1.33538,-0.258438,-0.306622,0.0608546,-0.054159,0,0,3.49579,5
1777251002252,0.0149918,1.31045,-0.246009,-0.2175,0.0532278,-0.064883,0,0,5.13716,5
1777251002269,0.0121378,1.29146,-0.234497,-0.146322,0.0455578,-0.0659065,0,0,3.49057,5
1777251002283,0.00993686,1.27043,-0.226027,-0.087811,0.0384165,-0.0630147,0,0,3.49614,5
1777251002296,0.00418929,1.25396,-0.218114,-0.0394545,0.0336025,-0.0542647,0,0,3.51455,5
1777251002310,0.0027218,1.23855,-0.212261,0.000259132,0.029444,-0.0428926,0,0,3.45723,5
1777251002327,0.00277455,1.22721,-0.210338,0.0341784,0.0251377,-0.0314091,0,0,3.49051,5
1777251002341,0.00657661,1.21568,-0.207551,0.0559785,0.0237277,-0.0233316,0,0,3.70399,1
1777251002355,0.00865901,1.20065,-0.203865,0.0730018,0.0270896,-0.019184,0,0,3.6774,1
1777251002368,0.0103918,1.18727,-0.202304,0.0873361,0.0345321,-0.0196408,0,0,3.41462,1
1777251002382,0.0165877,1.17578,-0.19905,0.0978733,0.0433682,-0.0238101,0,0,3.45725,1
1777251002395,0.0209433,1.16182,-0.197799,0.105019,0.0504028,-0.0300748,0,0,3.48821,1
1777251002409,0.0258078,1.15014,-0.194688,0.10821,0.0544908,-0.0374954,0,0,3.49957,1
1777251002423,0.0258391,1.14067,-0.191176,0.108876,0.056063,-0.0420419,0,0,3.51894,1
1777251002436,0.024828,1.13237,-0.187848,0.107042,0.0547552,-0.04373,0,0,3.49529,1
1777251002450,0.0222439,1.12614,-0.183542,0.104189,0.0525231,-0.0407504,0,0,3.44368,1
1777251002463,0.0181614,1.11995,-0.179409,0.100229,0.0488747,-0.0328768,0,0,3.48453,1
1777251002477,0.0158554,1.11602,-0.17407,0.0964824,0.0454524,-0.0216169,0,0,3.46992,1
1777251002491,0.0166505,1.11124,-0.170496,0.0932071,0.0423933,-0.0106973,0,0,3.8492,1
1777251002504,0.0185376,1.10652,-0.166807,0.0906122,0.0399126,-0.00167059,0,0,3.46144,1
1777251002518,0.0222086,1.1018,-0.162956,0.0887624,0.0382305,0.00446054,0,0,3.37634,1
1777251002531,0.0252767,1.09743,-0.160484,0.0876372,0.037088,0.00835946,0,0,3.49744,1
1777251002547,0.0278302,1.09259,-0.157974,0.0867035,0.0359025,0.0106781,0,0,5.25629,1
1777251002563,0.0291039,1.08862,-0.155138,0.0856424,0.0348778,0.0127938,0,0,3.52403,1
1777251002576,0.029594,1.08554,-0.151736,0.084872,0.0334524,0.0150264,0,0,3.43134,1
1777251002590,0.0297143,1.08187,-0.14951,0.084192,0.031516,0.0178188,0,0,3.53205,1
1777251002604,0.0304167,1.07832,-0.147779,0.083336,0.0291915,0.0208699,0,0,3.48881,1
1777251002618,0.0319424,1.07446,-0.145968,0.0822625,0.0266592,0.0244436,0,0,3.34397,1
1777251002631,0.0329855,1.07094,-0.144942,0.0811679,0.0242689,0.027804,0,0,3.5047,1
1777251002649,0.0350518,1.06723,-0.143782,0.0798392,0.0221797,0.0299996,0,0,3.41953,1
1777251002662,0.0383717,1.0625,-0.142154,0.0779128,0.0201006,0.0308431,0,0,3.46977,1
1777251002676,0.0414917,1.0572,-0.140123,0.0757948,0.0180354,0.0302477,0,0,3.4054,5
1777251002691,0.0434781,1.05301,-0.139357,0.07356,0.0160817,0.0288294,0,0,4.90079,5
1777251002705,0.0465034,1.04902,-0.138073,0.0713008,0.013818,0.0267584,0,0,3.54181,4
1777251002718,0.0475924,1.04614,-0.137723,0.068663,0.0115657,0.0238787,0,0,3.54758,4
1777251002732,0.0489353,1.04275,-0.137502,0.0661431,0.00915712,0.0200001,0,0,3.48762,4
1777251002746,0.0493812,1.04009,-0.137116,0.0635934,0.00684937,0.0158938,0,0,3.47431,4
1777251002759,0.0495145,1.03768,-0.136915,0.0609854,0.00491942,0.0118252,0,0,3.5349,4
1777251002773,0.0498869,1.03503,-0.137014,0.0584167,0.00323046,0.00755654,0,0,3.43184,4
1777251002787,0.0497042,1.03269,-0.135696,0.056112,0.00183749,0.00337748,0,0,3.50147,4
1777251002800,0.0502713,1.03055,-0.135918,0.0542362,0.000651112,-0.00130365,0,0,3.47929,4
1777251002815,0.0497521,1.02797,-0.135744,0.0523287,-0.000194683,-0.00595342,0,0,4.89035,4
1777251002829,0.0501796,1.02602,-0.136305,0.0506566,-0.00089027,-0.0113015,0,0,3.40338,4
1777251002843,0.0497204,1.02478,-0.137178,0.0491211,-0.00134559,-0.0169534,0,0,4.15253,4
1777251002857,0.0485611,1.02282,-0.136577,0.0472735,-0.00164692,-0.0224423,0,0,3.47333,4
1777251002870,0.046426,1.02221,-0.136831,0.0452256,-0.0020127,-0.027328,0,0,3.48534,4
1777251002884,0.0444107,1.02155,-0.137277,0.0433996,-0.00206679,-0.0312073,0,0,3.48197,4
1777251002898,0.0429604,1.02182,-0.136314,0.042087,-0.00178815,-0.0341626,0,0,3.54207,4
1777251002911,0.0400987,1.02102,-0.136994,0.0411307,-0.00163219,-0.0355862,0,0,3.49129,4
1777251002925,0.0368361,1.0207,-0.137253,0.0402366,-0.00107819,-0.0350374,0,0,3.40758,4
1777251002938,0.0346877,1.02113,-0.136702,0.0395939,-0.000105676,-0.0328237,0,0,3.44725,4
1777251002952,0.03355,1.0218,-0.136128,0.0392741,0.000756624,-0.0295481,0,0,3.46786,4
1777251002966,0.0332155,1.02211,-0.135189,0.0392206,0.00137787,-0.0256555,0,0,3.54577,4
1777251002979,0.0347486,1.02351,-0.134179,0.0391959,0.00173733,-0.0221398,0,0,3.47847,4
1777251002993,0.0340594,1.02716,-0.132788,0.0402301,0.00165273,-0.0195919,0,0,3.44188,4
1777251003006,0.0346002,1.02995,-0.132063,0.0424823,0.00111471,-0.0187028,0,0,3.4609,4
1777251003020,0.0361789,1.03072,-0.130695,0.0446852,0.000457003,-0.0188226,0,0,3.48449,4
1777251003034,0.0365597,1.03311,-0.131759,0.0471585,-0.000943109,-0.0204858,0,0,3.47684,4
1777251003047,0.033345,1.03277,-0.130517,0.0495017,-0.00165238,-0.0199619,0,0,3.48649,4
1777251003062,0.0323921,1.03929,-0.127537,0.0575881,-0.000848904,-0.0196471,0,0,4.29564,4
1777251003075,0.0548006,1.06588,-0.120479,0.0714339,-0.00593524,-0.0021584,0,0,3.48868,4
1777251003089,0.0441811,1.10045,-0.112393,0.101361,-0.00894217,0.0101103,0,0,3.52823,4
1777251003104,0.044743,1.12709,-0.105431,0.144904,-0.0132919,0.019931,0,0,3.82838,4
1777251003117,0.0448489,1.16047,-0.0940392,0.200721,-0.0169481,0.0284729,0,0,3.51525,4
1777251003132,0.04436,1.18927,-0.0853955,0.270758,-0.0230925,0.0390363,0,0,3.47464,4
1777251003146,0.0442957,1.22017,-0.0766752,0.352717,-0.0301083,0.0484591,0,0,3.53127,4
1777251003161,0.0454127,1.24055,-0.0702653,0.443691,-0.0434959,0.0582439,0,0,3.4659,4
1777251003175,0.0374287,1.26748,-0.0615583,0.537433,-0.0569632,0.0722756,0,0,3.49216,4
1777251003188,0.0305498,1.32216,-0.043466,0.644362,-0.0741411,0.0910909,0,0,3.47308,4
1777251003202,0.0260973,1.38253,-0.0222528,0.748522,-0.0908736,0.11503,0,0,3.90983,4
1777251003216,0.0315766,1.433,-0.00511907,0.846839,-0.10743,0.140396,0,0,3.47986,4
1777251003229,0.0363787,1.45664,0.00308346,0.939642,-0.123674,0.158871,0,0,3.48308,4
1777251003243,0.0418564,1.47638,-0.00648388,1.02724,-0.138163,0.191871,0,0,3.51158,4
1777251003257,0.0456847,1.50561,-0.00936577,1.10992,-0.150902,0.192091,0,0,3.4632,4
1777251003270,0.071319,1.52751,0.0245603,1.18797,-0.164626,0.183971,0,0,3.5016,4
1777251003284,0.0960221,1.522,0.0652383,1.26164,-0.192139,0.178623,0,0,3.45586,4
1777251003297,0.121859,1.515,0.106551,1.33117,-0.232868,0.173296,0,0,3.35768,4
1777251003311,0.132347,1.44745,0.106984,1.39681,-0.279302,0.150756,0,0,3.63023,4
1777251003325,0.126677,1.33334,0.108076,1.45876,-0.320032,0.11439,0,0,3.50127,4
1777251003338,0.112422,1.16496,0.0967692,1.48989,-0.347691,0.0584457,0,0,3.55183,4
1777251003352,0.0912306,1.06817,0.0866714,1.46655,-0.360122,-0.000693814,0,0,3.49249,4
1777251003365,0.0695156,0.977814,0.0824945,1.39588,-0.361288,-0.0450321,0,0,3.41044,4
1777251003379,0.0527709,0.887894,0.0810991,1.2858,-0.355894,-0.0642281,0,0,3.54938,4
1777251003393,0.0355276,0.817535,0.0820552,1.1457,-0.345424,-0.0559967,0,0,3.48434,4
1777251003406,0.0162387,0.755258,0.0835055,0.982571,-0.327149,-0.0267963,0,0,3.49714,4
1777251003420,-0.00310492,0.700774,0.0839705,0.800756,-0.29919,0.00929143,0,0,3.49466,4
1777251003433,-0.0199392,0.649675,0.0852723,0.615532,-0.262304,0.0389231,0,0,3.46003,4
1777251003447,-0.0302967,0.612904,0.0897466,0.440697,-0.21954,0.050399,0,0,3.49555,4
1777251003461,-0.0312404,0.602983,0.0980509,0.275669,-0.177073,0.0449729,0,0,3.42877,4
1777251003474,-0.0219698,0.611517,0.105383,0.119898,-0.141813,0.0309021,0,0,3.5136,4
1777251003488,-0.00449582,0.62857,0.109715,-0.0271354,-0.119733,0.0174878,0,0,3.42053,4
1777251003501,0.0148601,0.653102,0.109011,-0.165921,-0.113766,0.0166139,0,0,3.43646,4
1777251003515,0.0308707,0.675053,0.104485,-0.296923,-0.121506,0.0270717,0,0,3.47292,4
1777251003528,0.0407931,0.691458,0.0987885,-0.420576,-0.138459,0.036609,0,0,3.54138,4
1777251003542,0.0436129,0.709724,0.093439,-0.537293,-0.160383,0.0382465,0,0,3.38879,4
1777251003556,0.0401532,0.736359,0.0886633,-0.647463,-0.18413,0.0359513,0,0,3.58251,4
1777251003570,0.0321903,0.774989,0.0840871,-0.751453,-0.206721,0.036735,0,0,4.5597,4
1777251003584,0.0156358,0.821327,0.0759195,-0.84961,-0.222902,0.0432467,0,0,3.54521,4
1777251003598,-0.0143146,0.867639,0.0622255,-0.942262,-0.226263,0.0519581,0,0,3.5014,4
1777251003611,-0.050514,0.918146,0.041713,-1.02972,-0.209808,0.0558089,0,0,3.49214,4
1777251003626,-0.0776988,0.976844,0.0126142,-1.11226,-0.171569,0.0490218,0,0,4.8729,4
1777251003640,-0.0826253,1.04062,-0.0266568,-1.19018,-0.125566,0.0452572,0,0,3.40786,5
1777251003653,-0.0614751,1.11065,-0.0731332,-1.26373,-0.0851328,0.0511796,0,0,3.44334,5
1777251003667,-0.0202302,1.27271,-0.293401,-1.33315,-0.0380356,0.0946257,0,0,3.36707,5
1777251003681,-0.028887,1.2018,-0.419653,-1.34092,-0.0113199,0.128471,0,0,3.85071,5
1777251003694,-0.0266093,1.24793,-0.511448,-1.29811,0.0148093,0.141951,0,0,3.47684,5
1777251003708,-0.025774,1.31764,-0.621498,-1.24055,0.043228,0.151124,0,0,3.48073,5
1777251003722,-0.0187273,1.3805,-0.739672,-1.1338,0.0703738,0.16314,0,0,3.51244,5
1777251003735,-0.00513273,1.43968,-0.833305,-0.958287,0.0901265,0.168783,0,0,3.50242,5
1777251003749,0.0259266,1.40133,-0.779305,-0.828035,0.0957757,0.158956,0,0,3.51479,5
1777251003763,0.0310045,1.38322,-0.702711,-0.70487,0.0895,0.14256,0,0,3.5249,5
1777251003776,0.0153108,1.36327,-0.666732,-0.586028,0.0844369,0.130136,0,0,3.53907,5
1777251003790,0.00530409,1.34039,-0.636811,-0.487563,0.08194,0.132547,0,0,3.49779,5
1777251003804,0.0189338,1.31803,-0.610074,-0.407376,0.0768214,0.126196,0,0,3.93305,5
1777251003818,0.0198575,1.29859,-0.583659,-0.340884,0.0717673,0.118291,0,0,3.53331,5
1777251003831,0.015813,1.27812,-0.561629,-0.285796,0.0730597,0.110349,0,0,3.42736,5
1777251003845,0.0168706,1.25793,-0.541054,-0.244476,0.0758554,0.100537,0,0,3.48658,5
1777251003858,0.0157189,1.23988,-0.516087,-0.210317,0.0770599,0.0927826,0,0,3.42366,5
1777251003872,0.0168777,1.22289,-0.495876,-0.181255,0.0762528,0.0847265,0,0,3.54162,5
1777251003886,0.0134933,1.20169,-0.481783,-0.158204,0.0769169,0.0759704,0,0,3.44227,5
1777251003900,0.0159957,1.19239,-0.46014,-0.142012,0.0750774,0.0671789,0,0,4.13153,5
1777251003914,0.0182756,1.18073,-0.439109,-0.127217,0.0739233,0.0581054,0,0,3.48445,5
1777251003927,0.0180585,1.16761,-0.420162,-0.112849,0.0731466,0.0479395,0,0,3.42042,5
1777251003941,0.0178672,1.15833,-0.401716,-0.099364,0.0717327,0.0375602,0,0,3.48712,5
1777251003954,0.0199462,1.14962,-0.386235,-0.0860531,0.0700897,0.0245518,0,0,3.41182,5
1777251003968,0.0215115,1.14204,-0.369856,-0.0735488,0.067644,0.00939984,0,0,3.43838,1
1777251003982,0.0182781,1.13426,-0.35719,-0.0623924,0.0641323,-0.00475231,0,0,3.48973,1
1777251003995,0.0138155,1.12655,-0.343591,-0.0529452,0.0606463,-0.0164493,0,0,3.57516,1
1777251004009,0.00937046,1.12091,-0.331343,-0.0440236,0.0573344,-0.024784,0,0,3.47844,1
1777251004023,0.00562666,1.11479,-0.320536,-0.0359878,0.0546879,-0.0305359,0,0,3.90247,1
1777251004037,0.00273649,1.10903,-0.310047,-0.0280901,0.0532346,-0.0343681,0,0,3.50005,1
1777251004050,0.00115877,1.10382,-0.299873,-0.0209609,0.0527748,-0.037266,0,0,3.4266,1
1777251004064,-0.00312411,1.09809,-0.291406,-0.0148096,0.0528889,-0.0390036,0,0,3.51171,1
1777251004077,-0.00535909,1.09335,-0.282249,-0.00940588,0.0528382,-0.0404297,0,0,3.43577,1
1777251004091,-0.00667443,1.08905,-0.273251,-0.00418536,0.0523622,-0.0418743,0,0,3.85336,1
1777251004105,-0.00897046,1.0838,-0.265593,0.000121457,0.0507867,-0.0427968,0,0,3.70488,1
1777251004119,-0.0103023,1.07982,-0.258624,0.00380133,0.0477538,-0.0433978,0,0,4.01701,1
1777251004133,-0.0146681,1.07594,-0.252471,0.00700075,0.044283,-0.0423637,0,0,3.5071,1
1777251004147,-0.0167075,1.07294,-0.24617,0.00993079,0.0408228,-0.039769,0,0,3.89983,1
1777251004161,-0.0203443,1.06954,-0.240126,0.0125295,0.0378693,-0.0357999,0,0,3.42749,1
1777251004174,-0.022257,1.06707,-0.233874,0.0153935,0.0356081,-0.0309229,0,0,3.45721,1
1777251004188,-0.0248293,1.06366,-0.227863,0.0180411,0.0340646,-0.025673,0,0,3.47149,1
1777251004202,-0.0261617,1.06004,-0.223257,0.0209299,0.0330573,-0.0205719,0,0,3.47284,1
1777251004215,-0.0266663,1.05705,-0.219129,0.0240806,0.0320252,-0.0164678,0,0,3.51977,1
1777251004229,-0.0269645,1.05397,-0.215067,0.0268833,0.0310552,-0.0128722,0,0,3.34466,1
1777251004243,-0.0273829,1.0511,-0.211782,0.0292718,0.0299941,-0.0098936,0,0,4.19192,1
1777251004257,-0.0269151,1.04878,-0.20827,0.0316163,0.0283116,-0.00825105,0,0,3.70295,1
1777251004271,-0.025871,1.04606,-0.204873,0.0341376,0.0264752,-0.00810081,0,0,3.4604,1
1777251004285,-0.025529,1.04319,-0.202241,0.0367615,0.024472,-0.00851992,0,0,3.4949,4
1777251004299,-0.0252885,1.04068,-0.199839,0.0392768,0.0226797,-0.00972479,0,0,3.43114,4
1777251004312,-0.0262254,1.03873,-0.197613,0.0414326,0.0209408,-0.0113502,0,0,3.4181,4
1777251004326,-0.0267264,1.03614,-0.196115,0.043369,0.0192053,-0.0131285,0,0,3.4711,4
1777251004340,-0.0277196,1.03397,-0.194481,0.0450983,0.0176056,-0.0142247,0,0,3.44288,4
1777251004353,-0.0285339,1.03301,-0.19272,0.0466235,0.0162541,-0.0154907,0,0,3.44884,4
1777251004367,-0.0296859,1.03133,-0.19151,0.0484315,0.0148072,-0.0163474,0,0,4.12135,4
1777251004381,-0.0300613,1.02999,-0.190313,0.0503264,0.0130945,-0.0173615,0,0,3.3364,4
1777251004395,-0.031333,1.02825,-0.189662,0.0518624,0.011114,-0.0178307,0,0,3.45953,4
1777251004408,-0.032958,1.02569,-0.189198,0.0528841,0.00895769,-0.0175028,0,0,3.43646,4
1777251004422,-0.0356696,1.02317,-0.188925,0.0531548,0.00731626,-0.0154548,0,0,3.49884,4
1777251004435,-0.0374758,1.02117,-0.188777,0.0526652,0.00606234,-0.011672,0,0,3.4879,4
1777251004449,-0.0407146,1.02339,-0.187514,0.0519591,0.0053198,-0.00696661,0,0,3.4449,4
1777251004463,-0.0378282,1.02514,-0.186568,0.0529368,0.00461462,-0.00467897,0,0,3.48432,4
1777251004476,-0.0343369,1.02714,-0.184648,0.0549644,0.00334526,-0.00433516,0,0,3.45345,4
1777251004490,-0.0293296,1.02798,-0.183699,0.0588008,0.0010124,-0.00714496,0,0,3.8166,4
1777251004504,-0.0263287,1.03085,-0.182146,0.0638735,-0.00227291,-0.00975433,0,0,3.45797,4
1777251004517,-0.0299873,1.03876,-0.181748,0.0665808,-0.00811862,-0.00371355,0,0,3.47429,4
1777251004531,-0.026388,1.07132,-0.175647,0.0732339,-0.0142359,0.0155919,0,0,3.48668,4
1777251004545,-0.0378902,1.11704,-0.167589,0.103282,-0.0165246,0.016126,0,0,3.4326,4
1777251004558,-0.0337106,1.13756,-0.160955,0.137507,-0.0242085,0.0243718,0,0,3.54407,4
1777251004572,-0.0396529,1.17354,-0.151762,0.186084,-0.0303738,0.0344159,0,0,3.42807,4
1777251004586,-0.0429065,1.20377,-0.140606,0.246416,-0.0377391,0.0515012,0,0,3.86764,4
1777251004603,-0.0440055,1.25151,-0.125407,0.325339,-0.0483308,0.0714604,0,0,3.51723,4
1777251004617,-0.0514108,1.3057,-0.106088,0.424855,-0.0639933,0.0931132,0,0,4.34711,4
1777251004631,-0.050143,1.34013,-0.0891409,0.540578,-0.0820828,0.113367,0,0,3.46344,4
1777251004645,-0.0447421,1.39456,-0.0682279,0.650559,-0.100451,0.135277,0,0,3.38453,4
1777251004658,-0.0204583,1.48432,-0.0427088,0.754372,-0.122734,0.156408,0,0,3.42714,4
1777251004673,0.0122412,1.50147,-0.0246331,0.852361,-0.152511,0.188312,0,0,4.78237,4
1777251004691,0.0206066,1.50507,-0.029181,0.944854,-0.173017,0.176563,0,0,7.74226,4
1777251004705,0.0423615,1.54396,0.0106907,1.03216,-0.192746,0.142338,0,0,3.54346,4
1777251004722,0.0785352,1.5079,0.0505718,1.11457,-0.236151,0.13462,0,0,3.97433,4
1777251004736,0.08184,1.37192,0.0352047,1.19235,-0.279473,0.133834,0,0,3.56007,4
1777251004750,0.0651983,1.29002,0.031299,1.23411,-0.308829,0.135747,0,0,3.54877,4
1777251004763,0.031386,1.19211,0.0268867,1.22114,-0.310303,0.127049,0,0,3.4961,4
1777251004777,0.00237353,1.08847,0.0269534,1.15204,-0.287652,0.117525,0,0,3.54775,4
1777251004791,-0.0156993,1.02909,0.0322887,1.05713,-0.249264,0.115381,0,0,3.51062,4
1777251004805,-0.0243363,0.977059,0.0388038,0.948745,-0.202573,0.125583,0,0,4.09496,4
1777251004818,-0.0293529,0.926444,0.0445974,0.832434,-0.151744,0.148362,0,0,3.52268,4
1777251004832,-0.0320064,0.873396,0.0515723,0.707113,-0.098894,0.177185,0,0,3.83333,4
1777251004846,-0.0318818,0.817037,0.0596077,0.568431,-0.0452315,0.203732,0,0,3.54368,4
1777251004860,-0.026533,0.774412,0.0703968,0.419562,0.00584054,0.218552,0,0,3.59021,4
1777251004873,-0.0138837,0.750077,0.0819639,0.271472,0.0487212,0.221455,0,0,3.50047,4
1777251004891,0.00180831,0.729915,0.0896365,0.126616,0.0753962,0.220145,0,0,3.71818,4
1777251004906,0.0126487,0.712047,0.0956463,-0.0189363,0.0896775,0.220505,0,0,4.57212,4
1777251004920,0.0170747,0.701153,0.102798,-0.158182,0.096979,0.21533,0,0,4.13114,4
1777251004934,0.0162538,0.702359,0.110261,-0.289618,0.100219,0.201984,0,0,3.76001,4
1777251004952,0.0123157,0.713659,0.11562,-0.41368,0.101011,0.186359,0,0,7.35097,4
1777251004966,0.00572253,0.733253,0.119734,-0.530784,0.101464,0.17439,0,0,3.67988,4
1777251004979,-0.0023769,0.757761,0.122358,-0.641319,0.104191,0.165486,0,0,3.73207,4
1777251004994,-0.0122542,0.792096,0.123958,-0.745654,0.111466,0.156987,0,0,4.3682,4
1777251005008,-0.022988,0.833365,0.125043,-0.844137,0.123853,0.147158,0,0,3.69001,4
1777251005022,-0.032298,0.876619,0.124753,-0.937095,0.141719,0.136411,0,0,4.31144,4
1777251005037,-0.0328692,0.925829,0.123411,-1.02484,0.163404,0.122864,0,0,4.18777,4
1777251005052,-0.0230827,0.977029,0.117516,-1.10766,0.183946,0.107246,0,0,3.64125,4
1777251005067,-0.00186254,1.03114,0.104857,-1.18584,0.198673,0.0922979,0,0,3.96696,4
1777251005082,0.0309306,1.09821,0.0817893,-1.25963,0.200267,0.0836738,0,0,3.51288,5
1777251005096,0.0662801,1.17082,0.0497989,-1.32928,0.186289,0.0813311,0,0,3.6577,5
1777251005110,0.0863495,1.23089,0.00804493,-1.39111,0.15977,0.0809952,0,0,3.48388,5
1777251005123,0.0866277,1.2889,-0.0403095,-1.43276,0.130195,0.0791881,0,0,3.62981,5
1777251005137,0.0774274,1.34098,-0.0955787,-1.44945,0.104519,0.073633,0,0,3.51949,5
1777251005151,0.0741388,1.38274,-0.154349,-1.43623,0.0827789,0.0630671,0,0,3.49245,5
1777251005165,0.0815109,1.41272,-0.215409,-1.39437,0.0583277,0.0506832,0,0,3.47205,5
1777251005181,0.0927695,1.43784,-0.275044,-1.31924,0.0254212,0.0404968,0,0,6.22267,5
1777251005195,0.0937147,1.4499,-0.328458,-1.21737,-0.0127046,0.0244762,0,0,3.4537,5
1777251005209,0.0818436,1.44788,-0.372262,-1.09891,-0.0491585,-0.00321735,0,0,3.75936,5
1777251005222,0.0655988,1.43965,-0.405296,-0.970847,-0.0791959,-0.0394456,0,0,3.45388,5
1777251005236,0.051799,1.42181,-0.425904,-0.843122,-0.101674,-0.0797519,0,0,3.44364,5
1777251005250,0.0446893,1.40507,-0.433183,-0.721252,-0.118652,-0.116902,0,0,3.45634,5
1777251005263,0.0422647,1.38451,-0.425619,-0.607336,-0.132433,-0.145182,0,0,3.38429,5
1777251005277,0.0368264,1.36381,-0.405908,-0.503158,-0.142338,-0.160923,0,0,3.52008,5
1777251005290,0.0216278,1.33499,-0.376512,-0.409439,-0.143872,-0.166917,0,0,3.39595,5
1777251005304,0.171259,1.43123,-0.13103,-0.407128,-0.159772,-0.16435,0,0,3.87703,5
1777251005318,0.180455,1.36659,-0.0529481,-0.325489,-0.169231,-0.204505,0,0,3.44601,5
1777251005331,0.150092,1.38773,-0.0432679,-0.18367,-0.162637,-0.226522,0,0,3.43486,5
1777251005345,0.121337,1.33854,-0.0517964,-0.0758092,-0.149836,-0.216111,0,0,3.45423,5
1777251005358,0.128965,1.31018,-0.0490828,0.0108776,-0.143367,-0.218282,0,0,3.39894,5
1777251005372,0.123114,1.29786,-0.0453025,0.0817189,-0.136387,-0.219543,0,0,3.47334,5
1777251005386,0.107307,1.27233,-0.0557848,0.139753,-0.118961,-0.214161,0,0,3.41573,5
1777251005399,0.105218,1.24961,-0.0668431,0.173431,-0.100381,-0.211457,0,0,3.44488,1
1777251005413,0.101316,1.23232,-0.0723101,0.189993,-0.0896546,-0.207868,0,0,3.44242,1
1777251005426,0.0908122,1.21741,-0.0793602,0.199487,-0.0813115,-0.199475,0,0,3.6941,1
1777251005440,0.0803227,1.20508,-0.0889729,0.203519,-0.0734235,-0.188586,0,0,3.46195,1
1777251005453,0.0774605,1.19608,-0.0877619,0.204169,-0.0676736,-0.176051,0,0,3.36134,1
1777251005467,0.0739647,1.18473,-0.0883716,0.205451,-0.0617924,-0.163868,0,0,3.45838,1
1777251005481,0.0754716,1.17308,-0.0884679,0.205672,-0.0539973,-0.156397,0,0,3.3961,1
1777251005494,0.0779896,1.16145,-0.0890107,0.203714,-0.0461599,-0.154416,0,0,3.49147,1
1777251005508,0.0776137,1.15205,-0.0894409,0.200808,-0.0399054,-0.154845,0,0,3.39657,1
1777251005522,0.0720962,1.14316,-0.0905864,0.19595,-0.0351493,-0.154933,0,0,3.8636,1
1777251005535,0.0658747,1.13704,-0.0910378,0.189699,-0.0321458,-0.153273,0,0,3.46227,1
1777251005549,0.0605226,1.13166,-0.0908749,0.183712,-0.030287,-0.150186,0,0,3.34605,1
1777251005562,0.0537041,1.12723,-0.0903652,0.178165,-0.0290891,-0.143993,0,0,3.46079,1
1777251005576,0.0473366,1.12339,-0.0895416,0.17295,-0.0290545,-0.134653,0,0,3.36097,1
1777251005589,0.0423533,1.11898,-0.0890245,0.168215,-0.0288721,-0.123139,0,0,3.46982,1
1777251005603,0.0396763,1.11545,-0.0882351,0.16447,-0.0278178,-0.112121,0,0,3.39423,1
1777251005616,0.038697,1.11018,-0.0884486,0.161625,-0.0253925,-0.103002,0,0,3.44712,1
1777251005630,0.0371563,1.10513,-0.0882392,0.158763,-0.0220156,-0.0954728,0,0,3.43734,1
1777251005644,0.036469,1.10019,-0.0881238,0.156743,-0.0183572,-0.0901047,0,0,3.6937,1
1777251005657,0.0341768,1.09379,-0.0898089,0.154464,-0.0150281,-0.0854744,0,0,3.46571,5
1777251005671,0.0319037,1.08895,-0.0913994,0.151439,-0.0120057,-0.080393,0,0,3.35436,5
1777251005684,0.0298129,1.08392,-0.0921064,0.148515,-0.00949105,-0.0753783,0,0,3.44725,5
1777251005698,0.0274422,1.07841,-0.0929655,0.14537,-0.00775547,-0.0700026,0,0,3.38503,5
1777251005713,0.0247389,1.07156,-0.0938722,0.140919,-0.00631421,-0.064329,0,0,4.8057,5
1777251005726,0.023228,1.06558,-0.0964536,0.136093,-0.00539911,-0.059025,0,0,3.38381,5
1777251005740,0.02224,1.059,-0.0975482,0.131209,-0.00432553,-0.0543911,0,0,4.1334,5
1777251005755,0.0204995,1.05623,-0.0986772,0.126439,-0.00312804,-0.0506593,0,0,3.43409,5
1777251005769,0.0201302,1.0535,-0.0994279,0.122203,-0.00164661,-0.0487041,0,0,3.80614,5
1777251005783,0.0201103,1.0527,-0.0997941,0.118513,-9.41351e-05,-0.0475693,0,0,3.43512,5
1777251005796,0.0190919,1.05076,-0.100373,0.115046,0.00152969,-0.0460785,0,0,3.40168,5
1777251005810,0.01887,1.04812,-0.100467,0.111689,0.00283549,-0.0444787,0,0,3.55662,5
1777251005824,0.0176609,1.04518,-0.101322,0.108207,0.00415368,-0.0426303,0,0,3.3901,5
1777251005837,0.0171633,1.0424,-0.102856,0.105615,0.00463148,-0.041939,0,0,3.49575,5
1777251005851,0.0166661,1.04453,-0.103906,0.105051,0.00471852,-0.0412179,0,0,3.40542,5
1777251005865,0.016909,1.0451,-0.104528,0.104884,0.00428686,-0.0409484,0,0,3.69629,5
1777251005878,0.0171109,1.04305,-0.106005,0.105299,0.00333561,-0.0412249,0,0,3.43238,5
1777251005892,0.018082,1.04429,-0.106728,0.106154,0.00202666,-0.0430402,0,0,3.34229,5
1777251005905,0.0182865,1.04229,-0.107342,0.106887,0.000290151,-0.0436789,0,0,3.44212,5
1777251005921,0.0188768,1.03976,-0.109442,0.107666,-0.00177714,-0.0438708,0,0,5.38022,4
1777251005935,0.0165991,1.03649,-0.112136,0.107441,-0.00412668,-0.042793,0,0,3.47595,4
1777251005949,0.0127374,1.03358,-0.114871,0.107003,-0.00599332,-0.0395106,0,0,3.46066,4
1777251005962,0.009914,1.03114,-0.116507,0.105899,-0.00777666,-0.0342542,0,0,3.55814,4
1777251005976,0.00645468,1.03157,-0.118189,0.10487,-0.00889905,-0.0278968,0,0,4.10107,4
1777251005992,0.00334004,1.02937,-0.121186,0.103261,-0.00948747,-0.0203417,0,0,4.83155,4
1777251006006,0.00137241,1.02804,-0.122852,0.102252,-0.00941774,-0.0118487,0,0,3.62451,4
1777251006020,-0.00178582,1.03022,-0.124561,0.101162,-0.00946752,-0.00315558,0,0,3.61675,4
1777251006034,-0.00197323,1.02957,-0.126421,0.100797,-0.00946742,0.00523832,0,0,3.57786,4
1777251006047,-0.00368391,1.03618,-0.126546,0.102773,-0.00902629,0.0127418,0,0,3.6134,4
1777251006061,-0.00154635,1.03642,-0.127514,0.105658,-0.00894389,0.0190022,0,0,3.56627,4
1777251006076,0.00069041,1.03932,-0.128551,0.110749,-0.00942275,0.0243377,0,0,4.13066,4
1777251006090,0.00267846,1.04212,-0.130255,0.117331,-0.0100417,0.0283763,0,0,4.38235,4
1777251006109,0.00518494,1.04868,-0.130672,0.128575,-0.0112041,0.0308052,0,0,5.74044,4
1777251006126,0.00803013,1.05526,-0.131217,0.143401,-0.0132047,0.0326141,0,0,4.64951,4
1777251006142,0.00923673,1.05987,-0.133703,0.161049,-0.0158809,0.0335979,0,0,5.85844,4
1777251006159,0.00514437,1.06306,-0.13583,0.181213,-0.0174907,0.0355798,0,0,5.18213,4
1777251006173,0.00233603,1.07036,-0.137647,0.203141,-0.0176101,0.0390392,0,0,3.61003,4
1777251006192,-0.000629749,1.07927,-0.139361,0.229286,-0.0179325,0.0441499,0,0,4.2929,4
1777251006215,-0.00200495,1.08938,-0.141404,0.264505,-0.0176717,0.0514061,0,0,13.4442,4
1777251006230,-0.000303935,1.09699,-0.141991,0.303004,-0.0176182,0.0586278,0,0,4.83207,4
1777251006244,0.00405425,1.09892,-0.145173,0.343864,-0.0182228,0.0636889,0,0,3.89079,4
1777251006262,0.0112766,1.10333,-0.148958,0.388435,-0.0211142,0.0671601,0,0,6.49785,4
1777251006279,0.0153276,1.11129,-0.1549,0.437229,-0.0243616,0.070822,0,0,7.14436,4
1777251006293,0.0169328,1.1112,-0.161946,0.487808,-0.0282961,0.0756229,0,0,3.65346,4
1777251006308,0.0171607,1.11988,-0.166912,0.53865,-0.0313975,0.0809425,0,0,4.1237,4
1777251006322,0.0199641,1.13765,-0.171094,0.596513,-0.0355496,0.0862205,0,0,4.04016,4
1777251006336,0.0201453,1.16674,-0.173109,0.659824,-0.0416697,0.0942598,0,0,3.43716,4
1777251006349,0.0141537,1.19524,-0.177737,0.734458,-0.0478618,0.104058,0,0,3.45355,4
1777251006364,0.00759446,1.21254,-0.187269,0.811984,-0.0509191,0.115031,0,0,4.64896,4
1777251006379,0.010729,1.22833,-0.201839,0.89259,-0.0502253,0.12938,0,0,3.57507,4
1777251006393,-0.00263601,1.21176,-0.233696,0.95818,-0.0505038,0.149026,0,0,3.55258,4
1777251006408,-0.00498054,1.22918,-0.246908,1.0221,-0.0464677,0.171774,0,0,4.77131,4
1777251006422,0.0042413,1.25134,-0.249012,1.07737,-0.0471112,0.196493,0,0,3.40551,4
1777251006436,0.0113984,1.27549,-0.231498,1.14326,-0.0557727,0.24829,0,0,4.00679,4
1777251006449,0.0231662,1.25653,-0.201791,1.20217,-0.0723537,0.305185,0,0,3.46594,4
1777251006463,0.0440106,1.11879,-0.204003,1.23553,-0.090244,0.342151,0,0,3.4382,4
1777251006477,0.0240268,1.01991,-0.201488,1.1867,-0.0967131,0.348457,0,0,3.46205,4
1777251006490,0.00928591,0.990283,-0.192638,1.11913,-0.0795088,0.316164,0,0,3.49025,4
1777251006504,0.0111068,0.971916,-0.179148,1.04582,-0.0552368,0.267176,0,0,3.46642,4
1777251006518,0.0249999,0.944774,-0.167593,0.97098,-0.035011,0.216239,0,0,3.42412,4
1777251006533,0.038415,0.907706,-0.156439,0.888187,-0.0231346,0.176372,0,0,4.73124,4
1777251006547,0.0469966,0.867322,-0.14398,0.79294,-0.0164375,0.1476,0,0,3.44271,4
1777251006560,0.0507558,0.829682,-0.131289,0.688752,-0.0119701,0.119449,0,0,3.45716,4
1777251006574,0.0498397,0.791182,-0.119748,0.574856,-0.00713669,0.0833322,0,0,3.44392,4
1777251006587,0.0472495,0.75617,-0.108183,0.450919,-0.000977269,0.0394574,0,0,3.37388,4
1777251006601,0.047968,0.728079,-0.0992118,0.318797,0.00524771,-0.00480377,0,0,3.4579,4
1777251006614,0.0517274,0.710081,-0.0909763,0.181259,0.00898259,-0.0426215,0,0,3.37592,4
1777251006628,0.0566317,0.703446,-0.0863525,0.0443397,0.00940362,-0.0716639,0,0,3.46594,4
1777251006641,0.061124,0.702881,-0.0850557,-0.0892495,0.00697072,-0.0952364,0,0,3.40001,4
1777251006655,0.0640633,0.707263,-0.0879536,-0.220021,0.00353531,-0.114853,0,0,3.43703,4
1777251006668,0.0666734,0.718876,-0.0939893,-0.347988,0.000176989,-0.131991,0,0,3.44264,4
1777251006682,0.0699999,0.73507,-0.102398,-0.468776,-0.00317279,-0.146378,0,0,3.44553,4
1777251006696,0.0693738,0.757914,-0.111513,-0.58279,-0.00359428,-0.161324,0,0,3.44901,4
1777251006709,0.0656605,0.79309,-0.121239,-0.690408,0.00151434,-0.179404,0,0,3.41932,4
1777251006723,0.0652641,0.83544,-0.132584,-0.791989,0.0121169,-0.199884,0,0,3.46731,4
1777251006736,0.0713811,0.876797,-0.143744,-0.887873,0.024467,-0.217347,0,0,3.40301,4
1777251006750,0.0870697,0.920354,-0.157893,-0.974807,0.0331569,-0.225726,0,0,3.48353,4
1777251006764,0.108356,0.967275,-0.173604,-1.04853,0.0347526,-0.220211,0,0,3.50308,4
1777251006777,0.131844,1.00667,-0.18916,-1.10922,0.0272496,-0.20657,0,0,3.47101,4
1777251006791,0.151084,1.03958,-0.20283,-1.16105,0.0113298,-0.189588,0,0,3.45257,4
1777251006804,0.166972,1.07321,-0.215623,-1.20336,-0.0130915,-0.171773,0,0,3.37403,4
1777251006818,0.178436,1.10417,-0.228644,-1.23535,-0.0474342,-0.150876,0,0,3.45394,4
1777251006831,0.181039,1.12527,-0.236634,-1.26036,-0.0915015,-0.126964,0,0,3.3926,4
1777251006845,0.171583,1.13841,-0.240616,-1.2831,-0.142389,-0.102754,0,0,3.4752,4
1777251006859,0.154851,1.15251,-0.242224,-1.30122,-0.196356,-0.0888029,0,0,3.49644,5
1777251006873,0.134689,1.16271,-0.242455,-1.31407,-0.251959,-0.0852005,0,0,3.57346,5
1777251006886,0.11307,1.17331,-0.24318,-1.32081,-0.30771,-0.0874993,0,0,3.41294,5
1777251006900,0.092266,1.18255,-0.244315,-1.32015,-0.361675,-0.094846,0,0,3.39686,5
1777251006913,0.0709859,1.19061,-0.247702,-1.31246,-0.411871,-0.10029,0,0,3.43497,5
1777251006927,0.0508995,1.19505,-0.252227,-1.29744,-0.4573,-0.0995377,0,0,3.34742,5
1777251006940,0.0266674,1.1989,-0.259401,-1.27785,-0.495106,-0.0951661,0,0,3.4429,5
1777251006954,1.19888e-06,1.19824,-0.268528,-1.25296,-0.524326,-0.0922858,0,0,3.37255,5
1777251006968,-0.0289078,1.20059,-0.278568,-1.22034,-0.54667,-0.0964266,0,0,3.4901,5
1777251006981,-0.0560172,1.202,-0.288866,-1.17764,-0.564198,-0.113489,0,0,3.4311,5
1777251006995,-0.0787576,1.20059,-0.298627,-1.12569,-0.580962,-0.136664,0,0,3.3819,5
1777251007008,-0.0959497,1.1947,-0.303582,-1.06746,-0.598061,-0.159922,0,0,3.43186,5
1777251007022,-0.0517987,1.17165,-0.316804,-0.92726,-0.6292,-0.217633,0,0,3.37736,5
1777251007035,-0.0580822,1.20483,-0.269098,-0.816577,-0.672775,-0.265517,0,0,3.45499,5
1777251007049,-0.0605348,1.17393,-0.222,-0.701009,-0.711143,-0.289755,0,0,3.38734,5
1777251007064,-0.063918,1.17255,-0.188157,-0.57534,-0.738401,-0.306413,0,0,4.68918,5
1777251007077,-0.0737532,1.16543,-0.160567,-0.453076,-0.753799,-0.305462,0,0,3.45429,5
1777251007091,-0.0644671,1.15208,-0.141221,-0.336762,-0.764213,-0.303884,0,0,3.50034,5
1777251007105,-0.0592077,1.14143,-0.127,-0.233999,-0.772202,-0.301242,0,0,3.41671,5
1777251007118,-0.0546951,1.13287,-0.114302,-0.139711,-0.775487,-0.297537,0,0,3.52275,1
1777251007132,-0.0523804,1.12113,-0.107617,-0.0589323,-0.772096,-0.293445,0,0,3.47136,1
1777251007145,-0.0620548,1.1101,-0.102882,0.00810885,-0.75671,-0.280633,0,0,3.37497,1
1777251007159,-0.0662155,1.10156,-0.098754,0.0639905,-0.72812,-0.264853,0,0,3.46859,1
1777251007173,-0.0683899,1.09598,-0.0967204,0.109381,-0.690892,-0.248781,0,0,3.44299,1
1777251007186,-0.0572409,1.08538,-0.103949,0.141286,-0.653504,-0.235293,0,0,3.48832,1
1777251007200,-0.0596586,1.07872,-0.108485,0.164036,-0.616993,-0.217603,0,0,3.41531,1
1777251007213,-0.059366,1.07408,-0.108781,0.180226,-0.579057,-0.197763,0,0,3.4286,1
1777251007227,-0.0577068,1.06912,-0.111307,0.191603,-0.539409,-0.177763,0,0,3.44582,1
1777251007240,-0.0516214,1.06312,-0.111568,0.198069,-0.50043,-0.158398,0,0,3.39208,1
1777251007254,-0.0449188,1.05828,-0.108391,0.201873,-0.464314,-0.138902,0,0,3.45992,1
1777251007268,-0.0364832,1.05201,-0.108789,0.205972,-0.428605,-0.122933,0,0,3.45164,1
1777251007281,-0.0288631,1.04587,-0.108904,0.206708,-0.396591,-0.107225,0,0,3.46392,1
1777251007295,-0.0187946,1.04193,-0.107301,0.206443,-0.367199,-0.0954943,0,0,3.40023,1
1777251007308,-0.0117696,1.03492,-0.108321,0.204133,-0.340941,-0.0858859,0,0,3.50927,1
1777251007322,-0.00583709,1.03102,-0.109695,0.199966,-0.317539,-0.078238,0,0,3.40168,1
1777251007335,0.00215921,1.02836,-0.1098,0.195061,-0.297313,-0.0730445,0,0,3.53816,1
1777251007349,0.00804995,1.02502,-0.109228,0.189297,-0.279454,-0.0692427,0,0,3.4596,1
1777251007363,0.0103784,1.02446,-0.109497,0.183448,-0.263154,-0.0647121,0,0,3.4049,1
1777251007376,0.0126447,1.02513,-0.10897,0.177894,-0.247853,-0.0592325,0,0,3.48232,1
1777251007390,0.0144141,1.02524,-0.109088,0.172587,-0.233565,-0.0523818,0,0,3.38538,1
1777251007403,0.0162075,1.02602,-0.109063,0.168156,-0.219149,-0.044134,0,0,3.45938,1
1777251007417,0.0182427,1.02572,-0.109752,0.163879,-0.205341,-0.0352228,0,0,3.40749,1
1777251007430,0.0226835,1.02524,-0.109155,0.160099,-0.191939,-0.0267001,0,0,3.44244,1
1777251007444,0.0280803,1.02295,-0.109414,0.155443,-0.179563,-0.0199871,0,0,3.42792,5
1777251007457,0.0341741,1.02119,-0.109727,0.150458,-0.1686,-0.0157574,0,0,3.36851,5
1777251007471,0.0403369,1.01955,-0.109557,0.145208,-0.159057,-0.0141327,0,0,3.4419,5
1777251007484,0.0434015,1.01884,-0.110491,0.140189,-0.150782,-0.0140722,0,0,3.36523,5
1777251007498,0.0464584,1.018,-0.111168,0.1348,-0.143369,-0.0144261,0,0,3.44825,5
1777251007511,0.0500834,1.0171,-0.111424,0.129731,-0.136389,-0.0156508,0,0,3.40894,5
1777251007525,0.0525602,1.01576,-0.111665,0.124287,-0.130014,-0.0172307,0,0,3.49975,5
1777251007539,0.0531177,1.01557,-0.111851,0.119007,-0.123732,-0.017553,0,0,3.41149,5
1777251007552,0.0532058,1.01463,-0.113041,0.113843,-0.117781,-0.0167997,0,0,3.42658,5
1777251007566,0.0533437,1.01462,-0.113575,0.10902,-0.111757,-0.0144357,0,0,3.45329,4
1777251007579,0.0541312,1.01415,-0.11438,0.104699,-0.10622,-0.0115022,0,0,3.42523,4
1777251007593,0.0550251,1.01333,-0.11503,0.100851,-0.101045,-0.00809522,0,0,3.44077,4
1777251007607,0.0564715,1.01301,-0.115247,0.0970783,-0.0961226,-0.004935,0,0,3.43297,4
1777251007620,0.0583023,1.0127,-0.115274,0.0935684,-0.0913004,-0.00243589,0,0,3.45638,4
1777251007634,0.0612356,1.01159,-0.115847,0.0900327,-0.0868985,-0.00166554,0,0,3.42195,4
1777251007647,0.0643193,1.00979,-0.116292,0.0861857,-0.0828377,-0.00222724,0,0,3.42103,4
1777251007661,0.0666412,1.00704,-0.117082,0.0818823,-0.0787734,-0.00374655,0,0,3.44236,4
1777251007674,0.0671758,1.00874,-0.11706,0.0777518,-0.0751941,-0.00533478,0,0,3.4431,4
1777251007688,0.068817,1.00936,-0.116944,0.0735703,-0.0718027,-0.00781018,0,0,3.44273,4
1777251007702,0.0690105,1.00875,-0.117505,0.0699531,-0.0687642,-0.010378,0,0,3.38684,4
1777251007715,0.0685357,1.008,-0.118076,0.0662048,-0.0655579,-0.0118212,0,0,3.44495,4
1777251007729,0.0683615,1.00737,-0.11941,0.062123,-0.0624758,-0.0125069,0,0,3.40079,4
1777251007742,0.0704429,1.00569,-0.120162,0.0573881,-0.0596222,-0.0133725,0,0,3.51864,4
1777251007756,0.0748726,1.00293,-0.121077,0.0519211,-0.0576309,-0.0165189,0,0,3.41634,4
1777251007770,0.0760137,1.00141,-0.122077,0.0460199,-0.0563808,-0.020525,0,0,3.54133,4
1777251007783,0.0753378,0.999743,-0.123131,0.0392852,-0.0554234,-0.023814,0,0,3.44107,4
1777251007797,0.0759735,0.999921,-0.123633,0.0316436,-0.055329,-0.0270384,0,0,3.36564,4
1777251007810,0.0762448,0.999446,-0.123491,0.0235358,-0.0557837,-0.0301419,0,0,3.45701,4
1777251007824,0.0764735,0.999162,-0.12337,0.0158399,-0.0569836,-0.0336108,0,0,3.3679,4
1777251007837,0.0762649,1.00289,-0.121147,0.00952627,-0.0588313,-0.0378486,0,0,3.46553,4
1777251007851,0.0755475,1.00291,-0.121363,0.00295449,-0.0609436,-0.0416003,0,0,3.38936,4
1777251007864,0.071529,1.01158,-0.119623,-0.00145884,-0.0626077,-0.0440496,0,0,3.42603,4
1777251007878,0.0701461,1.0127,-0.118336,-0.00575308,-0.0639729,-0.0468712,0,0,3.42921,4
1777251007891,0.0700048,1.01131,-0.117052,-0.00978075,-0.0651973,-0.050455,0,0,3.35438,4
1777251007905,0.0690087,1.0106,-0.115759,-0.0140407,-0.0667898,-0.054129,0,0,3.42558,4
1777251007918,0.0669318,1.01132,-0.114525,-0.0171753,-0.0681046,-0.0566764,0,0,3.34227,4
1777251007932,0.0647249,1.01163,-0.11377,-0.0197744,-0.0695126,-0.0577834,0,0,3.43277,4
1777251007946,0.0624911,1.01282,-0.112538,-0.022065,-0.0709872,-0.0575695,0,0,3.37371,4
1777251007959,0.0599719,1.01554,-0.110114,-0.0230111,-0.0718524,-0.0562928,0,0,3.53894,4
1777251007973,0.057991,1.01693,-0.108635,-0.0237199,-0.0726691,-0.0537304,0,0,3.54536,5
1777251007986,0.0554503,1.01744,-0.107471,-0.0243677,-0.0739624,-0.0497188,0,0,3.40508,5
1777251008000,0.0534492,1.0183,-0.107619,-0.0252188,-0.0758511,-0.0441468,0,0,3.44275,5
1777251008013,0.0515877,1.02021,-0.10602,-0.0261207,-0.0783575,-0.036104,0,0,3.36681,5
1777251008027,0.0502552,1.02221,-0.105222,-0.0276272,-0.0817124,-0.026363,0,0,3.43246,5
1777251008041,0.0501478,1.02298,-0.104209,-0.0297256,-0.0863521,-0.0156097,0,0,3.38069,5
1777251008055,0.0513063,1.02415,-0.103814,-0.0318306,-0.0923415,-0.00462462,0,0,4.17918,5
1777251008068,0.0588635,1.02503,-0.0990312,-0.0331666,-0.099014,0.00469521,0,0,3.4364,5
1777251008082,0.064737,1.02472,-0.0977901,-0.0349544,-0.108395,0.0127815,0,0,3.43297,5
1777251008096,0.0687609,1.02688,-0.0883334,-0.0340256,-0.11895,0.0225679,0,0,3.43653,5
1777251008109,0.0855689,1.03308,-0.0835292,-0.0312863,-0.135974,0.0335096,0,0,3.3494,5
1777251008122,0.106734,1.04128,-0.0752011,-0.0239265,-0.160769,0.046852,0,0,3.45364,5
1777251008136,0.152224,1.04633,-0.0597261,-0.0204863,-0.205814,0.0796179,0,0,3.37538,5
1777251008150,0.210035,1.05021,-0.0379569,-0.0203905,-0.279538,0.12227,0,0,3.47608,5
1777251008163,0.273765,1.04932,-0.0137661,-0.025297,-0.381815,0.168725,0,0,3.40912,5
1777251008177,0.335289,1.04101,0.0140526,-0.0358715,-0.500706,0.215122,0,0,3.48651,5
1777251008190,0.379381,1.03175,0.0454189,-0.0523142,-0.612929,0.248284,0,0,3.43397,5
1777251008204,0.411782,1.0128,0.0778879,-0.0798495,-0.718856,0.268107,0,0,3.36118,5
1777251008217,0.434835,0.987309,0.109618,-0.114109,-0.818842,0.275518,0,0,3.44927,5
1777251008231,0.456101,0.96863,0.144662,-0.158153,-0.913219,0.272361,0,0,3.38003,5
1777251008244,0.499989,0.978537,0.170441,-0.201323,-1.0023,0.26411,0,0,3.46336,5
1777251008258,0.546058,0.994011,0.199595,-0.230349,-1.08639,0.229642,0,0,3.40538,5
1777251008271,0.535641,0.94339,0.224525,-0.267693,-1.16576,0.16009,0,0,3.63905,5
1777251008285,0.504733,0.938116,0.257232,-0.319787,-1.24068,0.0871908,0,0,3.44321,5
1777251008299,0.459577,0.961211,0.282188,-0.350448,-1.31139,0.0315386,0,0,3.43494,5
1777251008312,0.401836,0.971425,0.295748,-0.365941,-1.37814,-0.0137385,0,0,3.43479,5
1777251008326,0.33876,0.978848,0.298769,-0.367658,-1.44115,-0.0669964,0,0,3.41244,5
1777251008339,0.282359,0.982787,0.297759,-0.357646,-1.50062,-0.125814,0,0,3.44955,5
1777251008353,0.24235,0.987423,0.294094,-0.338017,-1.55675,-0.176673,0,0,3.39977,5
1777251008366,0.211542,0.991456,0.289882,-0.310309,-1.60974,-0.217469,0,0,3.49288,5
1777251008380,0.185557,0.990018,0.286631,-0.277416,-1.65975,-0.255094,0,0,3.46229,5
1777251008393,0.160194,0.986333,0.283029,-0.243888,-1.70696,-0.287012,0,0,3.54429,5
1777251008407,0.134707,0.980841,0.279875,-0.211119,-1.75152,-0.311154,0,0,3.4451,5
1777251008420,0.106541,0.977944,0.274858,-0.179893,-1.79358,-0.325318,0,0,3.33582,5
1777251008434,0.0755449,0.976155,0.268972,-0.149716,-1.83328,-0.330428,0,0,3.46227,5
1777251008447,0.0443294,0.97526,0.261198,-0.121164,-1.86056,-0.327942,0,0,3.38557,5
1777251008461,0.0164123,0.970335,0.252284,-0.0971155,-1.86539,-0.318645,0,0,3.45971,5
1777251008475,-0.00429678,0.967781,0.243515,-0.0783686,-1.85171,-0.304078,0,0,3.39206,5
1777251008488,-0.0193798,0.964727,0.235333,-0.0645184,-1.82399,-0.28464,0,0,3.45514,5
1777251008502,-0.0300563,0.964501,0.228309,-0.0543267,-1.7849,-0.264003,0,0,3.44108,5
1777251008515,-0.0287264,0.946402,0.226006,-0.0528551,-1.73873,-0.220968,0,0,3.3834,5
1777251008529,-0.0363041,0.952134,0.226983,-0.0532602,-1.68475,-0.185717,0,0,3.44171,5
1777251008542,-0.0447302,0.942302,0.232231,-0.0571751,-1.61972,-0.143845,0,0,3.37718,5
1777251008556,-0.0500681,0.931912,0.24543,-0.0679996,-1.54616,-0.0960707,0,0,3.47081,5
1777251008569,-0.0543671,0.913957,0.26694,-0.0847854,-1.4657,-0.0386229,0,0,3.39744,5
1777251008583,-0.0569733,0.881795,0.294693,-0.124433,-1.37944,0.0100189,0,0,3.46803,5
1777251008596,-0.038248,0.99075,0.310551,-0.144767,-1.28992,0.0450135,0,0,3.43762,5
1777251008610,0.00236506,0.97815,0.294884,-0.148589,-1.21563,0.0520243,0,0,3.41323,5
1777251008624,0.00531364,0.988688,0.277316,-0.14755,-1.14674,0.0535293,0,0,3.59479,5
1777251008637,0.0120408,0.988281,0.259775,-0.144922,-1.08146,0.0539393,0,0,3.35681,5
1777251008651,0.0124062,0.990815,0.241424,-0.141207,-1.01731,0.0519928,0,0,3.45386,5
1777251008664,0.0114227,0.992042,0.223815,-0.1378,-0.958205,0.0503567,0,0,3.38166,5
1777251008678,0.0155477,0.991188,0.208042,-0.134677,-0.904268,0.0482856,0,0,3.47229,5
1777251008691,0.0213311,0.990518,0.193853,-0.132544,-0.854501,0.0430937,0,0,3.44353,5
1777251008705,0.0232843,0.992008,0.179624,-0.13068,-0.808013,0.0380945,0,0,3.40836,5
1777251008718,0.0270041,0.994319,0.166002,-0.127991,-0.765061,0.0309436,0,0,3.43571,5
1777251008732,0.0287349,0.997514,0.156526,-0.124186,-0.724288,0.023937,0,0,3.34196,5
1777251008745,0.0302044,1.00017,0.145815,-0.119605,-0.685237,0.0157561,0,0,3.43899,5
1777251008759,0.0296605,1.00375,0.136527,-0.114326,-0.648093,0.0086722,0,0,3.36597,5
1777251008772,0.0287499,1.00644,0.126404,-0.109022,-0.612931,0.00258936,0,0,3.47083,5
1777251008786,0.0278494,1.00994,0.117971,-0.103228,-0.579312,-0.00259564,0,0,3.45853,0
1777251008799,0.0269446,1.01325,0.110587,-0.0970055,-0.547485,-0.00688177,0,0,3.43357,0
1777251008813,0.0265561,1.0159,0.102727,-0.0902754,-0.51752,-0.0102852,0,0,3.42834,0
1777251008826,0.02267,1.01789,0.094979,-0.0841797,-0.489489,-0.00896324,0,0,3.36169,0
1777251008840,0.0228774,1.01935,0.0882546,-0.0772912,-0.463133,-0.00721016,0,0,3.44668,0
1777251008853,0.0212655,1.01977,0.0810172,-0.070939,-0.438499,-0.004121,0,0,3.38975,0
1777251008867,0.0204013,1.01967,0.0740351,-0.0653413,-0.415577,0.000918689,0,0,3.45157,0
1777251008880,0.0198047,1.01913,0.0672119,-0.0601047,-0.394133,0.00622805,0,0,3.3971,0
1777251008894,0.0199948,1.01806,0.0610316,-0.0553074,-0.373871,0.0107686,0,0,3.62499,0
1777251008908,0.0218723,1.01665,0.0550336,-0.0505352,-0.35418,0.0139454,0,0,3.49647,0
1777251008921,0.0239732,1.01492,0.0488791,-0.0461163,-0.335473,0.0153555,0,0,3.40662,0
1777251008935,0.0259699,1.01317,0.0428507,-0.0418253,-0.317619,0.0149652,0,0,3.45197,0
1777251008948,0.0277314,1.01098,0.0371741,-0.0383017,-0.300642,0.0130382,0,0,3.37769,0
1777251008962,0.0289422,1.00973,0.0315147,-0.0351899,-0.284592,0.00966492,0,0,3.44621,0
1777251008975,0.0294003,1.00872,0.0266931,-0.0326165,-0.269417,0.00606982,0,0,3.38569,0
1777251008989,0.0293671,1.00813,0.0224022,-0.0302817,-0.255272,0.00280484,0,0,3.49236,0
1777251009002,0.0282676,1.00747,0.0179548,-0.0285146,-0.242049,0.000382403,0,0,3.43266,0
1777251009016,0.0276132,1.00694,0.0132775,-0.0270608,-0.229585,-0.00130469,0,0,3.51807,0
1777251009030,0.0263793,1.00665,0.00921871,-0.0259582,-0.217821,-0.00210073,0,0,3.41595,0
1777251009043,0.02542,1.00684,0.00582578,-0.0248918,-0.206309,-0.00229975,0,0,3.35634,0
1777251009057,0.0248021,1.00732,0.00273272,-0.023624,-0.194994,-0.00215362,0,0,3.44203,0
1777251009070,0.0244654,1.00761,-0.000419648,-0.0226329,-0.184133,-0.00150615,0,0,3.38892,0
1777251009084,0.0247638,1.00814,-0.00328563,-0.0216716,-0.173809,-0.000762262,0,0,3.44471,0
1777251009097,0.0247579,1.00749,-0.00678514,-0.0209741,-0.164175,0.000132586,0,0,3.41408,0
1777251009111,0.0248755,1.00732,-0.00955426,-0.0204442,-0.155377,0.00102862,0,0,3.37118,0
1777251009124,0.0246579,1.00697,-0.0120311,-0.0201881,-0.147197,0.00223407,0,0,3.39923,0
1777251009137,0.024521,1.00645,-0.0144512,-0.0203231,-0.139985,0.00343614,0,0,3.34508,0
1777251009151,0.0239124,1.00597,-0.0165027,-0.0206818,-0.133139,0.00525587,0,0,3.41557,0
1777251009164,0.0233928,1.00582,-0.018672,-0.0215641,-0.126844,0.00757728,0,0,3.33138,0
1777251009180,0.022779,1.00605,-0.0208428,-0.0226453,-0.120843,0.0101795,0,0,5.17796,0
1777251009193,0.0234185,1.00678,-0.0215225,-0.0238158,-0.115131,0.0124859,0,0,3.4242,0
1777251009207,0.0244467,1.0068,-0.0228487,-0.0252117,-0.109537,0.0140207,0,0,3.39295,0
1777251009220,0.025157,1.00736,-0.0247852,-0.0264994,-0.104344,0.0153238,0,0,3.42918,0
1777251009234,0.0251701,1.0081,-0.0259695,-0.0280531,-0.099403,0.0169734,0,0,3.43044,0
1777251009247,0.0257165,1.00934,-0.0260192,-0.0290015,-0.0947821,0.0183207,0,0,3.43136,0
1777251009261,0.0260543,1.00965,-0.0268741,-0.0297726,-0.0903347,0.0197723,0,0,3.3544,0
1777251009274,0.0265238,1.0098,-0.0276399,-0.0304191,-0.0862439,0.0213265,0,0,3.43518,0
1777251009288,0.0272956,1.01032,-0.0277055,-0.0305198,-0.0819715,0.0222883,0,0,3.40201,0
1777251009302,0.0280241,1.01097,-0.0281782,-0.0300581,-0.0779173,0.0226181,0,0,3.44895,0
1777251009315,0.0285337,1.0109,-0.0284738,-0.0291985,-0.0736624,0.0222357,0,0,3.38829,0
1777251009330,0.029809,1.01108,-0.0280406,-0.0278476,-0.0690851,0.0205689,0,0,4.78105,0
1777251009344,0.0310128,1.01094,-0.02807,-0.0259473,-0.0642637,0.0177495,0,0,3.34364,0
1777251009358,0.0318067,1.01115,-0.0277143,-0.0235156,-0.0591132,0.0140049,0,0,4.01953,0
1777251009371,0.0318028,1.01084,-0.0284056,-0.020912,-0.0540333,0.0102691,0,0,3.43831,0
1777251009385,0.0316212,1.01022,-0.0285515,-0.0180048,-0.048793,0.00678572,0,0,3.33736,0
1777251009398,0.0308198,1.01,-0.0294697,-0.0154277,-0.0437696,0.00391733,0,0,3.49229,0
1777251009412,0.0302414,1.01067,-0.0298161,-0.0128753,-0.039075,0.00201054,0,0,3.3704,0
1777251009425,0.0297638,1.01113,-0.0302389,-0.0099736,-0.0349521,0.000865839,0,0,3.36712,0
1777251009439,0.0291762,1.01196,-0.0307064,-0.00705485,-0.0311717,0.000894346,0,0,3.42934,0
1777251009453,0.0286078,1.01331,-0.0307369,-0.00382881,-0.0277662,0.0018076,0,0,3.91499,0
1777251009467,0.0273318,1.01555,-0.030437,4.12867e-06,-0.0249712,0.00385142,0,0,3.4356,0
1777251009481,0.0275516,1.0169,-0.0306333,0.00467541,-0.0228512,0.00620022,0,0,3.98986,0
1777251009494,0.028074,1.02069,-0.0303666,0.0105833,-0.0209785,0.00953484,0,0,3.43299,0
1777251009508,0.0290464,1.02425,-0.0304298,0.0182408,-0.019866,0.012691,0,0,3.41597,0
1777251009521,0.0300875,1.02797,-0.0279835,0.0280936,-0.0184519,0.0149807,0,0,3.44534,0
1777251009535,0.0312072,1.0301,-0.0276052,0.039145,-0.0171943,0.015973,0,0,3.35386,0
1777251009550,0.0354412,1.03264,-0.0260705,0.0528906,-0.0151208,0.0153383,0,0,4.6872,0
1777251009563,0.0336312,1.04981,-0.0188838,0.0745189,-0.0132621,0.0151673,0,0,3.38857,0
1777251009577,0.0284718,1.09031,-0.00808785,0.106444,-0.0136914,0.00374458,0,0,3.43673,0
1777251009591,0.0238894,1.16648,0.0121817,0.155028,-0.012431,0.00764085,0,0,3.43942,0
1777251009604,0.0307797,1.1923,0.0227415,0.219471,-0.0181566,0.0106506,0,0,3.45773,0
1777251009618,0.0372562,1.23903,0.0350234,0.296664,-0.0257703,0.0119158,0,0,3.44846,0
1777251009631,0.0448347,1.27896,0.0478899,0.386655,-0.0369135,0.013718,0,0,3.36408,0
1777251009645,0.0540696,1.31401,0.0614042,0.486884,-0.0497481,0.00933038,0,0,3.46438,0
1777251009658,0.0597327,1.33723,0.072517,0.596867,-0.063507,0.00339474,0,0,3.40582,0
1777251009672,0.0678307,1.34604,0.0754609,0.703691,-0.077646,-0.00820684,0,0,3.59321,0
1777251009686,0.0659842,1.35156,0.0760623,0.804523,-0.0864402,-0.0383875,0,0,3.3921,0
1777251009699,0.0461646,1.29921,0.0722614,0.872231,-0.0833985,-0.0717909,0,0,3.6666,0
1777251009713,0.0329072,1.23585,0.0922281,0.914535,-0.0681058,-0.117618,0,0,3.46353,0
1777251009726,0.018079,1.11912,0.0722374,0.905918,-0.0405769,-0.138099,0,0,3.35271,0
1777251009740,0.0158187,1.05806,0.0783604,0.851549,-0.00967228,-0.116976,0,0,3.44734,0
1777251009753,0.0150684,1.03272,0.0880429,0.781933,0.0202353,-0.0762109,0,0,3.38257,0
1777251009767,0.0115253,1.00565,0.0945529,0.716445,0.0515953,-0.0423826,0,0,3.46479,0
1777251009780,0.00890685,0.954472,0.0995885,0.640992,0.0829347,-0.02519,0,0,3.41279,0
1777251009794,0.0147888,0.90863,0.109354,0.551895,0.10984,-0.0177867,0,0,3.44442,5
1777251009808,0.0307213,0.869097,0.123282,0.454248,0.125131,-0.0116422,0,0,3.46094,5
1777251009821,0.0470473,0.83055,0.1391,0.349109,0.125006,-0.00594944,0,0,3.36851,5
1777251009835,0.0555419,0.796178,0.158111,0.236918,0.112599,-0.00349192,0,0,3.49733,5
1777251009848,0.054686,0.764364,0.179562,0.119044,0.0947047,-0.00481183,0,0,3.41014,5
1777251009862,0.0478663,0.733608,0.203151,-0.00717854,0.0759218,-0.00843414,0,0,3.51312,5
1777251009875,0.0370605,0.715314,0.228895,-0.139711,0.0594641,-0.0118747,0,0,3.43083,5
1777251009889,0.0255599,0.708386,0.256125,-0.272182,0.0474193,-0.0157816,0,0,3.92859,5
1777251009903,0.0150605,0.70705,0.282404,-0.397223,0.0408287,-0.0182191,0,0,3.63488,5
1777251009917,0.00679334,0.712349,0.307468,-0.51525,0.0397118,-0.0171629,0,0,3.47647,5
1777251009930,0.000605848,0.725457,0.331045,-0.626656,0.0439927,-0.0128903,0,0,3.51035,5
1777251009944,-0.00200269,0.751142,0.352285,-0.731814,0.0527049,-0.00619407,0,0,3.41742,5
1777251009958,-0.00419102,0.783917,0.369979,-0.831073,0.0647779,0.00423716,0,0,3.52638,5
1777251009971,-0.0015731,0.827644,0.386215,-0.924764,0.0793723,0.0158645,0,0,3.42157,5
1777251009985,0.00202091,0.887064,0.396665,-1.0132,0.0947451,0.0293317,0,0,3.51603,5
1777251009998,0.00585155,0.956955,0.399188,-1.09667,0.109059,0.0437948,0,0,3.45212,5
1777251010012,0.00816635,1.02612,0.389642,-1.17547,0.123353,0.0516233,0,0,3.50296,5
1777251010026,0.0153772,1.09237,0.369005,-1.24984,0.137488,0.0520718,0,0,3.49407,5
1777251010039,0.0380964,1.15144,0.336009,-1.30308,0.144274,0.0549486,0,0,3.49175,5
1777251010053,0.0681688,1.20908,0.289225,-1.32976,0.135942,0.0704625,0,0,3.51175,5
1777251010067,0.0872148,1.25239,0.233301,-1.33055,0.113647,0.0880607,0,0,3.44614,5
1777251010080,0.0878142,1.28801,0.170819,-1.30701,0.0832464,0.0977309,0,0,3.50077,5
1777251010094,0.0733982,1.31143,0.11128,-1.26127,0.0529243,0.0922489,0,0,3.43221,5
1777251010108,0.0607221,1.31748,0.0636534,-1.20079,0.0255447,0.0729058,0,0,3.92268,5
1777251010122,0.0607397,1.31672,0.0361176,-1.13132,-0.00235432,0.0479422,0,0,3.45818,5
1777251010136,0.2212,1.46722,0.0244097,-1.04851,-0.0496782,0.0145135,0,0,3.57051,5
1777251010149,0.247712,1.22054,0.0610152,-0.896648,-0.0986422,-0.04566,0,0,3.48551,5
1777251010163,0.224806,1.32051,0.0953072,-0.751728,-0.145087,-0.0897369,0,0,3.43897,5
1777251010176,0.204582,1.23847,0.112352,-0.612882,-0.157724,-0.120525,0,0,3.49834,5
1777251010190,0.180179,1.23685,0.126427,-0.486568,-0.143426,-0.138754,0,0,3.42355,5
1777251010204,0.168032,1.20946,0.136823,-0.372242,-0.113184,-0.151802,0,0,3.49281,5
1777251010217,0.162345,1.18993,0.150347,-0.280129,-0.0820088,-0.168914,0,0,3.49984,5
1777251010231,0.15832,1.18218,0.167701,-0.192729,-0.054869,-0.187318,0,0,3.5674,5
1777251010245,0.147905,1.16971,0.172413,-0.110064,-0.0392754,-0.193776,0,0,3.42801,5
1777251010258,0.135309,1.14818,0.177669,-0.0406302,-0.0307095,-0.190828,0,0,3.51314,5
1777251010272,0.122652,1.13379,0.182328,0.0205501,-0.0270301,-0.17723,0,0,3.44295,5
1777251010285,0.112294,1.12196,0.189671,0.0787098,-0.0285369,-0.157213,0,0,3.32551,5
1777251010299,0.102613,1.1093,0.192932,0.134356,-0.0351873,-0.132937,0,0,3.48566,5
1777251010313,0.0997601,1.09566,0.197968,0.185537,-0.0465644,-0.108957,0,0,3.45651,5
1777251010330,0.0986834,1.08983,0.199257,0.23702,-0.0624373,-0.0867281,0,0,7.65149,1
1777251010344,0.0978316,1.09402,0.197968,0.29098,-0.0773471,-0.0669453,0,0,3.37303,1
1777251010357,0.0941927,1.085,0.191738,0.341267,-0.088192,-0.0505587,0,0,3.48277,1
1777251010371,0.0951539,1.08119,0.187379,0.382563,-0.092905,-0.0436549,0,0,3.39338,1
1777251010384,0.0853795,1.07532,0.17921,0.4167,-0.0916716,-0.0367873,0,0,3.42297,1
1777251010398,0.0827814,1.06933,0.17065,0.440504,-0.0873816,-0.0307845,0,0,3.44407,1
1777251010412,0.0729615,1.06443,0.155573,0.453582,-0.0840045,-0.0214831,0,0,3.57362,1
1777251010425,0.0677186,1.06354,0.13989,0.455981,-0.0785517,-0.00777935,0,0,3.47308,1
1777251010439,0.0626602,1.05458,0.124292,0.45213,-0.0738501,0.0108849,0,0,3.3667,1
1777251010453,0.0588853,1.05423,0.11454,0.443412,-0.0679906,0.0319705,0,0,3.45968,1
1777251010466,0.0590195,1.05279,0.107362,0.435274,-0.0613423,0.0508544,0,0,3.39853,1
1777251010480,0.0623371,1.0501,0.0997239,0.426187,-0.0548057,0.0670946,0,0,3.49864,1
1777251010493,0.0679747,1.04795,0.0946779,0.418514,-0.0482032,0.0777268,0,0,3.39595,1
1777251010507,0.0778014,1.03903,0.0821365,0.409044,-0.0407722,0.0798796,0,0,3.88257,1
1777251010521,0.0847353,1.0315,0.0719967,0.395049,-0.0329402,0.0748209,0,0,3.44964,1
1777251010534,0.0910337,1.0265,0.0647264,0.379908,-0.0253891,0.0640385,0,0,3.37375,1
1777251010548,0.093966,1.02277,0.0566313,0.363878,-0.0184113,0.0499302,0,0,3.46675,1
1777251010561,0.0975966,1.02106,0.050935,0.347213,-0.0131267,0.0330764,0,0,3.38112,1
1777251010575,0.0958745,1.02079,0.044983,0.331784,-0.00771461,0.0153867,0,0,3.47179,1
1777251010588,0.0960292,1.01921,0.0396524,0.316573,-0.00221643,-0.00205143,0,0,3.41281,1
1777251010602,0.0926147,1.01915,0.0346756,0.302567,0.00300331,-0.0170342,0,0,3.4229,1
1777251010615,0.0913226,1.0193,0.0312927,0.289744,0.00870956,-0.0306242,0,0,3.45955,1
1777251010629,0.086789,1.02062,0.0286199,0.279914,0.015042,-0.0406516,0,0,3.75105,4
1777251010643,0.082359,1.02089,0.0243167,0.271,0.0192252,-0.0461172,0,0,3.45125,4
1777251010656,0.0791087,1.02273,0.0218024,0.26289,0.0218549,-0.0473755,0,0,3.3641,4
1777251010670,0.0765475,1.02203,0.0175667,0.25508,0.022907,-0.0472187,0,0,3.45581,4
1777251010683,0.0759512,1.01996,0.0119937,0.247058,0.0225469,-0.0465183,0,0,3.39173,4
1777251010697,0.074197,1.01963,0.00759602,0.239139,0.0211409,-0.0453135,0,0,3.46714,4
1777251010710,0.0727603,1.01934,0.00475972,0.231664,0.019604,-0.0438122,0,0,3.39744,4
1777251010724,0.0714316,1.01791,0.000658297,0.224073,0.0179306,-0.043577,0,0,3.92383,4
1777251010738,0.0700131,1.01615,-0.00403474,0.21633,0.0167107,-0.0439801,0,0,3.43834,4
1777251010751,0.0674553,1.01445,-0.00820433,0.208439,0.0161116,-0.0443691,0,0,3.33427,4
1777251010765,0.0635894,1.01452,-0.0129343,0.20019,0.0158887,-0.043987,0,0,3.46325,4
1777251010778,0.0623232,1.01428,-0.0163582,0.19209,0.0163762,-0.0444827,0,0,3.3552,4
1777251010792,0.0611417,1.01308,-0.0206719,0.183542,0.016982,-0.0462952,0,0,3.45471,4
1777251010805,0.0626969,1.01085,-0.0237166,0.175157,0.0175752,-0.0509946,0,0,3.3846,4
1777251010819,0.0642333,1.00938,-0.0264124,0.167742,0.018666,-0.0590273,0,0,3.47144,4
1777251010832,0.0640265,1.00887,-0.0280121,0.161917,0.0199441,-0.0701633,0,0,3.46373,4
1777251010846,0.0628043,1.00987,-0.0310696,0.157819,0.0209963,-0.0833551,0,0,3.37053,4
1777251010860,0.0599662,1.01001,-0.0355167,0.154794,0.0215869,-0.096338,0,0,3.4484,4
1777251010873,0.0537404,1.00961,-0.0374959,0.151322,0.0220503,-0.104927,0,0,3.35999,4
1777251010887,0.0469463,1.0092,-0.040843,0.147771,0.0219653,-0.109832,0,0,3.44105,4
1777251010900,0.037767,1.00959,-0.0447967,0.143533,0.0214868,-0.108274,0,0,3.41184,4
1777251010914,0.0314718,1.01055,-0.0474467,0.138976,0.0211422,-0.10173,0,0,3.46455,4
1777251010927,0.0260089,1.01133,-0.0496195,0.134285,0.0204787,-0.0919515,0,0,3.42021,4
1777251010941,0.0227424,1.01212,-0.0515197,0.129279,0.0198738,-0.0807178,0,0,3.51316,4
1777251010955,0.0211928,1.01244,-0.0535188,0.124262,0.0193328,-0.0694505,0,0,3.43447,4
1777251010968,0.0201547,1.01313,-0.0556659,0.119121,0.0188735,-0.0587295,0,0,3.33546,4
1777251010982,0.0189009,1.01224,-0.0577884,0.113556,0.0188682,-0.0482075,0,0,3.44186,4
1777251010995,0.0182379,1.01211,-0.0595591,0.108531,0.0190045,-0.038434,0,0,3.3686,4
1777251011009,0.0188856,1.01231,-0.0596556,0.104905,0.0189832,-0.0305747,0,0,3.46805,4
1777251011022,0.0189355,1.01062,-0.0621295,0.102858,0.0188005,-0.0235759,0,0,3.44846,4
1777251011036,0.0186265,1.00956,-0.0652589,0.102252,0.0183668,-0.0166014,0,0,3.4309,4
1777251011049,0.0169518,1.01687,-0.0642825,0.103235,0.0181886,-0.00975694,0,0,3.42781,4
1777251011063,0.0185618,1.02407,-0.0640866,0.106188,0.0178064,-0.00254707,0,0,3.4164,4
1777251011077,0.0166305,1.02416,-0.0654903,0.112906,0.0179423,0.00577416,0,0,3.43486,4
1777251011090,0.0185187,1.04373,-0.0645283,0.12689,0.017561,0.0199358,0,0,3.3679,4
1777251011104,0.022766,1.05337,-0.06399,0.143995,0.013326,0.0375978,0,0,3.45299,4
1777251011118,0.0224339,1.06129,-0.0632217,0.164709,0.0106603,0.05167,0,0,3.84312,4
1777251011131,0.0232023,1.06604,-0.0640303,0.187533,0.00740755,0.0619642,0,0,3.46177,4
1777251011145,0.0232977,1.07039,-0.0654234,0.2126,0.00420883,0.070559,0,0,3.38145,4
1777251011158,0.022744,1.07564,-0.0677655,0.239683,0.00073994,0.078402,0,0,3.48899,4
1777251011172,0.0187157,1.08303,-0.0694422,0.268457,-0.0020077,0.0881558,0,0,3.42736,4
1777251011185,0.0213497,1.09372,-0.0694499,0.303608,-0.00494805,0.0969471,0,0,3.3436,4
1777251011199,0.0232608,1.09982,-0.0725933,0.341776,-0.00756933,0.103511,0,0,3.44386,4
1777251011212,0.0239143,1.11045,-0.0757794,0.382144,-0.00902877,0.109339,0,0,3.37482,4
1777251011226,0.0311867,1.12424,-0.0767737,0.429522,-0.0127913,0.114476,0,0,3.48105,4
1777251011240,0.0360792,1.13871,-0.0778629,0.482914,-0.0184067,0.119174,0,0,3.38199,4
1777251011253,0.044559,1.15585,-0.0750565,0.540847,-0.0260878,0.123875,0,0,3.43997,4
1777251011267,0.049975,1.17928,-0.0695455,0.607006,-0.037059,0.125739,0,0,3.42733,4
1777251011280,0.0562649,1.21071,-0.0625632,0.687236,-0.0479201,0.125327,0,0,3.36034,4
1777251011294,0.0622841,1.23475,-0.054836,0.77722,-0.0606469,0.1226,0,0,3.46336,4
1777251011307,0.0669934,1.26107,-0.0484461,0.873928,-0.072998,0.115424,0,0,3.38131,4
1777251011321,0.0706306,1.2786,-0.0413601,0.965211,-0.0835859,0.104539,0,0,3.86846,4
1777251011335,0.0744061,1.29444,-0.042094,1.05137,-0.0920255,0.0918027,0,0,3.39242,4
1777251011348,0.0643576,1.30218,-0.0506473,1.1327,-0.0974912,0.0799093,0,0,3.57305,4
1777251011362,0.0495456,1.28972,-0.0669923,1.20947,-0.0955167,0.0651891,0,0,3.40686,4
1777251011375,0.0443425,1.26784,-0.0975254,1.28193,-0.0853846,0.053003,0,0,3.43897,4
1777251011389,0.0503321,1.26021,-0.131837,1.35033,-0.0788396,0.0554936,0,0,3.43975,4
1777251011402,0.0619839,1.23863,-0.148435,1.41489,-0.074443,0.0581442,0,0,3.36381,4
1777251011416,0.051742,1.25166,-0.164581,1.47583,-0.069017,0.0664652,0,0,3.44295,4
1777251011430,0.056262,1.21543,-0.175617,1.53335,-0.0654668,0.0870194,0,0,3.44125,4
1777251011443,0.0680605,1.19813,-0.183637,1.57444,-0.0710092,0.114466,0,0,3.47105,4
1777251011457,0.110927,1.17526,-0.183868,1.61899,-0.0975858,0.143003,0,0,3.38955,4
1777251011470,0.141187,1.06431,-0.225976,1.63841,-0.152234,0.151706,0,0,3.41947,4
1777251011484,0.128954,1.00296,-0.252768,1.62609,-0.203606,0.156809,0,0,3.44321,4
1777251011497,0.0935783,0.950465,-0.274058,1.58249,-0.23622,0.146159,0,0,3.35108,4
1777251011511,0.0556406,0.898452,-0.288882,1.51752,-0.240359,0.10171,0,0,3.44668,4
1777251011525,0.0247199,0.858587,-0.295767,1.43868,-0.221438,0.0287071,0,0,3.67027,4
1777251011538,0.00333944,0.825449,-0.296883,1.35049,-0.187822,-0.0495014,0,0,3.45533,4
1777251011552,-0.0026817,0.792377,-0.291967,1.2549,-0.150106,-0.115877,0,0,3.38579,4
1777251011565,0.00676724,0.757996,-0.281478,1.15269,-0.116568,-0.163166,0,0,3.4071,4
1777251011579,0.0292437,0.712561,-0.27103,1.04054,-0.09548,-0.188397,0,0,3.42705,4
1777251011592,0.0530202,0.650489,-0.257923,0.911047,-0.0902527,-0.1961,0,0,3.33055,4
1777251011606,0.0727105,0.598088,-0.241346,0.763063,-0.0974535,-0.195321,0,0,3.44566,4
1777251011619,0.0802585,0.546491,-0.222892,0.594164,-0.112048,-0.192085,0,0,3.3911,4
1777251011633,0.080892,0.473206,-0.199229,0.420528,-0.129934,-0.190602,0,0,3.46918,4
1777251011646,0.074232,0.416234,-0.165047,0.256631,-0.147232,-0.188492,0,0,3.38947,4
1777251011660,0.0625773,0.407224,-0.124497,0.101928,-0.160798,-0.18319,0,0,3.42488,4
1777251011673,0.0521378,0.415345,-0.084072,-0.0440972,-0.170494,-0.168393,0,0,3.43236,4
1777251011687,0.0446256,0.437938,-0.0470236,-0.181932,-0.177271,-0.14268,0,0,3.37186,4
1777251011700,0.0392603,0.484022,-0.0165315,-0.312035,-0.179496,-0.109971,0,0,3.4696,4
1777251011714,0.0321418,0.533657,0.00573174,-0.43484,-0.175439,-0.080406,0,0,3.37553,4
1777251011728,0.0268742,0.588067,0.0202413,-0.550757,-0.164798,-0.0704236,0,0,3.46545,4
1777251011741,0.0272566,0.657214,0.0297876,-0.660172,-0.151298,-0.0750457,0,0,3.38449,4
1777251011755,0.0339033,0.719196,0.0384423,-0.763449,-0.140216,-0.0796097,0,0,3.61855,4
1777251011769,0.0377258,0.789108,0.0448998,-0.860934,-0.130904,-0.0715517,0,0,3.41268,4
1777251011782,0.0328571,0.857345,0.0514196,-0.95295,-0.117421,-0.0543972,0,0,3.40429,4
1777251011796,0.0209213,0.936613,0.0575874,-1.0398,-0.0946878,-0.0337731,0,0,3.45907,4
1777251011809,0.00506733,1.02073,0.0576986,-1.12179,-0.0616514,-0.00890224,0,0,3.36071,4
1777251011823,-0.00425524,1.10164,0.0518054,-1.19917,-0.0215063,0.0148947,0,0,3.45158,4
1777251011836,-0.00233214,1.17738,0.0361637,-1.27222,0.0209558,0.0320217,0,0,3.43327,4
1777251011850,0.0201343,1.23922,0.011868,-1.34116,0.0581459,0.0370294,0,0,3.43007,4
1777251011863,0.040423,1.22444,0.0024379,-1.35539,0.0830333,0.0351664,0,0,3.47021,4
1777251011877,0.0835253,1.33027,-0.0363035,-1.40816,0.0780161,0.0486899,0,0,3.46121,4
1777251011891,0.113747,1.37991,-0.099973,-1.41935,0.0507748,0.0725234,0,0,3.42729,5
1777251011904,0.111174,1.40967,-0.17356,-1.3954,0.00844796,0.0900403,0,0,3.35375,5
1777251011918,0.0619374,1.43368,-0.254372,-1.34206,-0.0244953,0.0902778,0,0,3.44857,5
1777251011931,-0.00872172,1.57762,-0.421281,-1.23501,-0.0343483,0.0328681,0,0,3.43294,5
1777251011945,0.0537074,1.64225,-0.499702,-1.05165,-0.0635422,0.0292475,0,0,3.46645,5
1777251011958,0.0611711,1.55808,-0.460183,-0.888847,-0.0921305,0.0238004,0,0,3.39155,5
1777251011972,0.0627383,1.54786,-0.391191,-0.713925,-0.110453,0.0110413,0,0,3.40312,5
1777251011985,0.0544261,1.51076,-0.350295,-0.548857,-0.105825,-0.00773309,0,0,3.4404,5
1777251011999,0.0422801,1.47464,-0.323429,-0.399994,-0.0921256,-0.0180511,0,0,3.34288,5
1777251012012,0.0473583,1.44372,-0.300755,-0.275037,-0.0800257,-0.0300511,0,0,3.44512,5
1777251012026,0.0493032,1.41811,-0.274353,-0.165986,-0.07525,-0.0421317,0,0,3.36445,5
1777251012039,0.0415118,1.38897,-0.258813,-0.0771399,-0.0710633,-0.0426715,0,0,3.49149,5
1777251012053,0.0317062,1.36091,-0.247528,-0.0067695,-0.0647521,-0.0374348,0,0,3.39979,5
1777251012067,0.0255044,1.33725,-0.236191,0.0481397,-0.056243,-0.0308005,0,0,3.44158,5
1777251012080,0.0227317,1.3145,-0.225448,0.0895127,-0.0501123,-0.0242258,0,0,3.43632,5
1777251012094,0.0211964,1.29215,-0.215226,0.120459,-0.0446637,-0.0176687,0,0,3.36147,5
1777251012107,0.0226642,1.27149,-0.201428,0.142031,-0.0387501,-0.0149049,0,0,3.44047,5
1777251012121,0.0199961,1.2546,-0.191088,0.161083,-0.0298583,-0.0130155,0,0,3.37897,5
1777251012134,0.0232567,1.24014,-0.181095,0.177803,-0.0193157,-0.0130905,0,0,3.47038,1
1777251012148,0.0246089,1.22769,-0.170746,0.193846,-0.00991685,-0.014951,0,0,3.39412,1
1777251012161,0.0278709,1.2144,-0.164756,0.206142,-0.000278756,-0.0200042,0,0,3.59605,1
1777251012175,0.0287863,1.20163,-0.161102,0.214871,0.00875877,-0.0273174,0,0,3.42138,1
1777251012188,0.0309375,1.18388,-0.160706,0.218777,0.0140523,-0.0337065,0,0,3.41727,1
1777251012202,0.0268193,1.1778,-0.154061,0.219248,0.0151181,-0.0349116,0,0,3.4496,1
1777251012216,0.0219051,1.16898,-0.149884,0.21732,0.015135,-0.0332574,0,0,3.37275,1
1777251012229,0.0177184,1.16187,-0.143736,0.213934,0.0136994,-0.0269644,0,0,3.4919,1
1777251012243,0.0146703,1.15414,-0.137974,0.209748,0.0112354,-0.0172907,0,0,3.4287,1
1777251012256,0.0133681,1.14557,-0.133946,0.205078,0.00824158,-0.00604864,0,0,3.46138,1
1777251012270,0.012454,1.13705,-0.131007,0.199257,0.00551418,0.00534213,0,0,3.39229,1
1777251012283,0.0129605,1.12814,-0.127465,0.192593,0.00384753,0.015593,0,0,3.47168,1
1777251012297,0.0143151,1.11886,-0.124752,0.185442,0.00281816,0.0234662,0,0,3.43207,1
1777251012310,0.0161003,1.1104,-0.122493,0.177494,0.00283563,0.0291122,0,0,3.3484,1
1777251012324,0.0180046,1.10292,-0.119703,0.169289,0.00312189,0.032412,0,0,3.47266,1
1777251012337,0.0207469,1.09647,-0.11722,0.161386,0.00328933,0.0330517,0,0,3.4386,1
1777251012351,0.0222947,1.09053,-0.113904,0.153635,0.00280509,0.0315403,0,0,3.44368,1
1777251012364,0.0230572,1.08531,-0.11124,0.146135,0.0017614,0.0288034,0,0,3.38753,1
1777251012378,0.0236948,1.0809,-0.108807,0.138884,0.000502213,0.0253037,0,0,3.38299,1
1777251012391,0.0245568,1.07662,-0.105676,0.132045,-0.000626397,0.0213067,0,0,3.43481,1
1777251012405,0.024987,1.07359,-0.10372,0.125751,-0.00133202,0.0161808,0,0,3.33053,1
1777251012418,0.0256944,1.06904,-0.101544,0.120239,-0.00163411,0.0103619,0,0,3.42234,1
1777251012432,0.0248009,1.06532,-0.0985326,0.115216,-0.00135405,0.0053575,0,0,3.79351,4
1777251012446,0.0241356,1.06285,-0.0955529,0.11101,-0.000854191,0.000843635,0,0,3.44283,4
1777251012459,0.0227544,1.06045,-0.0938632,0.107742,-0.000211098,-0.00297601,0,0,3.37973,4
1777251012473,0.0215191,1.05771,-0.091611,0.104742,0.000973973,-0.00629451,0,0,3.40403,4
1777251012486,0.0208324,1.05579,-0.0899233,0.102318,0.00198981,-0.00946541,0,0,3.42201,4
1777251012500,0.0189107,1.05429,-0.0885904,0.100608,0.00284161,-0.0119917,0,0,3.36555,4
1777251012513,0.0181786,1.05263,-0.0875241,0.0997692,0.00367133,-0.0141665,0,0,3.44073,4
1777251012527,0.016351,1.05125,-0.0867093,0.0989258,0.00445879,-0.0152859,0,0,3.35273,4
1777251012540,0.0147491,1.04973,-0.085009,0.0982752,0.00539904,-0.0161926,0,0,3.45018,4
1777251012554,0.0145654,1.04912,-0.0845133,0.0988259,0.00646639,-0.0175965,0,0,3.39577,4
1777251012568,0.013406,1.04784,-0.0834702,0.0998766,0.00781642,-0.0190544,0,0,3.58081,4
1777251012581,0.0140646,1.04768,-0.0834032,0.101155,0.00921918,-0.0201051,0,0,3.42486,4
1777251012595,0.0110161,1.04444,-0.0829702,0.102217,0.0103035,-0.0200479,0,0,3.39042,4
1777251012608,0.00941216,1.04168,-0.0826436,0.105745,0.0113184,-0.0187264,0,0,3.42399,4
1777251012622,0.0101441,1.0412,-0.0827462,0.107854,0.0113343,-0.0176289,0,0,3.36271,4
1777251012636,0.0118484,1.04312,-0.0822816,0.109478,0.0108955,-0.0166186,0,0,3.78383,4
1777251012649,0.0120876,1.04037,-0.0839246,0.112633,0.0091711,-0.0164143,0,0,3.36712,4
1777251012663,0.00950605,1.04644,-0.0832021,0.117786,0.00680263,-0.0155664,0,0,3.47964,4
1777251012676,0.0104381,1.04563,-0.0831639,0.121734,0.0033167,-0.0114562,0,0,3.39582,4
1777251012690,0.00666183,1.06631,-0.0817309,0.130736,-0.00323647,8.37835e-05,0,0,3.49964,4
1777251012703,-0.00192851,1.08785,-0.0794881,0.151937,-0.0064376,0.0106339,0,0,3.44258,4
1777251012717,-0.00069739,1.09255,-0.0786311,0.174325,-0.011279,0.020468,0,0,3.33877,4
1777251012730,-0.00405449,1.10199,-0.076932,0.201277,-0.0148254,0.0306454,0,0,3.46244,4
1777251012744,-0.00699048,1.10767,-0.0756158,0.231516,-0.0172095,0.0408729,0,0,3.42571,4
1777251012757,-0.00694073,1.11325,-0.0760852,0.265022,-0.0199394,0.0512203,0,0,3.45364,4
1777251012771,-0.00273066,1.1196,-0.0760627,0.302186,-0.0216598,0.0601309,0,0,3.3859,4
1777251012784,0.000996759,1.12508,-0.0769041,0.342432,-0.0236392,0.066739,0,0,3.44062,4
1777251012798,0.00636384,1.12052,-0.0811631,0.383881,-0.027597,0.0694868,0,0,3.41384,4
1777251012811,0.0108958,1.10621,-0.091469,0.422864,-0.0324247,0.0683338,0,0,3.37673,4
1777251012825,0.0123114,1.09502,-0.10195,0.455691,-0.0372599,0.0667616,0,0,3.44555,4
1777251012838,0.0114976,1.08762,-0.111528,0.486227,-0.0421365,0.0659327,0,0,3.37384,4
1777251012852,0.00768923,1.08558,-0.120952,0.514891,-0.0473562,0.0668203,0,0,3.46446,4
1777251012865,0.00844934,1.0923,-0.127479,0.54587,-0.0507887,0.068386,0,0,3.40836,4
1777251012879,0.0100159,1.09155,-0.135775,0.580807,-0.0535919,0.0669008,0,0,3.58096,4
1777251012893,0.0140554,1.09726,-0.141539,0.61416,-0.0556983,0.0658671,0,0,3.4346,4
1777251012906,0.0172521,1.11412,-0.144555,0.656373,-0.0585644,0.0610292,0,0,3.40616,4
1777251012920,0.0186809,1.11702,-0.152346,0.705299,-0.0611113,0.0548356,0,0,3.45486,4
1777251012933,0.0236723,1.13196,-0.158645,0.758427,-0.064149,0.0463731,0,0,3.35734,4
1777251012947,0.0281783,1.15063,-0.159511,0.820709,-0.0675601,0.0348271,0,0,3.46753,4
1777251012961,0.034294,1.16545,-0.16397,0.891333,-0.0708527,0.0192787,0,0,3.37538,4
1777251012974,0.0428192,1.18458,-0.167152,0.968657,-0.0759517,0.00130963,0,0,3.48688,4
1777251012988,0.0484697,1.19843,-0.173635,1.05237,-0.0811586,-0.0193553,0,0,3.38147,4
1777251013001,0.0531185,1.20007,-0.1886,1.13364,-0.0878718,-0.0398888,0,0,3.37744,4
1777251013015,0.0452774,1.20027,-0.202287,1.21036,-0.0940971,-0.0593132,0,0,3.45375,4
1777251013028,0.0311248,1.19605,-0.21859,1.28277,-0.0987272,-0.0673888,0,0,3.70192,4
1777251013042,0.0135893,1.19742,-0.232197,1.35112,-0.104297,-0.0538633,0,0,3.43286,4
1777251013057,-0.0135211,1.20813,-0.258229,1.41564,-0.103764,-0.0347422,0,0,3.83631,4
1777251013070,-0.0184595,1.1665,-0.283814,1.47653,-0.0962612,-0.0100738,0,0,3.65421,4
1777251013084,-0.0257229,1.18509,-0.297036,1.53402,-0.0837152,-0.0114014,0,0,3.48312,4
1777251013099,-0.0284295,1.16193,-0.313666,1.58827,-0.0682634,-0.0104193,0,0,5.0327,4
1777251013113,-0.0187414,1.12337,-0.333047,1.63949,-0.0585639,0.00351602,0,0,3.45264,4
1777251013128,-0.0198128,1.08409,-0.349629,1.67597,-0.0530866,0.0241072,0,0,4.63016,4
1777251013143,-0.0184001,1.01542,-0.353448,1.67882,-0.0406973,0.0156814,0,0,3.46818,4
1777251013157,0.0319319,0.906517,-0.351165,1.66442,-0.0454325,0.0096935,0,0,4.31088,4
1777251013171,0.0431916,0.779171,-0.36306,1.54115,-0.077216,0.0166345,0,0,3.46957,4
1777251013184,0.0503139,0.707844,-0.360936,1.40494,-0.107863,0.0161296,0,0,3.46296,4
1777251013198,0.0493952,0.663373,-0.361698,1.23644,-0.137036,0.00596317,0,0,3.47979,4
1777251013212,0.0411467,0.627067,-0.354268,1.04756,-0.163544,-0.00974749,0,0,3.49401,4
1777251013225,0.0297867,0.598111,-0.346941,0.848494,-0.18708,-0.0308413,0,0,3.43134,4
1777251013239,0.0208167,0.575489,-0.333204,0.660592,-0.208272,-0.0552778,0,0,3.31936,4
1777251013252,0.0109668,0.551549,-0.313432,0.483229,-0.230116,-0.0740317,0,0,3.40425,4
1777251013266,0.00187479,0.53877,-0.285854,0.315816,-0.251789,-0.0798002,0,0,3.39881,4
1777251013280,-0.00336578,0.555069,-0.255194,0.157793,-0.27401,-0.067591,0,0,3.67305,4
1777251013293,-0.00393018,0.586148,-0.230376,0.00863374,-0.294997,-0.0381299,0,0,3.3311,4
1777251013306,-0.00457248,0.606554,-0.211346,-0.132159,-0.315758,0.006348,0,0,3.30862,4
1777251013320,-0.00804088,0.619106,-0.19767,-0.265054,-0.334785,0.0591384,0,0,3.33999,4
1777251013333,-0.0172992,0.625202,-0.187048,-0.390494,-0.347657,0.106394,0,0,3.31655,4
1777251013347,-0.0256685,0.632764,-0.177323,-0.508899,-0.350508,0.137576,0,0,3.33695,4
1777251013360,-0.033267,0.654896,-0.168841,-0.620661,-0.347499,0.157511,0,0,3.50044,4
1777251013374,-0.0392205,0.689784,-0.164725,-0.726155,-0.342069,0.175947,0,0,3.39245,4
1777251013387,-0.0472639,0.728055,-0.16477,-0.825731,-0.333629,0.196214,0,0,3.31721,4
1777251013401,-0.0601834,0.765302,-0.168209,-0.919722,-0.31861,0.216979,0,0,3.30327,4
1777251013414,-0.0789788,0.798543,-0.173687,-1.00844,-0.2925,0.232807,0,0,3.32366,4
1777251013429,-0.0997876,0.821127,-0.176146,-1.09218,-0.250637,0.238794,0,0,3.48871,4
1777251013442,-0.11328,0.839158,-0.172634,-1.17123,-0.19722,0.240112,0,0,3.43595,4
1777251013459,-0.114746,0.868393,-0.163854,-1.24584,-0.136432,0.246023,0,0,3.48836,4
1777251013472,-0.107447,0.908615,-0.152869,-1.31627,-0.0748917,0.257336,0,0,3.45673,4
1777251013486,-0.0923676,0.951222,-0.144212,-1.38274,-0.016491,0.271226,0,0,3.69771,4
1777251013501,-0.0723143,0.994549,-0.138218,-1.44549,0.0338296,0.289445,0,0,3.45716,4
1777251013515,-0.0542897,1.0306,-0.137189,-1.50407,0.0758554,0.308415,0,0,3.48897,4
1777251013528,-0.0369748,1.06458,-0.138162,-1.55939,0.111503,0.320737,0,0,3.44694,5
1777251013542,-0.0195631,1.11085,-0.143135,-1.60266,0.141713,0.322482,0,0,3.44799,5
1777251013555,0.00129534,1.15657,-0.155428,-1.62777,0.164807,0.31255,0,0,3.37512,5
1777251013569,0.0249962,1.19845,-0.176947,-1.6336,0.178158,0.295819,0,0,3.40777,5
1777251013582,0.0529687,1.2402,-0.205544,-1.61646,0.178733,0.276905,0,0,3.44736,5
1777251013596,0.0801116,1.27144,-0.243589,-1.57795,0.163055,0.263873,0,0,3.42345,5
1777251013609,0.0927908,1.28707,-0.288236,-1.52555,0.134238,0.24998,0,0,3.45405,5
1777251013623,0.0830668,1.30397,-0.332995,-1.45988,0.102242,0.230254,0,0,3.4281,5
1777251013636,0.0573453,1.32287,-0.377913,-1.37387,0.0770029,0.202271,0,0,3.45758,5
1777251013650,-0.00672941,1.47303,-0.581085,-1.23671,0.0518995,0.152825,0,0,3.40108,5
1777251013664,-0.0240999,1.27723,-0.528894,-1.07796,0.0305506,0.132229,0,0,3.75466,5
1777251013677,-0.0262813,1.36024,-0.452186,-0.925117,0.0147196,0.124166,0,0,3.41084,5
1777251013691,-0.0285868,1.28847,-0.40309,-0.768444,0.00874718,0.10901,0,0,3.46749,5
1777251013704,-0.0348986,1.2911,-0.362649,-0.618533,0.00775127,0.0992982,0,0,3.39329,5
