time,ax,ay,az,gx,gy,gz
1746729740.2653892,-0.45,-9.89,-9.7,0.02,0.01,-0.02
1746729740.3478208,-0.49,-9.9,-9.65,0.03,0.01,-0.02
1746729740.355825,-0.51,-9.87,-9.7,0.03,0.01,-0.02
1746729740.3559878,-0.42,-9.89,-9.64,0.03,0.01,-0.03
1746729740.3559878,-0.52,-9.85,-9.65,0.03,0.01,-0.02
1746729740.3559878,-0.58,-9.88,-9.75,0.03,0.02,-0.03
1746729740.3641796,-0.46,-9.79,-9.7,0.04,0.01,-0.03
1746729740.3641796,-0.46,-9.78,-9.64,0.04,0.0,-0.02
1746729740.3641796,-0.46,-9.83,-9.63,0.04,0.0,-0.02
1746729740.3641796,-0.49,-9.85,-9.64,0.04,0.0,-0.03
1746729740.3884735,-0.42,-9.88,-9.67,0.03,0.01,-0.03
1746729740.3884735,-0.51,-9.85,-9.7,0.03,0.01,-0.03
1746729740.3884735,-0.5,-9.87,-9.7,0.04,0.01,-0.02
1746729740.4011445,-0.45,-9.75,-9.6,0.04,0.01,-0.02
1746729740.4034426,-0.49,-9.79,-9.72,0.04,0.0,-0.02
1746729740.404815,-0.49,-9.85,-9.66,0.04,0.01,-0.02
1746729740.4059176,-0.49,-9.82,-9.62,0.04,0.01,-0.03
1746729740.4070537,-0.46,-9.77,-9.67,0.04,0.02,-0.03
1746729740.408184,-0.45,-9.87,-9.7,0.04,0.01,-0.03
1746729740.409316,-0.43,-9.9,-9.71,0.04,-0.0,-0.03
1746729740.4300709,-0.45,-9.85,-9.67,0.03,0.01,-0.03
1746729740.4373772,-0.46,-9.87,-9.7,0.04,0.0,-0.02
1746729740.4373772,-0.46,-9.85,-9.66,0.03,0.01,-0.02
1746729740.4373772,-0.49,-9.85,-9.65,0.04,0.0,-0.02
1746729740.4373772,-0.48,-9.92,-9.7,0.03,0.0,-0.02
1746729740.4373772,-0.47,-9.86,-9.61,0.04,0.01,-0.03
1746729740.4453795,-0.48,-9.86,-9.6,0.03,0.01,-0.03
1746729740.4453795,-0.47,-9.86,-9.62,0.03,0.01,-0.03
1746729740.4453795,-0.49,-9.87,-9.7,0.03,0.01,-0.03
1746729740.4533808,-0.46,-9.78,-9.74,0.03,0.02,-0.03
1746729740.4693875,-0.47,-9.85,-9.67,0.03,0.01,-0.03
1746729740.4774172,-0.47,-9.85,-9.61,0.03,0.02,-0.04
1746729740.4774172,-0.46,-9.87,-9.77,0.03,0.02,-0.04
1746729740.4774172,-0.43,-9.76,-9.64,0.03,0.02,-0.03
1746729740.4774172,-0.46,-9.86,-9.63,0.03,0.01,-0.03
1746729740.4774172,-0.45,-9.8,-9.68,0.03,0.01,-0.03
1746729740.4774172,-0.43,-9.85,-9.7,0.03,0.01,-0.03
1746729740.4854167,-0.51,-9.86,-9.58,0.03,0.01,-0.03
1746729740.4854167,-0.43,-9.78,-9.65,0.03,0.0,-0.03
1746729740.4854167,-0.45,-9.82,-9.73,0.03,0.01,-0.03
1746729740.5094175,-0.39,-9.83,-9.62,0.03,0.0,-0.03
1746729740.509673,-0.46,-9.82,-9.66,0.03,0.01,-0.03
1746729740.509673,-0.5,-9.84,-9.66,0.03,0.0,-0.03
1746729740.518051,-0.45,-9.85,-9.72,0.03,0.01,-0.03
1746729740.5264182,-0.44,-9.86,-9.66,0.03,0.01,-0.03
1746729740.5347803,-0.45,-9.85,-9.63,0.03,0.01,-0.03
1746729740.55115,-0.45,-9.86,-9.7,0.03,0.0,-0.03
1746729740.559511,-0.44,-9.87,-9.65,0.03,0.0,-0.02
1746729740.5678039,-0.34,-9.86,-9.62,0.02,-0.0,-0.02
1746729740.5762675,-0.42,-9.82,-9.71,0.03,-0.0,-0.02
1746729740.600833,-0.47,-9.86,-9.7,0.02,-0.0,-0.02
1746729740.600833,-0.43,-9.86,-9.67,0.02,-0.0,-0.02
1746729740.6090643,-0.41,-9.91,-9.7,0.02,-0.01,-0.01
1746729740.6174843,-0.39,-9.91,-9.71,0.02,-0.01,-0.01
1746729740.6259515,-0.4,-9.9,-9.67,0.0,-0.02,-0.01
1746729740.634367,-0.44,-9.88,-9.62,0.0,-0.01,-0.0
1746729740.6506443,-0.37,-9.84,-9.69,-0.0,-0.01,0.0
1746729740.661778,-0.46,-9.82,-9.69,-0.01,-0.01,0.01
1746729740.698633,-0.49,-9.89,-9.7,-0.01,-0.02,0.02
1746729740.7069504,-0.46,-9.86,-9.74,-0.01,-0.02,0.03
1746729740.7475572,-0.48,-9.8,-9.79,-0.0,-0.02,0.02
1746729740.7475572,-0.55,-9.76,-9.6,0.0,-0.01,0.02
1746729740.7558236,-0.51,-9.79,-9.69,-0.0,-0.03,0.02
1746729740.7558236,-0.49,-9.78,-9.7,0.01,-0.02,0.02
1746729740.7558236,-0.48,-9.84,-9.65,0.01,-0.02,0.02
1746729740.7643788,-0.56,-9.94,-9.66,0.01,-0.01,0.02
1746729740.7643788,-0.49,-9.93,-9.65,0.0,-0.01,0.02
1746729740.7643788,-0.43,-9.91,-9.65,-0.02,0.0,0.03
1746729740.7718856,-0.56,-9.77,-9.68,-0.02,-0.0,0.04
1746729740.780282,-0.56,-9.84,-9.82,-0.01,-0.02,0.04
1746729740.7969234,-0.46,-9.86,-9.7,-0.01,-0.02,0.03
1746729740.7969234,-0.44,-9.84,-9.71,-0.02,-0.01,0.03
1746729740.8052845,-0.49,-9.9,-9.71,-0.01,-0.0,0.03
1746729740.821713,-0.5,-10.01,-9.62,-0.02,-0.01,0.03
1746729740.8300896,-0.55,-9.87,-9.63,-0.03,0.01,0.03
1746729740.8385644,-0.62,-9.81,-9.67,-0.03,0.01,0.02
1746729740.8468537,-0.56,-9.88,-9.8,-0.04,0.01,0.01
1746729740.8553956,-0.56,-9.85,-9.84,-0.04,0.01,0.02
1746729740.8717854,-0.58,-9.87,-9.67,-0.04,0.0,0.02
1746729740.8799796,-0.53,-9.92,-9.69,-0.04,0.01,0.02
1746729740.929149,-0.51,-9.91,-9.78,-0.05,0.01,0.02
1746729740.929149,-0.88,-9.93,-9.47,-0.07,0.03,0.03
1746729740.929149,-0.44,-9.85,-9.86,-0.08,0.02,0.02
1746729740.929149,-0.58,-9.92,-9.68,-0.07,0.04,0.03
1746729740.929149,-0.75,-9.7,-9.87,-0.05,0.07,0.03
1746729740.937645,-0.55,-9.69,-9.89,-0.05,0.04,0.01
1746729740.9459145,-0.7,-9.84,-9.81,-0.03,0.03,0.02
1746729740.9597054,-0.64,-9.79,-9.89,-0.01,0.01,0.03
1746729740.9717772,-0.61,-9.94,-9.9,-0.0,-0.0,0.03
1746729740.979924,-0.65,-9.86,-9.78,-0.01,0.0,0.03
1746729741.0049586,-0.68,-9.86,-9.84,-0.02,0.02,0.03
1746729741.013201,-0.63,-9.81,-9.87,-0.01,-0.01,0.04
1746729741.013201,-0.76,-9.86,-9.89,0.01,0.0,0.05
1746729741.0213435,-0.83,-9.78,-9.91,0.02,-0.04,0.04
1746729741.0295503,-0.74,-10.02,-10.02,0.02,-0.03,0.03
1746729741.0379698,-0.91,-10.32,-10.15,0.0,-0.07,0.07
1746729741.0788636,-1.25,-10.08,-10.37,0.15,0.02,0.2
1746729741.0788636,-1.03,-9.33,-11.28,0.24,-0.28,0.17
1746729741.0788636,-2.55,-9.56,-11.52,0.31,-0.45,0.15
1746729741.0788636,-2.98,-9.73,-11.99,0.36,-0.6,0.02
1746729741.111827,-2.45,-9.8,-12.79,0.58,-0.72,-0.08
1746729741.111827,-0.28,-12.87,-14.37,0.77,-1.16,-0.04
1746729741.111827,-1.59,-12.36,-11.93,0.94,-1.2,-0.1
1746729741.1201086,-3.62,-10.32,-12.37,1.16,-1.36,-0.05
1746729741.1297812,-5.07,-10.15,-11.25,1.01,-1.34,-0.24
1746729741.1367846,-4.58,-10.78,-11.88,0.69,-1.06,-0.53
1746729741.1451259,-3.56,-10.28,-13.44,0.4,-0.73,-0.71
1746729741.1613789,-2.46,-10.04,-14.95,0.22,-0.57,-0.59
1746729741.1697316,-1.76,-9.33,-15.21,0.15,-0.39,-0.41
1746729741.1782897,-1.54,-10.07,-14.49,0.1,-0.39,-0.06
1746729741.2022674,-2.82,-9.86,-13.51,-0.13,-0.21,-0.02
1746729741.203361,-3.76,-8.29,-14.43,-0.4,0.02,-0.16
1746729741.211993,-3.68,-7.21,-15.55,-0.51,0.15,-0.32
1746729741.2216334,-2.81,-7.87,-15.18,-0.48,0.11,-0.31
1746729741.2313697,-1.68,-9.06,-14.15,-0.48,0.15,-0.2
1746729741.2420993,-1.35,-9.62,-13.37,-0.48,0.26,-0.02
1746729741.251919,-2.0,-10.02,-12.54,-0.49,0.28,0.15
1746729741.261716,-1.62,-10.9,-11.52,-0.55,0.24,0.34
1746729741.267916,-1.23,-12.38,-9.78,-0.69,0.27,0.55
1746729741.2765577,-1.7,-12.62,-8.98,-0.98,0.49,0.61
1746729741.3176687,-2.14,-11.69,-9.51,-1.22,0.7,0.6
1746729741.3176687,-2.45,-10.59,-10.42,-1.28,0.82,0.6
1746729741.3176687,-2.12,-10.1,-11.2,-1.22,0.78,0.61
1746729741.3259265,-0.96,-11.08,-12.09,-0.98,0.85,0.58
1746729741.3259265,-5.29,-4.55,-2.86,-0.27,2.29,0.49
1746729741.33441,-3.89,-5.24,-8.21,0.08,0.79,0.25
1746729741.3507926,-1.1,-5.12,-10.18,0.74,0.93,-0.09
1746729741.3592918,1.64,-9.47,-9.12,1.18,0.83,-0.01
1746729741.3676832,2.65,-11.64,-9.3,1.19,0.61,0.28
1746729741.3760753,3.49,-12.04,-8.25,0.91,0.27,0.61
1746729741.4089558,1.81,-15.3,-3.02,0.74,-0.27,1.22
1746729741.4089558,3.61,-18.28,-2.79,-0.65,0.05,0.79
1746729741.4089558,-0.68,-14.3,-5.51,-1.22,1.23,0.31
1746729741.4173708,-1.32,-6.9,-10.87,-1.48,1.71,-0.16
1746729741.4258544,-2.47,-7.6,-13.74,-2.05,0.42,-0.21
1746729741.4342697,0.11,-10.83,-15.51,-0.65,-0.57,0.3
1746729741.4505968,0.61,-9.33,-13.07,-0.11,-0.37,0.57
1746729741.4591758,1.0,1.54,-8.53,-0.13,-1.17,0.85
1746729741.4676344,-1.63,-11.18,-10.29,-0.07,-0.81,0.46
1746729741.4762838,0.75,-10.06,-10.98,-0.66,-0.25,0.43
1746729741.5333757,-1.41,-9.75,-11.09,-0.64,-0.41,0.6
1746729741.5333757,-1.45,-9.44,-10.58,-0.44,-0.48,0.75
1746729741.5333757,-2.73,-9.93,-8.89,-0.37,-0.66,0.78
1746729741.5333757,-2.25,-8.85,-6.66,-0.57,-0.62,0.64
1746729741.5333757,-1.81,-10.04,-7.2,-0.84,-0.22,0.22
1746729741.541512,-0.42,-9.45,-7.49,-0.97,0.08,-0.04
1746729741.5499017,-0.25,-7.63,-8.99,-0.9,0.36,-0.15
1746729741.5583446,-0.0,-5.9,-9.92,-0.61,0.34,-0.13
1746729741.5669096,0.16,-6.18,-8.59,-0.09,-0.1,0.06
1746729741.5753326,-0.1,-5.88,-6.53,0.31,-0.29,0.14
1746729741.6000042,1.35,-6.97,-3.22,0.44,-0.15,-0.15
1746729741.6000042,2.9,-6.07,-1.15,0.5,0.14,-0.46
1746729741.6085606,3.14,-5.1,-0.85,0.75,0.34,-0.74
1746729741.6168401,3.47,-2.2,-0.03,1.55,0.26,-0.91
1746729741.625422,1.77,-11.4,-9.99,0.17,0.95,-1.83
1746729741.64192,-1.3,-7.01,-14.46,-0.15,-0.31,-0.54
1746729741.6501482,-6.17,-7.58,-14.88,2.46,-2.04,-0.49
1746729741.6585975,1.16,-12.76,-1.8,2.86,-2.94,0.57
1746729741.6670208,3.52,-19.61,0.91,2.04,-0.98,0.02
1746729741.7081523,2.75,-19.29,-1.04,0.15,0.36,-0.43
1746729741.7649987,-1.62,-12.51,-5.42,-0.59,1.8,-0.97
1746729741.7649987,-0.71,-3.2,-13.93,-0.78,1.4,-1.02
1746729741.7649987,-6.47,-19.0,-19.21,-0.16,0.22,-1.15
1746729741.7649987,-1.48,-9.72,-13.14,0.91,-0.83,-0.5
1746729741.7649987,1.8,-6.24,-10.8,1.45,-1.16,-0.13
1746729741.773245,0.63,-11.61,-8.49,1.2,-0.85,0.37
1746729741.773245,-1.09,-12.91,-6.02,0.73,-0.47,0.14
1746729741.7753143,-1.0,-11.89,-6.57,0.15,0.01,-0.12
1746729741.7753143,-1.36,-10.96,-8.78,-0.04,0.22,-0.3
1746729741.781377,-0.77,-8.87,-10.54,0.05,0.29,-0.33
1746729741.79804,-1.69,-8.51,-10.9,0.15,-0.11,-0.19
1746729741.79804,-0.83,-9.74,-10.0,0.31,-0.16,-0.07
1746729741.8065412,-1.0,-10.04,-9.41,0.3,-0.15,-0.07
1746729741.8149233,-0.9,-10.33,-8.89,0.2,-0.07,-0.14
1746729741.831497,-0.92,-10.13,-9.1,0.12,0.01,-0.18
1746729741.8398623,-0.89,-9.64,-9.69,0.1,0.03,-0.2
1746729741.848372,-0.74,-9.55,-9.93,0.14,-0.01,-0.17
1746729741.8569362,-0.81,-9.64,-9.61,0.19,-0.05,-0.14
1746729741.865492,-0.65,-10.27,-8.97,0.21,-0.07,-0.16
1746729741.8819036,-0.82,-10.08,-8.81,0.15,0.05,-0.18
1746729741.931582,-0.73,-10.66,-9.16,0.27,0.07,-0.21
1746729741.931582,-1.03,-9.39,-9.73,0.15,0.08,-0.23
1746729741.931582,-0.78,-9.13,-10.0,0.16,0.04,-0.24
1746729741.931582,-0.94,-9.25,-9.79,0.2,-0.01,-0.25
1746729741.9397807,-0.88,-9.4,-9.51,0.19,-0.03,-0.31
1746729741.9397807,-0.94,-9.66,-9.35,0.18,-0.01,-0.35
1746729741.9481986,-0.55,-9.78,-9.22,0.26,0.02,-0.36
1746729741.956626,-0.43,-9.78,-9.57,0.26,0.03,-0.34
1746729741.9650676,-0.55,-9.92,-9.51,0.26,-0.01,-0.3
1746729741.9816785,-0.23,-9.92,-9.75,0.27,-0.04,-0.24
1746729742.0148087,-0.13,-10.13,-9.41,0.34,-0.03,-0.18
1746729742.0148087,-0.27,-10.25,-9.12,0.37,-0.02,-0.11
1746729742.0148087,-0.59,-10.17,-9.12,0.46,-0.07,-0.11
1746729742.0148087,-0.64,-9.62,-8.92,0.3,0.02,-0.14
1746729742.0332,-0.78,-9.41,-9.82,0.32,0.02,-0.16
1746729742.0666175,-0.65,-8.99,-10.0,0.34,-0.04,-0.13
1746729742.0711305,-0.82,-9.48,-9.81,0.43,-0.21,-0.11
1746729742.0711305,-0.62,-9.89,-8.99,0.38,-0.2,-0.12
1746729742.0711305,-0.21,-10.04,-8.83,0.38,-0.08,-0.18
1746729742.079446,-0.99,-9.77,-8.32,0.24,-0.13,-0.2
1746729742.1044066,-0.25,-10.35,-9.26,0.25,-0.08,-0.17
1746729742.1044066,-0.83,-9.58,-9.36,0.32,0.04,-0.21
1746729742.1044066,-0.35,-9.31,-8.79,0.48,0.0,-0.21
1746729742.1206486,-0.62,-10.01,-9.36,0.55,-0.03,-0.04
1746729742.1289558,-0.53,-10.01,-8.91,0.55,-0.08,0.01
1746729742.1374004,0.15,-10.03,-9.12,0.45,-0.14,0.02
1746729742.1456785,-0.02,-9.58,-9.07,0.46,-0.08,0.01
1746729742.159664,0.86,-9.96,-10.21,0.49,-0.02,0.02
1746729742.1696653,0.38,-10.15,-9.64,0.61,-0.29,0.04
1746729742.1817791,-0.15,-10.34,-8.38,0.67,-0.11,0.0
1746729742.2066972,-0.08,-10.42,-9.85,0.71,-0.11,0.03
1746729742.2149537,-0.54,-10.95,-9.25,0.81,-0.22,-0.07
1746729742.2149537,-0.59,-10.42,-9.44,0.84,-0.19,-0.21
1746729742.2149537,-0.52,-10.72,-9.78,1.02,-0.09,-0.32
1746729742.227318,-0.51,-10.96,-9.47,1.21,-0.23,-0.36
1746729742.2418966,-0.53,-10.76,-10.02,1.31,-0.24,-0.43
1746729742.2499948,-0.45,-10.99,-10.1,1.5,-0.28,-0.46
1746729742.258539,-0.6,-11.09,-10.26,1.75,-0.3,-0.46
1746729742.2670255,-0.37,-11.62,-10.67,2.0,-0.33,-0.49
1746729742.2755175,-1.01,-11.72,-11.13,2.28,-0.4,-0.51
1746729742.3085883,-1.01,-11.84,-11.36,2.65,-0.46,-0.6
1746729742.3167136,-3.03,-13.36,-12.38,3.0,-0.37,-0.97
1746729742.3169363,-0.57,-11.43,-12.06,3.43,-0.57,-0.87
1746729742.3169363,-1.1,-12.25,-11.29,3.83,-0.72,-0.96
1746729742.3272645,0.37,-12.02,-11.9,4.33,-0.75,-1.0
1746729742.342138,-0.95,-11.29,-10.37,4.37,-1.1,-0.6
1746729742.35081,-0.59,-11.04,-6.73,4.37,-1.48,-0.29
1746729742.3588705,0.88,-13.99,-1.42,4.37,-1.68,-0.43
1746729742.366965,1.26,-16.99,2.86,4.37,-1.18,-0.72
1746729742.3825538,-3.05,-15.01,4.55,4.07,0.03,-1.62
1746729742.4157922,-3.6,-12.88,-3.36,3.23,0.92,-2.61
1746729742.4157922,-3.0,-12.41,-5.83,2.73,0.88,-3.06
1746729742.4157922,4.29,-15.42,-10.6,1.83,-0.42,-2.1
1746729742.4157922,5.65,-16.46,-12.7,0.9,0.16,-1.47
1746729742.4242184,2.21,-14.07,-17.19,0.03,-0.31,-0.87
1746729742.4414248,-0.34,-6.63,-16.24,-0.83,-0.78,-0.11
1746729742.4520857,-8.2,-7.78,-14.36,-0.58,-0.99,0.33
1746729742.4618986,-9.6,-6.23,-13.87,-1.06,-0.93,0.11
1746729742.4706829,-6.34,-4.51,-12.67,-1.74,-0.33,-0.7
1746729742.481036,-3.51,-5.28,-11.6,-2.42,0.11,-0.96
1746729742.4977057,-0.21,-6.82,-15.13,-2.9,0.52,-0.63
1746729742.4977057,0.21,-8.37,-16.42,-2.83,0.37,-0.02
1746729742.505975,-0.9,-8.82,-14.44,-2.47,0.12,0.31
1746729742.5144024,-1.5,-8.83,-13.07,-2.63,0.15,0.52
1746729742.5308177,-1.66,-9.7,-12.36,-2.72,0.15,0.65
1746729742.5392797,-0.45,-9.05,-11.05,-3.04,0.24,0.91
1746729742.547584,-0.51,-9.99,-9.81,-3.15,0.17,1.16
1746729742.5561094,-0.4,-10.7,-8.35,-3.31,0.36,1.22
1746729742.5646832,-0.49,-10.91,-7.2,-3.53,0.66,1.12
1746729742.5807867,-0.96,-11.48,-7.37,-3.68,0.87,1.04
1746729742.6299713,-0.9,-11.02,-8.25,-3.71,1.1,1.06
1746729742.6382182,-0.91,-11.22,-7.79,-3.64,1.15,1.11
1746729742.6382182,-0.74,-12.16,-7.57,-3.54,1.17,1.13
1746729742.6382182,-0.43,-12.62,-7.14,-3.43,1.2,1.16
1746729742.6382182,-0.41,-12.88,-7.08,-3.32,1.18,1.21
1746729742.6382182,-0.67,-12.8,-6.96,-3.18,0.98,1.26
1746729742.646596,0.02,-13.14,-6.26,-2.9,1.32,1.32
1746729742.654964,0.91,-12.63,-6.1,-2.68,1.05,1.27
1746729742.6714478,-0.69,-11.86,-6.23,-2.59,0.94,1.12
1746729742.6797576,-1.88,-11.51,-6.52,-2.29,0.7,1.02
1746729742.7046943,-1.41,-10.87,-7.22,-1.95,0.36,0.96
1746729742.7046943,-0.55,-11.16,-6.23,-1.74,0.25,0.93
1746729742.7046943,0.02,-13.01,-5.74,-1.17,-0.67,1.42
1746729742.7196553,1.64,-12.77,-3.38,-1.51,-0.91,1.95
1746729742.727041,2.05,-15.45,-1.8,-1.98,-0.95,2.47
1746729742.7417624,2.63,-18.05,-0.62,-1.71,-0.37,2.61
1746729742.7500272,3.14,-14.32,-1.54,-2.2,-0.36,2.25
1746729742.758615,-0.22,-15.75,-1.48,-2.31,0.84,1.5
1746729742.76729,-4.0,-4.47,-3.84,-2.6,0.86,1.31
1746729742.775282,-2.16,-3.52,-8.31,-1.68,0.01,1.3
1746729742.8167355,0.8,-4.89,-8.77,-1.15,-0.69,0.65
1746729742.8167355,0.56,-9.92,-4.98,-0.62,-0.76,0.95
1746729742.8167355,2.01,-11.52,-1.3,-0.45,-0.31,0.8
1746729742.8167355,1.44,-11.41,0.73,-0.59,0.34,0.76
1746729742.825184,0.01,-11.39,0.72,-0.87,0.87,0.59
1746729742.8396583,-0.3,-8.76,0.21,-1.02,1.38,0.21
1746729742.8510756,0.21,-6.45,-1.77,-1.08,1.68,-0.16
1746729742.8593748,-0.17,-3.63,-4.56,-0.86,1.54,-0.52
1746729742.8678555,0.27,-1.74,-5.28,-0.38,0.95,-0.73
1746729742.8763387,1.0,-1.91,-5.37,0.43,0.54,-0.76
1746729742.917589,1.09,-2.83,-3.58,1.15,0.03,-0.69
1746729742.917589,1.34,-3.42,-0.84,1.67,-0.18,-0.7
1746729742.917589,1.53,-5.55,2.6,2.31,-0.29,-0.75
1746729742.917589,1.37,-4.11,7.8,2.96,0.09,-0.98
1746729742.926097,0.12,-16.5,-4.66,1.43,2.29,-2.56
1746729742.9346373,-3.35,-6.51,-9.07,-0.11,0.48,-1.62
1746729742.9510763,-0.21,-1.11,-29.42,2.76,-3.77,-1.76
1746729742.9594285,1.31,-19.61,9.8,4.37,-3.21,0.07
1746729742.9678802,5.33,-19.61,9.63,3.35,-3.06,0.38
1746729742.9763863,10.4,-19.61,9.8,0.42,0.27,-0.22
1746729743.0180397,-1.36,-18.11,3.27,0.09,4.37,-1.67
1746729743.0180397,-0.84,-3.5,-9.25,-2.19,2.92,-0.75
1746729743.0180397,-2.79,-0.07,-24.61,-2.61,1.43,-1.05
1746729743.0264091,-5.07,-4.61,-17.82,-0.67,-0.53,-0.66
1746729743.0264091,-4.07,-5.59,-16.15,0.74,-0.13,-0.47
1746729743.034674,-3.82,-14.44,-15.15,2.59,-1.24,-0.12
1746729743.0509615,-3.37,-11.41,-7.46,1.8,-0.7,0.2
1746729743.0591362,-1.08,-13.52,-5.36,1.43,-0.57,0.16
1746729743.067417,-0.86,-14.22,-3.91,0.62,0.09,-0.13
1746729743.0758424,-1.15,-11.53,-6.6,-0.13,0.59,-0.52
1746729743.1004443,-1.11,-8.38,-10.77,-0.42,0.53,-0.63
1746729743.1004443,-0.77,-7.48,-12.3,-0.07,0.11,-0.42
1746729743.1089957,-0.8,-8.68,-11.25,0.39,-0.22,-0.2
1746729743.1174865,-0.08,-10.15,-9.02,0.43,-0.25,-0.09
1746729743.1259236,-0.57,-10.9,-8.4,0.32,-0.09,-0.17
1746729743.134498,-0.46,-10.69,-8.57,0.19,0.08,-0.22
1746729743.1508791,-0.63,-9.76,-9.43,0.12,0.14,-0.24
1746729743.159287,-0.89,-9.17,-9.87,0.18,0.06,-0.17
1746729743.1677468,-0.85,-9.19,-10.11,0.22,-0.05,-0.14
1746729743.176304,-0.45,-9.53,-9.49,0.29,-0.16,-0.1
1746729743.217693,-0.37,-10.4,-8.76,0.27,-0.1,-0.1
1746729743.217693,-0.5,-10.41,-8.52,0.2,0.05,-0.11
1746729743.217693,-0.63,-9.88,-9.09,0.09,0.06,-0.16
1746729743.225907,-0.76,-9.6,-9.53,0.09,0.03,-0.17
1746729743.225907,-0.64,-9.56,-9.62,0.14,-0.03,-0.16
1746729743.2343202,-0.66,-9.67,-9.68,0.19,-0.11,-0.1
1746729743.250711,-0.6,-9.69,-9.37,0.24,-0.12,-0.1
1746729743.2591627,-0.87,-10.02,-9.24,0.2,-0.18,-0.08
1746729743.2675803,-0.57,-9.88,-9.4,0.15,-0.08,-0.17
1746729743.2760355,-0.43,-10.05,-9.07,0.17,-0.09,-0.17
1746729743.309038,-0.48,-9.74,-9.01,0.21,-0.06,-0.18
1746729743.309038,-0.4,-9.91,-9.03,0.23,-0.07,-0.18
1746729743.309038,-0.51,-9.84,-8.98,0.26,-0.06,-0.15
1746729743.3174813,-0.22,-9.73,-9.03,0.33,-0.02,-0.12
1746729743.32594,-0.41,-9.52,-9.43,0.4,-0.02,-0.01
1746729743.3396318,-0.96,-10.16,-9.15,0.39,-0.27,0.1
1746729743.3516805,0.18,-9.57,-9.18,0.31,-0.12,0.02
1746729743.3600047,-0.66,-10.87,-8.54,0.19,-0.34,0.06
1746729743.368449,-0.39,-10.2,-8.44,0.17,-0.02,0.05
1746729743.3783412,-0.33,-9.88,-9.05,0.16,0.11,-0.02
1746729743.4206073,0.19,-9.55,-9.13,0.23,0.07,-0.04
1746729743.4289718,-0.17,-9.91,-9.29,0.34,-0.1,0.03
1746729743.4289718,-0.71,-10.01,-9.4,0.35,-0.05,-0.05
1746729743.4343078,-0.32,-9.99,-8.78,0.26,-0.19,-0.01
1746729743.4343078,0.21,-9.47,-8.04,0.31,-0.15,-0.07
1746729743.4343078,-1.18,-10.08,-8.33,0.38,-0.09,-0.03
1746729743.4505653,-0.22,-9.62,-10.49,0.52,-0.03,-0.18
1746729743.4590154,-0.57,-10.12,-9.36,0.55,-0.19,-0.18
1746729743.467483,0.17,-10.84,-9.09,0.65,-0.05,-0.28
1746729743.4759452,-0.28,-10.43,-9.42,0.71,-0.05,-0.28
1746729743.5174785,-2.21,-12.83,-6.44,0.52,0.6,-0.93
1746729743.5174785,-0.05,-9.91,-11.28,0.63,0.43,-0.56
1746729743.5174785,-0.9,-9.06,-10.4,1.34,-0.16,-0.07
1746729743.5257638,-0.3,-11.42,-9.25,1.31,-0.35,-0.12
1746729743.5257638,-0.33,-11.34,-9.37,1.28,-0.17,-0.32
1746729743.5421793,-0.79,-10.36,-10.11,1.49,-0.19,-0.28
1746729743.550477,0.52,-9.81,-9.42,1.77,-0.32,-0.47
1746729743.5589588,-0.8,-11.04,-9.04,1.92,-0.36,-0.46
1746729743.5673826,-0.65,-11.31,-10.66,2.0,-0.26,-0.67
1746729743.5758681,-0.49,-11.41,-10.94,2.26,-0.26,-0.71
1746729743.6089313,-0.8,-12.13,-10.95,2.51,-0.38,-0.76
1746729743.6089313,-1.14,-12.11,-11.6,2.83,-0.36,-0.85
1746729743.6089313,-0.95,-12.52,-12.11,3.26,-0.43,-0.91
1746729743.617125,-0.37,-11.57,-12.47,3.76,-0.45,-1.0
1746729743.6310773,-0.65,-12.03,-12.08,4.37,-0.65,-0.71
1746729743.641528,0.24,-11.6,-10.38,4.37,-1.13,-0.15
1746729743.6513238,0.8,-13.25,-7.17,4.37,-1.69,0.19
1746729743.6608796,1.02,-13.92,0.57,4.37,-1.85,0.13
1746729743.6657314,0.05,-15.35,4.16,4.37,-1.11,-0.65
1746729743.6740305,-1.02,-16.44,2.03,4.06,-0.09,-1.57
1746729743.6986272,-5.37,-10.93,-2.66,3.61,0.51,-2.09
1746729743.706887,-2.4,-7.66,-2.45,3.87,-0.2,-2.34
1746729743.706887,5.32,-16.68,-1.61,3.11,-1.01,-1.65
1746729743.715061,5.57,-19.61,-7.61,1.78,-0.11,-0.91
1746729743.7313304,6.96,-18.36,-14.2,0.06,0.04,-0.64
1746729743.739865,-1.52,-3.81,-14.87,-1.29,-1.04,0.83
1746729743.7476308,-11.24,-11.08,-13.42,-1.14,-1.2,0.59
1746729743.756022,-9.82,-4.7,-15.28,-1.14,-1.19,-0.18
1746729743.7642815,-7.51,-5.52,-14.45,-1.4,-0.69,-0.85
1746729743.7804544,-2.25,-7.77,-13.57,-1.77,-0.39,-0.97
1746729743.8057373,-0.03,-8.32,-13.61,-2.12,0.01,-0.65
1746729743.8057373,0.3,-7.8,-13.84,-2.39,0.03,-0.18
1746729743.8057373,-0.44,-6.68,-14.22,-2.58,0.11,0.19
1746729743.8214715,-1.62,-6.04,-14.26,-2.58,-0.0,0.43
1746729743.8297803,-2.27,-9.25,-13.52,-2.41,-0.25,0.69
1746729743.8381073,-0.84,-7.84,-11.72,-2.75,-0.18,0.93
1746729743.8464382,0.03,-10.09,-9.22,-2.8,-0.42,1.31
1746729743.8547482,2.14,-8.56,-8.44,-3.21,-0.11,1.1
1746729743.8710515,0.54,-9.49,-8.91,-3.65,0.15,1.01
1746729743.8792095,0.43,-8.32,-10.36,-3.64,0.13,1.11
1746729743.904292,0.19,-8.28,-10.77,-3.51,-0.11,1.27
1746729743.904292,0.08,-10.05,-9.34,-3.35,-0.32,1.4
1746729743.9123287,-1.57,-10.95,-9.34,-3.12,-0.4,1.54
1746729743.9205608,-0.45,-11.56,-8.54,-3.19,-0.17,1.47
1746729743.9288306,-1.11,-13.61,-7.46,-3.15,-0.2,1.82
1746729743.9371321,0.22,-14.23,-4.81,-3.08,-0.33,2.19
1746729743.9454544,-2.14,-16.09,-3.27,-3.33,0.15,2.31
1746729743.9616694,-1.52,-15.5,-2.6,-3.62,0.61,2.13
1746729743.9702663,-2.1,-13.98,-3.4,-3.8,1.11,1.91
1746729743.9780219,-3.52,-13.02,-3.83,-3.91,1.25,1.75
1746729744.0109384,-4.07,-12.71,-4.15,-3.91,1.42,1.57
1746729744.0109384,-3.59,-13.28,-4.04,-3.79,1.77,1.39
1746729744.0109384,-0.2,-13.0,-3.99,-3.58,1.93,1.2
1746729744.0190818,3.09,-14.7,-4.04,-3.41,1.95,1.4
1746729744.0288363,0.31,-12.84,-4.24,-3.22,2.13,1.48
1746729744.0355582,-1.71,-12.61,-4.26,-3.06,1.93,1.61
1746729744.0518541,-2.4,-13.02,-4.66,-2.78,1.57,1.95
1746729744.0609548,-1.47,-13.66,-4.81,-2.41,1.25,2.07
1746729744.068157,1.3,-19.58,-6.63,-2.16,1.15,1.91
1746729744.0767493,-0.58,-8.52,-3.78,-2.41,1.11,1.75
1746729744.1092787,1.04,-13.14,-4.68,-2.16,0.0,1.84
1746729744.1092787,2.18,-15.27,-0.78,-2.0,-0.46,1.98
1746729744.1092787,1.8,-13.74,1.93,-2.02,0.38,1.91
1746729744.117409,0.71,-8.7,-0.13,-2.24,1.42,1.54
1746729744.125821,0.02,-4.58,-3.2,-1.91,1.39,1.35
1746729744.1340327,-0.67,-2.88,-4.92,-1.16,0.78,1.39
1746729744.1502764,-0.17,-4.39,-3.38,-0.37,0.24,1.49
1746729744.1586044,-0.15,-6.51,0.21,-0.07,0.26,1.27
1746729744.166828,0.12,-7.18,1.19,-0.37,0.77,0.67
1746729744.175143,-0.34,-6.25,-0.83,-0.5,1.18,0.03
1746729744.1995916,-6.68,-7.82,0.82,0.78,2.3,-0.62
1746729744.2078366,-1.13,6.21,-7.76,-0.5,2.56,-1.38
1746729744.2078366,1.86,1.29,-7.82,1.82,0.17,-1.69
1746729744.2161245,1.49,-4.45,-5.12,3.12,-0.2,-2.3
1746729744.2244558,5.13,-2.8,-1.5,3.51,-0.94,-2.48
1746729744.2407131,2.94,-11.12,-6.16,1.73,0.32,-3.2
1746729744.2489965,5.65,-19.61,-10.52,2.6,1.03,-2.64
1746729744.257283,-0.63,-6.17,-3.18,-0.13,1.07,-1.25
1746729744.2655108,-4.68,-11.85,-20.63,2.0,-1.32,-0.46
1746729744.281826,4.7,-10.58,-17.52,3.09,-0.27,-0.65
1746729744.3068533,2.86,-12.01,-13.06,4.37,-1.69,0.43
1746729744.346496,9.12,10.97,-7.96,4.37,-3.69,2.14
1746729744.346496,6.59,-12.47,9.8,4.1,-2.72,2.22
1746729744.346496,-8.63,-19.61,9.8,3.85,0.05,2.54
1746729744.3535135,-0.86,-15.5,-2.37,1.13,2.47,-0.12
1746729744.3537753,-9.28,-7.2,-7.22,-0.76,2.69,-1.37
1746729744.3537753,-3.5,5.06,-8.5,-2.9,0.4,-1.26
1746729744.3617866,-5.83,-5.42,-20.14,-0.76,-0.99,-1.87
1746729744.3701313,-3.64,-8.79,-12.66,0.16,-1.26,-1.63
1746729744.378421,-0.94,-9.78,-12.19,0.51,-1.07,-0.99
1746729744.4038813,-0.95,-15.22,-11.45,1.67,-0.86,-0.41
1746729744.4038813,1.26,-8.27,-7.65,1.2,-0.81,0.11
1746729744.411399,-0.45,-10.99,-8.13,0.95,-0.5,0.04
1746729744.419744,-0.82,-11.26,-6.91,0.44,-0.09,-0.25
1746729744.4280822,-8.76,-15.18,-8.13,0.03,0.26,-0.23
1746729744.4363322,-0.47,-9.03,-10.39,-0.03,0.04,-0.58
1746729744.444631,-0.64,-8.84,-10.68,0.03,0.08,-0.62
1746729744.4608366,-1.29,-9.04,-10.83,0.2,-0.24,-0.36
1746729744.4690268,-1.14,-9.1,-9.98,0.39,-0.28,-0.22
1746729744.4778779,-1.23,-9.71,-9.27,0.49,-0.29,-0.24
1746729744.510043,-1.51,-10.24,-8.85,0.42,-0.14,-0.38
1746729744.510043,-0.58,-10.03,-8.79,0.36,-0.06,-0.47
1746729744.510043,-0.26,-9.97,-8.92,0.28,-0.05,-0.46
1746729744.5183332,-0.79,-9.7,-9.55,0.2,-0.08,-0.43
1746729744.5265913,-1.0,-9.68,-9.88,0.27,-0.1,-0.34
1746729744.5350633,-0.68,-9.48,-9.42,0.34,-0.18,-0.33
1746729744.5513008,-0.6,-9.86,-8.96,0.38,-0.19,-0.32
1746729744.5595818,-0.76,-10.04,-8.83,0.36,-0.13,-0.34
1746729744.5679476,-0.62,-9.96,-8.83,0.35,-0.1,-0.36
1746729744.5764618,-0.32,-9.54,-8.98,0.3,-0.04,-0.41
1746729744.6007845,-0.14,-9.58,-9.08,0.28,-0.16,-0.34
1746729744.6091087,-0.4,-9.19,-8.97,0.32,-0.11,-0.35
1746729744.6091087,0.02,-9.37,-9.13,0.38,-0.1,-0.39
1746729744.61733,-0.03,-9.71,-8.78,0.41,-0.1,-0.21
1746729744.6255896,-0.16,-9.61,-8.56,0.37,-0.09,-0.18
1746729744.6418626,-2.74,-11.62,-9.22,0.34,-0.09,0.05
1746729744.6501293,-0.87,-10.57,-8.94,0.24,-0.16,-0.12
1746729744.658489,0.58,-9.26,-8.91,0.25,-0.02,-0.16
1746729744.6667457,-0.3,-9.57,-8.97,0.19,-0.14,-0.03
1746729744.6750026,-0.1,-10.2,-8.38,0.27,-0.05,-0.1
1746729744.6996498,-0.76,-9.39,-8.53,0.18,-0.07,-0.09
1746729744.6996498,-0.73,-8.8,-8.68,0.11,-0.06,-0.05
1746729744.7079391,-1.06,-10.07,-8.51,0.12,0.03,-0.04
1746729744.716308,0.21,-9.31,-9.91,0.12,0.01,-0.12
1746729744.7245698,0.55,-9.85,-8.81,0.17,0.05,0.0
1746729744.7408397,-0.59,-10.08,-8.41,0.3,0.09,-0.05
1746729744.7507615,0.1,-9.6,-9.4,0.28,-0.02,-0.07
1746729744.7840617,-0.39,-9.29,-8.63,0.17,0.13,0.05
1746729744.7883286,-0.53,-9.92,-8.86,0.25,-0.0,-0.07
1746729744.7883286,-0.52,-9.3,-10.11,0.36,-0.02,-0.01
1746729744.8131163,-0.52,-9.67,-9.36,0.33,0.09,-0.03
1746729744.8131163,-0.5,-9.62,-8.89,0.44,-0.02,-0.05
1746729744.8131163,-1.6,-9.92,-9.55,0.37,-0.05,-0.04
1746729744.821118,-0.86,-10.39,-9.47,0.4,0.05,-0.13
1746729744.8293986,-0.6,-9.57,-9.54,0.63,-0.04,-0.13
1746729744.8377495,-0.23,-10.25,-9.43,0.8,-0.06,-0.12
1746729744.8460252,-0.05,-10.73,-9.72,0.9,-0.08,-0.12
1746729744.8542585,0.24,-10.88,-9.36,0.98,-0.18,-0.18
1746729744.8705542,0.33,-10.92,-9.74,1.14,-0.11,-0.18
1746729744.8788218,0.07,-10.86,-10.22,1.38,-0.18,-0.08
1746729744.9034858,-1.05,-10.94,-10.39,1.61,-0.23,-0.06
1746729744.9034858,-0.72,-10.28,-11.08,1.79,-0.41,-0.11
1746729744.911741,-0.39,-11.02,-11.17,2.03,-0.34,-0.21
1746729744.9201455,-0.75,-11.86,-11.11,2.29,-0.36,-0.22
1746729744.9284163,-1.08,-11.86,-11.18,2.51,-0.37,-0.28
1746729744.936838,-1.21,-12.4,-11.07,2.75,-0.34,-0.48
1746729744.9451783,-2.14,-12.32,-12.07,3.08,-0.44,-0.65
1746729744.9614618,-1.92,-11.1,-12.71,3.65,-0.46,-0.83
1746729744.969788,-0.85,-11.83,-11.71,4.3,-0.68,-0.8
1746729744.978193,-0.05,-11.99,-11.02,4.37,-0.78,-0.6
1746729745.0030348,0.1,-11.66,-7.71,4.37,-1.2,-0.15
1746729745.0030348,0.76,-13.6,-3.19,4.37,-1.41,-0.12
1746729745.0110443,1.76,-15.63,1.73,4.37,-1.24,-0.25
1746729745.019325,-0.67,-13.93,1.55,4.37,-0.31,-0.81
1746729745.0276003,-3.0,-12.16,-1.15,4.22,0.47,-1.54
1746729745.0358589,-3.17,-9.17,-3.49,4.13,0.33,-2.05
1746729745.044204,1.25,-14.11,-2.61,3.88,-0.4,-1.6
1746729745.0605488,3.7,-17.36,-3.81,2.64,-0.25,-1.26
1746729745.0688906,5.7,-16.96,-10.15,0.91,0.2,-1.12
1746729745.0772212,8.76,-9.69,-16.4,-0.44,-0.48,-0.6
1746729745.1017525,0.77,-1.0,-15.67,-0.23,-2.35,0.15
1746729745.1017525,-4.1,-7.35,-13.5,-0.57,-2.32,0.66
1746729745.1100268,-7.88,-5.59,-11.94,-0.72,-2.42,0.37
1746729745.118366,-7.99,-5.19,-11.07,-1.26,-1.61,-0.64
1746729745.1266868,-4.88,-6.22,-11.15,-1.66,-1.37,-1.2
1746729745.134972,-1.64,-7.38,-11.51,-2.03,-0.67,-1.22
1746729745.1513305,0.71,-7.83,-12.55,-2.19,-0.51,-0.75
1746729745.1596954,1.08,-8.56,-12.11,-2.3,-0.3,-0.09
1746729745.1679003,-0.5,-8.74,-11.19,-2.44,-0.08,0.36
1746729745.1762745,-3.11,-7.97,-11.84,-2.05,0.12,0.55
1746729745.2008715,-2.02,-8.04,-12.21,-2.77,0.4,0.68
1746729745.2008715,1.53,-4.64,-9.5,-3.16,0.11,0.76
1746729745.209136,-0.3,-9.34,-9.81,-3.33,0.56,0.77
1746729745.217459,0.45,-9.56,-9.13,-3.35,0.46,0.9
1746729745.2257833,1.21,-8.89,-9.23,-3.47,0.63,0.85
1746729745.2341604,0.37,-9.59,-9.43,-3.49,0.51,0.95
1746729745.250429,0.92,-9.47,-9.52,-3.42,0.29,1.06
1746729745.2589645,0.71,-10.83,-8.94,-3.34,0.45,1.09
1746729745.2667627,0.05,-11.74,-8.53,-3.2,0.23,1.21
1746729745.2751112,0.24,-12.45,-7.23,-3.2,0.18,1.31
1746729745.2997882,0.2,-13.61,-5.28,-3.26,0.26,1.42
1746729745.2997882,-0.24,-13.89,-4.34,-3.4,0.58,1.37
1746729745.3080676,-0.71,-13.35,-4.34,-3.48,0.73,1.34
1746729745.3164036,-1.12,-12.71,-4.48,-3.54,0.76,1.21
1746729745.32508,-1.22,-12.51,-5.04,-3.59,0.81,1.06
1746729745.3408437,-1.57,-12.19,-5.03,-3.57,0.75,0.86
1746729745.349325,-1.72,-12.28,-5.16,-3.47,0.91,0.75
1746729745.3578088,-2.31,-11.74,-5.79,-3.21,1.08,0.73
1746729745.3661973,-2.44,-11.36,-6.34,-2.89,1.01,0.8
1746729745.3746092,-2.15,-12.45,-6.18,-2.51,0.83,0.94
1746729745.3992617,-1.34,-13.99,-5.12,-2.19,0.91,1.14
1746729745.3992617,-0.86,-15.21,-3.98,-2.04,0.48,1.54
1746729745.4075193,0.03,-15.47,-3.4,-2.23,0.81,1.69
1746729745.4159656,-0.01,-15.11,-2.81,-2.59,0.84,1.75
1746729745.424397,-0.83,-14.72,-3.72,-2.68,0.79,1.78
1746729745.4407895,-0.55,-11.71,-5.49,-2.7,0.67,1.41
1746729745.4492917,0.07,-12.83,-4.83,-2.53,0.45,1.35
1746729745.4579296,1.63,-8.16,-7.86,-2.41,0.39,1.5
1746729745.4668055,1.92,-11.82,-9.76,-1.67,-0.06,1.86
1746729745.4906828,0.74,-9.3,-7.52,-0.87,0.04,2.1
1746729745.5320764,-2.36,-8.66,-4.39,-0.45,-0.71,2.25
1746729745.5320764,0.45,-8.83,-2.4,-1.22,-0.51,2.07
1746729745.5320764,-1.18,-12.89,0.94,-1.17,-0.2,1.65
1746729745.5320764,1.1,-12.31,0.65,-2.06,0.47,0.51
1746729745.5401006,1.07,-11.8,-1.65,-2.82,1.32,-0.31
1746729745.5403802,1.84,-5.6,-8.35,-2.87,1.44,-0.52
1746729745.5488045,1.29,-3.49,-10.62,-2.42,0.17,-0.07
1746729745.557227,0.46,-7.57,-11.88,-1.67,-0.24,0.49
1746729745.5656924,-1.03,-7.1,-9.08,-0.23,-0.5,0.83
1746729745.5741138,-1.97,-4.83,-5.59,0.44,-1.21,1.16
1746729745.5987444,0.39,-8.55,-2.49,-0.46,-0.46,0.87
1746729745.6070173,-1.38,-10.49,-3.28,-0.94,0.15,0.43
1746729745.6070173,-3.06,-19.61,-10.36,-0.93,1.01,-0.32
1746729745.6155188,-1.72,7.55,-7.03,-0.95,2.1,-0.98
1746729745.6319695,0.96,-1.56,-18.76,-0.67,1.26,-1.04
1746729745.6402807,-3.91,-4.31,-9.25,1.05,-0.23,-1.04
1746729745.6485376,-0.59,-3.79,-7.91,1.64,-0.42,-1.11
1746729745.6569679,-4.58,-6.66,-4.18,1.97,-0.45,-1.09
1746729745.6654313,1.37,-4.94,-0.02,3.13,-0.41,-1.15
1746729745.6821787,0.95,-12.35,-7.06,1.71,0.81,-1.62
1746729745.715771,-2.86,-17.57,-14.39,1.42,1.24,-1.68
1746729745.7240412,0.19,-2.37,-9.84,0.31,1.64,-1.18
1746729745.7240412,4.87,-9.67,-16.62,2.68,-1.26,-0.72
1746729745.7240412,4.99,-12.05,-14.97,3.46,-1.29,-0.19
1746729745.7240412,5.42,-15.81,-15.19,4.37,-1.59,-0.02
1746729745.7403293,2.45,-10.61,-8.33,4.37,-2.29,0.55
1746729745.748868,-3.93,-13.29,-2.04,4.34,-1.81,0.65
1746729745.7573755,-10.95,-19.11,6.25,4.37,-2.76,2.56
1746729745.7658246,-3.59,-18.49,1.89,3.34,-0.64,1.34
1746729745.7753477,0.99,-14.46,0.55,0.97,0.09,-0.99
1746729745.8164852,-4.65,-12.43,-3.36,-0.86,1.05,-1.68
1746729745.8164852,-0.91,-7.16,-11.12,-1.26,0.72,-1.99
1746729745.8164852,-1.12,-12.43,-12.29,-1.5,-0.05,-1.97
1746729745.8164852,-2.04,-8.55,-12.65,-0.45,-0.98,-1.76
1746729745.824886,-2.15,-10.63,-10.69,-0.14,-0.6,-1.02
1746729745.8413186,-1.47,-12.14,-9.72,0.19,-0.58,-0.61
1746729745.8496406,-0.16,-13.12,-8.34,0.49,-0.27,-0.31
1746729745.8582134,-0.13,-11.37,-8.68,0.34,0.06,-0.15
1746729745.8668463,-0.86,-9.95,-9.37,0.21,0.17,-0.25
1746729745.8755345,-0.94,-9.45,-10.09,0.15,0.11,-0.26
1746729745.925157,-0.96,-9.16,-10.26,0.29,0.05,-0.2
1746729745.925157,-1.17,-9.14,-10.14,0.41,-0.03,-0.16
1746729745.925157,-1.13,-9.45,-9.6,0.38,-0.14,-0.18
1746729745.9360332,-0.88,-10.06,-9.1,0.29,-0.09,-0.27
1746729745.9380894,-0.39,-10.28,-8.96,0.18,0.02,-0.34
1746729745.9416883,-0.22,-10.35,-9.09,0.13,0.12,-0.34
1746729745.951642,-0.24,-10.07,-9.58,0.15,0.19,-0.29
1746729745.9615328,-0.73,-9.59,-9.97,0.23,0.17,-0.22
1746729745.9695547,-0.84,-9.24,-10.18,0.3,0.06,-0.16
1746729745.9819815,-0.94,-9.63,-9.62,0.33,-0.01,-0.15
1746729746.0069823,-0.57,-9.75,-9.22,0.3,-0.02,-0.16
1746729746.0151994,-0.4,-10.09,-8.85,0.24,-0.02,-0.17
1746729746.0151994,-0.62,-10.24,-8.94,0.17,0.03,-0.19
1746729746.0151994,-0.4,-9.91,-9.53,0.12,0.11,-0.21
1746729746.0315247,-0.49,-9.64,-9.31,0.14,0.14,-0.19
1746729746.0398183,-0.57,-9.66,-9.63,0.11,-0.01,-0.17
1746729746.048105,-0.54,-9.69,-9.63,0.14,-0.01,-0.15
1746729746.0565665,-0.58,-9.85,-9.11,0.17,0.0,-0.14
1746729746.06501,-0.68,-10.1,-9.03,0.1,-0.03,-0.14
1746729746.081458,-0.45,-9.88,-9.5,0.02,-0.01,-0.17
1746729746.1291356,-0.33,-9.57,-9.79,-0.02,0.06,-0.18
1746729746.1708374,-0.2,-9.61,-9.91,-0.04,0.01,-0.16
1746729746.1789098,-0.23,-9.91,-9.87,-0.0,-0.04,-0.14
1746729746.1871626,-0.1,-9.77,-9.79,0.03,-0.08,-0.11
1746729746.195744,-0.01,-9.69,-9.6,0.02,0.03,-0.14
1746729746.203903,-0.15,-9.9,-9.2,0.05,0.03,-0.13
1746729746.211419,-0.06,-9.89,-9.06,0.03,0.08,-0.15
1746729746.211419,-0.08,-10.19,-9.34,0.03,0.06,-0.09
1746729746.219624,-0.4,-9.51,-9.75,-0.01,0.05,-0.07
1746729746.219845,-0.31,-9.17,-9.5,0.04,0.07,-0.09
1746729746.2448251,-0.38,-9.59,-8.83,0.06,0.17,-0.1
1746729746.2448251,-0.11,-9.5,-8.62,0.09,0.22,-0.07
1746729746.2448251,0.17,-9.28,-8.38,0.17,0.38,-0.08
1746729746.2448251,-0.15,-9.87,-8.58,0.21,0.3,-0.05
1746729746.2448251,-0.7,-10.38,-8.23,0.15,0.12,0.01
1746729746.2531037,-0.06,-9.99,-9.17,0.03,0.01,-0.03
1746729746.2531037,-0.17,-9.87,-9.19,-0.0,-0.0,0.0
1746729746.2612429,-1.13,-9.66,-8.14,0.02,0.1,-0.0
1746729746.2695713,0.12,-9.9,-9.38,0.1,0.04,0.01
1746729746.2779756,-0.53,-9.82,-9.41,0.12,0.04,0.03
1746729746.3027594,-0.93,-9.52,-8.4,0.03,0.15,0.0
1746729746.3027594,0.42,-9.96,-10.19,-0.03,-0.06,0.01
1746729746.3108954,0.7,-9.93,-9.68,0.02,0.04,0.02
1746729746.3193536,-0.53,-9.58,-9.21,0.03,0.08,0.04
1746729746.3276854,-0.15,-10.18,-9.07,0.05,0.01,0.03
1746729746.336243,-0.42,-9.67,-9.23,0.02,0.04,0.01
1746729746.3444552,-0.4,-9.52,-9.61,0.02,0.02,0.0
1746729746.361017,-0.33,-9.62,-9.47,-0.0,0.01,-0.02
1746729746.3694477,-0.5,-9.77,-9.23,0.0,0.02,-0.04
1746729746.3779092,-0.54,-9.75,-9.31,-0.0,0.04,-0.07
1746729746.418796,-0.39,-9.68,-9.3,-0.01,0.04,-0.08
1746729746.427022,-0.61,-9.53,-10.01,0.05,-0.04,-0.03
1746729746.427022,-0.17,-9.75,-9.73,0.02,-0.03,-0.03
1746729746.427022,-0.22,-9.89,-9.32,0.02,-0.0,-0.01
1746729746.427022,-0.31,-9.99,-9.1,0.02,0.01,-0.04
1746729746.4354625,-0.25,-9.95,-9.19,-0.01,0.03,-0.06
1746729746.4516923,-0.27,-9.79,-9.35,-0.03,0.05,-0.07
1746729746.460006,-0.29,-9.77,-9.46,-0.02,0.04,-0.05
1746729746.4684703,-0.33,-9.76,-9.41,-0.01,0.02,-0.03
1746729746.4767275,-0.6,-9.91,-9.31,-0.04,0.0,0.03
1746729746.5096862,-0.16,-9.78,-9.49,-0.0,0.0,-0.03
1746729746.5096862,-0.26,-9.95,-9.1,-0.02,0.01,-0.03
1746729746.5096862,-0.4,-9.84,-9.22,-0.05,0.05,-0.07
1746729746.5181649,-0.22,-9.83,-9.36,-0.07,0.06,-0.08
1746729746.5264306,-0.38,-9.69,-9.49,-0.06,0.04,-0.06
1746729746.5349143,-0.34,-9.78,-9.45,-0.05,0.02,-0.04
1746729746.5514143,-0.37,-9.43,-9.33,-0.0,0.03,-0.02
1746729746.559578,-0.44,-9.94,-9.33,0.04,0.0,-0.04
1746729746.5680926,-0.31,-9.87,-9.39,0.03,0.0,-0.04
1746729746.5765488,-0.44,-9.82,-9.4,0.01,-0.01,-0.01
1746729746.6265523,-0.21,-9.76,-9.57,0.05,-0.01,-0.02
1746729746.6265523,-0.29,-9.79,-9.32,0.04,0.0,-0.03
1746729746.6265523,-0.34,-9.9,-9.29,0.02,0.0,-0.04
1746729746.6265523,-0.31,-9.77,-9.47,0.02,0.01,-0.04
1746729746.6265523,-0.33,-9.74,-9.5,0.03,0.0,-0.04
1746729746.6348171,-0.33,-9.8,-9.45,0.04,0.0,-0.04
1746729746.6510644,-0.38,-9.8,-9.39,0.04,0.0,-0.04
1746729746.6593924,0.23,-9.41,-8.96,0.04,-0.03,-0.03
1746729746.6676385,-0.35,-9.98,-9.21,0.08,-0.07,-0.0
1746729746.6759267,-0.36,-9.93,-9.12,0.07,-0.01,-0.01
1746729746.7004728,-0.31,-9.93,-9.33,0.03,0.0,-0.03
1746729746.7004728,-0.35,-9.87,-9.38,0.02,0.02,-0.03
1746729746.7087498,-0.36,-9.73,-9.51,0.03,0.01,-0.03
1746729746.717233,-0.28,-9.8,-9.51,0.04,-0.0,-0.01
1746729746.7254732,-0.32,-9.91,-9.34,0.04,-0.0,-0.01
1746729746.7338908,-0.33,-9.88,-9.28,0.02,0.01,-0.02
1746729746.7500987,-0.34,-9.74,-9.46,0.02,0.01,-0.02
1746729746.7584786,-0.33,-9.78,-9.44,0.02,0.01,-0.02
1746729746.76652,-0.31,-9.77,-9.33,0.02,0.0,-0.02
1746729746.775034,-0.34,-9.78,-9.37,0.02,0.0,-0.03
1746729746.8245816,-0.36,-9.86,-9.36,0.02,0.01,-0.03
1746729746.832848,-0.26,-9.83,-9.44,0.02,0.01,-0.02
1746729746.832848,-0.33,-9.81,-9.4,0.02,-0.0,-0.02
1746729746.832848,-0.31,-9.82,-9.41,0.03,-0.0,-0.02
1746729746.832848,-0.39,-9.84,-9.25,0.02,0.0,-0.03
1746729746.840946,-0.31,-9.83,-9.36,0.02,0.01,-0.03
1746729746.849157,-0.34,-9.85,-9.37,0.02,0.01,-0.03
1746729746.8571634,-0.36,-9.86,-9.31,0.03,0.01,-0.03
1746729746.8651707,-0.3,-9.77,-9.37,0.02,0.0,-0.03
1746729746.8811593,-0.46,-9.82,-9.38,0.0,0.01,-0.04
1746729746.897202,-0.34,-9.84,-9.41,-0.0,0.01,-0.05
1746729746.9051583,-0.42,-9.78,-9.48,0.0,0.02,-0.06
1746729746.9051583,-0.3,-9.78,-9.44,0.0,0.01,-0.05
1746729746.9212296,-0.37,-9.76,-9.56,0.01,0.01,-0.04
1746729746.9451833,-0.35,-9.75,-9.59,0.03,0.0,-0.04
1746729746.961181,-0.33,-9.89,-9.47,0.03,-0.0,-0.03
1746729746.969166,-0.38,-9.93,-9.47,0.03,0.0,-0.03
1746729746.969166,-0.34,-9.82,-9.37,0.02,0.01,-0.03
1746729746.969166,-0.29,-9.85,-9.44,0.02,0.0,-0.02
1746729746.9772635,-0.41,-9.81,-9.44,0.01,-0.01,-0.01
1746729747.0015523,-0.61,-9.99,-9.37,0.06,-0.0,0.03
1746729747.0015523,-0.18,-9.78,-9.35,0.05,0.0,-0.02
1746729747.009518,-0.26,-9.91,-9.27,0.03,0.0,-0.02
1746729747.0179899,-0.3,-9.84,-9.28,0.02,0.02,-0.04
1746729747.026012,-0.38,-9.79,-9.53,0.01,0.01,-0.04
1746729747.0344546,-0.23,-9.79,-9.45,0.02,0.01,-0.03
1746729747.0509229,-0.36,-9.74,-9.57,0.03,-0.01,-0.02
1746729747.0589268,-0.31,-9.8,-9.27,0.03,-0.01,-0.02
1746729747.0674036,-0.27,-9.9,-9.36,0.03,-0.0,-0.03
1746729747.0754538,-0.22,-9.79,-9.34,0.02,0.0,-0.03
1746729747.0996788,-0.27,-9.89,-9.41,0.02,-0.01,-0.03
1746729747.0996788,-0.35,-9.85,-9.41,0.02,-0.0,-0.03
1746729747.1076815,-0.29,-9.83,-9.41,0.01,-0.02,-0.03
1746729747.115654,-0.35,-9.81,-9.51,0.02,-0.01,-0.02
1746729747.1316812,-0.32,-9.9,-9.41,0.01,0.0,-0.03
1746729747.1396472,-0.31,-9.86,-9.53,0.01,-0.01,-0.02
1746729747.147692,-0.26,-9.79,-9.41,0.02,-0.02,-0.01
1746729747.1556823,-0.33,-9.75,-9.38,0.03,-0.02,-0.01
1746729747.1716492,-0.34,-9.83,-9.44,0.02,-0.01,-0.01
1746729747.179648,-0.35,-9.87,-9.36,0.01,-0.01,-0.02
1746729747.2036798,-0.41,-9.79,-9.37,0.01,-0.0,-0.02
1746729747.2036798,-0.36,-9.81,-9.47,0.01,0.0,-0.02
1746729747.2116458,-0.35,-9.75,-9.46,0.01,0.01,-0.03
1746729747.219685,-0.32,-9.81,-9.47,0.02,0.01,-0.03
1746729747.2280724,-0.29,-9.87,-9.52,0.02,0.0,-0.03
1746729747.2363276,-0.35,-9.69,-9.42,0.03,-0.01,-0.02
1746729747.2445793,-0.36,-9.79,-9.37,0.02,-0.01,-0.01
1746729747.2608495,-0.25,-9.8,-9.36,0.02,-0.01,0.01
1746729747.2692719,-0.4,-9.71,-9.48,0.04,-0.0,-0.01
1746729747.2778292,-0.34,-9.87,-9.4,0.04,-0.0,-0.01
1746729747.3190231,-0.39,-9.81,-9.41,0.03,0.01,-0.02
1746729747.3273456,-0.35,-9.75,-9.53,0.03,0.01,-0.02
1746729747.3273456,-0.34,-9.78,-9.45,0.03,0.0,-0.02
1746729747.3273456,-0.4,-9.84,-9.47,0.04,-0.0,-0.02
1746729747.3273456,-0.35,-9.84,-9.43,0.04,0.0,-0.02
1746729747.3358078,-0.34,-9.85,-9.44,0.03,0.0,-0.03
1746729747.3440342,-0.36,-9.75,-9.46,0.03,0.01,-0.03
1746729747.360808,-0.32,-9.77,-9.41,0.03,0.01,-0.03
1746729747.369154,-0.35,-9.83,-9.34,0.04,0.0,-0.03
1746729747.3775349,-0.32,-9.83,-9.44,0.03,0.0,-0.03
1746729747.4243324,-0.39,-9.82,-9.4,0.03,0.01,-0.03
1746729747.4253714,-0.34,-9.89,-9.4,0.04,0.01,-0.03
1746729747.426458,-0.39,-9.79,-9.38,0.03,0.01,-0.03
1746729747.427878,-0.32,-9.84,-9.37,0.03,0.01,-0.02
1746729747.4314907,-0.37,-9.89,-9.4,0.03,0.01,-0.02
1746729747.4409487,-0.34,-9.77,-9.41,0.03,0.01,-0.02
1746729747.4509032,-0.36,-9.83,-9.4,0.03,0.01,-0.03
1746729747.4588826,-0.33,-9.84,-9.43,0.03,0.01,-0.03
1746729747.4668841,-0.38,-9.79,-9.45,0.03,0.01,-0.03
1746729747.4748843,-0.28,-9.79,-9.49,0.04,0.01,-0.03
1746729747.4995277,-0.34,-9.83,-9.39,0.03,0.01,-0.03
1746729747.4995277,-0.3,-9.83,-9.4,0.03,0.01,-0.03
1746729747.5079246,-0.4,-9.89,-9.47,0.03,0.01,-0.03
1746729747.5163596,-0.35,-9.84,-9.43,0.03,0.01,-0.03
1746729747.5246305,-0.24,-9.79,-9.45,0.04,0.01,-0.03
1746729747.5410335,-0.31,-9.86,-9.43,0.04,0.01,-0.03
1746729747.549382,-0.32,-9.82,-9.45,0.04,0.01,-0.03
1746729747.5575922,-0.38,-9.82,-9.42,0.04,0.01,-0.04
1746729747.5661888,-0.34,-9.77,-9.45,0.04,0.01,-0.04
1746729747.5741673,-0.27,-9.8,-9.5,0.04,0.01,-0.04
1746729747.5988185,-0.35,-9.83,-9.42,0.04,0.01,-0.04
1746729747.607099,-0.27,-9.84,-9.41,0.05,0.01,-0.04
1746729747.607099,-0.29,-9.89,-9.38,0.04,0.01,-0.04
1746729747.6153605,-0.29,-9.82,-9.35,0.04,0.01,-0.04
1746729747.6318812,-0.35,-9.82,-9.5,0.04,0.01,-0.04
1746729747.6401727,-0.32,-9.79,-9.46,0.04,0.01,-0.04
1746729747.6485996,-0.3,-9.79,-9.41,0.04,0.01,-0.04
1746729747.6571846,-0.3,-9.81,-9.45,0.04,0.01,-0.04
1746729747.6649892,-0.28,-9.9,-9.39,0.04,0.01,-0.04
1746729747.6815555,-0.32,-9.81,-9.46,0.04,0.01,-0.04
1746729747.6979618,-0.32,-9.8,-9.39,0.04,0.01,-0.04
1746729747.7062836,-0.27,-9.84,-9.35,0.04,0.01,-0.04
1746729747.7062836,-0.28,-9.81,-9.37,0.04,0.01,-0.03
1746729747.7208433,-0.26,-9.78,-9.35,0.04,0.01,-0.03
1746729747.7315168,-0.27,-9.88,-9.33,0.04,0.02,-0.03
1746729747.741055,-0.31,-9.79,-9.43,0.05,0.01,-0.03
1746729747.7492168,-0.35,-9.8,-9.46,0.04,0.01,-0.03
1746729747.7549825,-0.79,-10.07,-9.46,0.15,-0.07,0.03
1746729747.7714295,-0.59,-10.09,-9.33,0.08,0.03,0.0
1746729747.779638,-0.31,-9.92,-9.6,-0.01,0.03,-0.04
1746729747.8207188,-0.23,-9.84,-9.37,0.01,0.04,-0.05
1746729747.8207188,-0.24,-9.71,-9.54,0.02,0.01,-0.04
1746729747.8207188,-0.41,-9.69,-9.45,0.03,-0.01,-0.02
1746729747.8207188,-0.3,-9.89,-9.36,0.04,-0.01,-0.01
1746729747.828723,-0.34,-9.95,-9.25,0.03,0.01,-0.03
1746729747.8369896,-0.3,-9.83,-9.4,0.02,0.02,-0.04
1746729747.8451128,-0.32,-9.76,-9.46,0.03,0.01,-0.03
1746729747.8612227,-0.32,-9.75,-9.4,0.04,-0.01,-0.02
1746729747.8698483,-0.26,-9.85,-9.38,0.03,0.0,-0.03
1746729747.8781002,-0.28,-9.85,-9.4,0.02,0.02,-0.03
1746729747.90284,-0.31,-9.85,-9.47,0.02,0.01,-0.03
1746729747.90284,-0.32,-9.76,-9.42,0.03,0.0,-0.03
1746729747.9108827,-0.33,-9.85,-9.42,0.03,0.0,-0.02
1746729747.9193187,-0.22,-9.89,-9.3,0.03,0.0,-0.02
1746729747.927449,-0.28,-9.82,-9.39,0.02,0.01,-0.02
1746729747.9353192,-0.34,-9.81,-9.58,0.02,0.01,-0.02
1746729747.951586,-0.25,-9.79,-9.52,0.03,-0.01,-0.02
1746729747.9595451,-0.37,-9.87,-9.39,0.03,-0.0,-0.02
1746729747.9675848,-0.24,-9.9,-9.41,0.03,0.0,-0.02
1746729747.9759092,-0.29,-9.76,-9.41,0.02,0.01,-0.02
1746729748.0176377,-0.27,-9.83,-9.39,0.03,0.0,-0.02
1746729748.0176377,-0.29,-9.82,-9.38,0.03,-0.0,-0.02
1746729748.0176377,-0.28,-9.8,-9.34,0.03,0.0,-0.02
1746729748.0176377,-0.29,-9.85,-9.33,0.03,0.0,-0.02
1746729748.0260208,-0.34,-9.83,-9.29,0.03,0.01,-0.02
1746729748.0422807,-0.3,-9.8,-9.43,0.03,0.0,-0.02
1746729748.0506198,-0.31,-9.8,-9.45,0.03,0.0,-0.02
1746729748.0590546,-0.37,-9.82,-9.39,0.03,0.0,-0.02
1746729748.0714383,-0.32,-9.83,-9.45,0.03,0.01,-0.03
1746729748.081736,-0.27,-9.82,-9.56,0.03,0.0,-0.02
1746729748.0996897,-0.24,-9.79,-9.48,0.03,0.0,-0.02
1746729748.0996897,-0.34,-9.84,-9.39,0.03,0.01,-0.03
1746729748.106929,-0.3,-9.83,-9.37,0.03,0.01,-0.02
1746729748.1152575,-0.35,-9.76,-9.43,0.03,0.01,-0.02
1746729748.1315997,-0.32,-9.86,-9.38,0.03,0.0,-0.02
1746729748.1398423,-0.26,-9.81,-9.37,0.03,0.0,-0.02
1746729748.1483512,-0.26,-9.86,-9.42,0.03,0.0,-0.02
1746729748.1566699,-0.32,-9.85,-9.37,0.03,0.0,-0.02
1746729748.1650176,-0.31,-9.79,-9.37,0.03,0.0,-0.03
1746729748.1815593,-0.3,-9.83,-9.39,0.04,0.0,-0.02
1746729748.2065864,-0.26,-9.82,-9.34,0.04,0.01,-0.02
1746729748.2147937,-0.26,-9.89,-9.44,0.03,0.01,-0.03
1746729748.2147937,-0.34,-9.79,-9.44,0.03,0.0,-0.02
1746729748.2147937,-0.26,-9.79,-9.4,0.04,-0.01,-0.02
1746729748.2311223,-0.29,-9.9,-9.36,0.04,0.01,-0.02
1746729748.239329,-0.25,-9.88,-9.31,0.04,0.02,-0.02
1746729748.2475429,-0.26,-9.85,-9.35,0.03,0.01,-0.02
1746729748.255959,-0.33,-9.79,-9.3,0.03,0.0,-0.02
1746729748.2644708,-0.31,-9.83,-9.42,0.03,-0.0,-0.02
1746729748.280841,-0.28,-9.82,-9.34,0.04,-0.0,-0.01
1746729748.3057258,-0.28,-9.88,-9.31,0.03,-0.0,-0.02
1746729748.3057258,-0.32,-9.82,-9.44,0.03,0.0,-0.02
1746729748.3057258,-0.27,-9.87,-9.42,0.03,-0.0,-0.02
1746729748.321731,-0.32,-9.78,-9.41,0.03,-0.0,-0.01
1746729748.3297296,-0.3,-9.86,-9.41,0.04,-0.0,-0.01
1746729748.33773,-0.33,-9.84,-9.35,0.03,-0.0,-0.02
1746729748.3458679,-0.38,-9.84,-9.32,0.03,0.0,-0.02
1746729748.3617337,-0.33,-9.83,-9.41,0.03,0.0,-0.01
1746729748.3700645,-0.32,-9.87,-9.35,0.03,0.0,-0.02
1746729748.3787174,-0.33,-9.83,-9.38,0.03,0.0,-0.02
1746729748.411459,-0.34,-9.82,-9.37,0.03,0.0,-0.02
1746729748.4225495,-0.27,-9.81,-9.35,0.03,0.0,-0.02
1746729748.4225495,-0.38,-9.77,-9.36,0.03,0.0,-0.02
1746729748.4225495,-0.3,-9.84,-9.39,0.03,-0.0,-0.02
1746729748.4279182,-0.36,-9.78,-9.32,0.03,0.0,-0.02
1746729748.4362483,-0.32,-9.8,-9.31,0.03,-0.0,-0.02
1746729748.444604,-0.32,-9.83,-9.37,0.03,0.0,-0.02
1746729748.460853,-0.33,-9.85,-9.34,0.04,0.0,-0.02
1746729748.4692795,-0.33,-9.8,-9.35,0.03,-0.0,-0.02
1746729748.4775455,-0.29,-9.9,-9.37,0.03,-0.0,-0.02
1746729748.501854,-0.34,-9.82,-9.39,0.03,-0.0,-0.02
1746729748.501854,-0.28,-9.84,-9.36,0.03,0.0,-0.01
1746729748.5098524,-0.28,-9.79,-9.36,0.03,-0.0,-0.02
1746729748.517968,-0.31,-9.75,-9.46,0.03,0.0,-0.01
1746729748.5262623,-0.38,-9.82,-9.37,0.03,0.0,-0.01
1746729748.5346851,-0.32,-9.82,-9.39,0.02,0.0,-0.02
1746729748.5516062,-0.28,-9.8,-9.4,0.02,0.0,-0.02
1746729748.5599754,-0.29,-9.8,-9.34,0.02,0.01,-0.02
1746729748.5686166,-0.36,-9.85,-9.29,0.02,0.01,-0.02
1746729748.5938056,-0.31,-9.78,-9.45,-0.01,0.03,-0.03
1746729748.635075,-0.28,-9.8,-9.46,-0.01,0.03,-0.04
1746729748.635075,-0.3,-9.77,-9.37,0.01,0.02,-0.03
1746729748.6434174,-0.34,-9.86,-9.32,0.02,0.0,-0.02
1746729748.6434174,-0.35,-9.8,-9.42,0.01,0.01,-0.03
1746729748.6434174,-0.34,-9.8,-9.42,0.01,0.01,-0.02
1746729748.6434174,-0.3,-9.75,-9.39,0.01,0.01,-0.02
1746729748.6515267,-0.33,-9.84,-9.47,0.01,0.01,-0.02
1746729748.659864,-0.37,-9.85,-9.46,0.01,0.01,-0.03
1746729748.6682217,-0.35,-9.79,-9.41,0.02,0.01,-0.03
1746729748.6765964,-0.26,-9.8,-9.42,0.02,0.01,-0.03
1746729748.7013133,-0.33,-9.72,-9.38,0.02,0.01,-0.02
1746729748.7013133,-0.32,-9.81,-9.42,0.02,0.0,-0.02
1746729748.709682,-0.28,-9.84,-9.45,0.02,0.01,-0.02
1746729748.7180626,-0.34,-9.82,-9.46,0.02,0.01,-0.03
1746729748.7265346,-0.32,-9.81,-9.37,0.02,0.01,-0.03
1746729748.7348938,-0.3,-9.83,-9.37,0.02,0.01,-0.03
1746729748.7514572,-0.31,-9.76,-9.51,0.03,0.01,-0.02
1746729748.7599862,-0.31,-9.83,-9.48,0.03,0.0,-0.02
1746729748.768989,-0.37,-9.79,-9.36,0.03,0.01,-0.02
1746729748.784897,-0.34,-9.78,-9.42,0.03,0.01,-0.02
1746729748.825918,-0.32,-9.78,-9.58,0.03,0.0,-0.02
1746729748.825918,-0.35,-9.83,-9.41,0.03,-0.0,-0.02
1746729748.825918,-0.4,-9.86,-9.37,0.03,0.01,-0.02
1746729748.825918,-0.32,-9.9,-9.43,0.03,0.01,-0.02
1746729748.834231,-0.32,-9.83,-9.37,0.03,0.0,-0.02
1746729748.8700006,-0.33,-9.81,-9.42,0.04,0.0,-0.03
1746729748.8700006,-0.3,-9.78,-9.55,0.04,0.01,-0.02
1746729748.8700006,-0.34,-9.82,-9.47,0.04,0.01,-0.03
1746729748.8732793,-0.28,-9.85,-9.38,0.04,0.01,-0.02
1746729748.881354,-0.33,-9.81,-9.48,0.04,0.01,-0.02
1746729748.8975995,-0.34,-9.83,-9.47,0.05,0.0,-0.02
1746729748.8975995,-0.28,-9.76,-9.35,0.05,-0.0,-0.01
1746729748.9056075,-0.31,-9.81,-9.43,0.05,0.0,-0.02
1746729748.9139853,-0.38,-9.8,-9.37,0.04,0.0,-0.02
1746729748.9302971,-0.39,-9.83,-9.38,0.04,0.0,-0.02
1746729748.9387748,-0.33,-9.76,-9.41,0.04,0.0,-0.02
1746729748.9472268,-0.38,-9.79,-9.4,0.05,0.0,-0.02
1746729748.9557295,-0.33,-9.79,-9.42,0.04,0.0,-0.02
1746729748.9641078,-0.33,-9.84,-9.38,0.04,0.0,-0.02
1746729748.9806995,-0.3,-9.8,-9.4,0.04,0.0,-0.02
1746729749.0264626,-0.35,-9.79,-9.4,0.04,-0.0,-0.02
1746729749.028548,-0.34,-9.84,-9.44,0.04,0.01,-0.02
1746729749.0308278,-0.35,-9.87,-9.51,0.04,0.01,-0.02
1746729749.0318575,-0.25,-9.85,-9.36,0.04,0.0,-0.02
1746729749.0339408,-0.28,-9.84,-9.34,0.04,0.0,-0.02
1746729749.041482,-0.35,-9.8,-9.32,0.03,0.0,-0.02
1746729749.0516887,-0.31,-9.84,-9.44,0.04,0.02,-0.03
1746729749.0549946,-0.32,-9.84,-9.39,0.03,0.01,-0.02
1746729749.0701885,-0.35,-9.74,-9.33,0.03,-0.0,-0.02
1746729749.0792255,-0.37,-9.83,-9.38,0.03,0.01,-0.03
1746729749.1029565,-0.34,-9.82,-9.37,0.03,0.01,-0.03
1746729749.1029565,-0.35,-9.86,-9.36,0.03,0.01,-0.03
1746729749.1109593,-0.36,-9.86,-9.35,0.03,0.01,-0.03
1746729749.119256,-0.35,-9.84,-9.35,0.04,0.0,-0.03
1746729749.1275718,-0.34,-9.78,-9.35,0.03,0.01,-0.03
1746729749.1358693,-0.37,-9.77,-9.31,0.03,0.01,-0.03
1746729749.1441445,-0.32,-9.78,-9.38,0.03,0.01,-0.03
1746729749.1604707,-0.4,-9.79,-9.37,0.03,0.01,-0.03
1746729749.1688454,-0.32,-9.83,-9.45,0.03,0.01,-0.03
1746729749.1772754,-0.36,-9.83,-9.43,0.03,0.01,-0.02
1746729749.2018578,-0.29,-9.84,-9.37,0.03,0.0,-0.02
1746729749.2018578,-0.27,-9.84,-9.33,0.03,0.01,-0.03
1746729749.2101183,-0.3,-9.79,-9.35,0.03,0.01,-0.03
1746729749.2185106,-0.3,-9.84,-9.38,0.03,0.01,-0.03
1746729749.2267973,-0.39,-9.78,-9.38,0.03,0.01,-0.03
1746729749.23516,-0.36,-9.83,-9.32,0.03,0.01,-0.03
1746729749.2515285,-0.31,-9.84,-9.34,0.03,0.0,-0.02
1746729749.2598157,-0.32,-9.8,-9.38,0.03,0.0,-0.02
1746729749.2683935,-0.34,-9.82,-9.47,0.03,0.0,-0.02
1746729749.2769578,-0.3,-9.84,-9.34,0.03,0.01,-0.02
1746729749.3185306,-0.32,-9.78,-9.38,0.03,0.01,-0.02
1746729749.3185306,-0.31,-9.76,-9.46,0.03,0.01,-0.03
1746729749.3185306,-0.31,-9.82,-9.37,0.03,0.01,-0.03
1746729749.3185306,-0.27,-9.83,-9.35,0.03,0.01,-0.02
1746729749.3269775,-0.3,-9.8,-9.33,0.03,0.0,-0.02
1746729749.3352742,-0.34,-9.87,-9.42,0.03,0.01,-0.02
1746729749.351698,-0.3,-9.86,-9.4,0.03,0.0,-0.02
1746729749.3613656,-0.39,-9.77,-9.32,0.03,0.0,-0.02
1746729749.3706944,-0.29,-9.81,-9.36,0.03,0.0,-0.03
1746729749.3812337,-0.34,-9.86,-9.4,0.03,0.01,-0.03
1746729749.4012847,-0.33,-9.79,-9.52,0.03,0.01,-0.02
1746729749.4012847,-0.34,-9.83,-9.44,0.03,0.0,-0.03
1746729749.409643,-0.32,-9.83,-9.28,0.03,0.0,-0.02
1746729749.4179876,-0.32,-9.81,-9.37,0.03,0.0,-0.02
1746729749.426039,-0.32,-9.84,-9.32,0.03,0.0,-0.02
1746729749.4341245,-0.33,-9.84,-9.44,0.03,0.01,-0.02
1746729749.4502463,-0.31,-9.81,-9.47,0.03,0.0,-0.02
1746729749.4585805,-0.32,-9.84,-9.38,0.03,0.01,-0.02
1746729749.4670024,-0.3,-9.79,-9.4,0.03,0.01,-0.02
1746729749.475511,-0.33,-9.82,-9.47,0.03,0.0,-0.02
1746729749.5087688,-0.35,-9.84,-9.42,0.03,0.0,-0.02
1746729749.5087688,-0.34,-9.82,-9.42,0.03,0.01,-0.02
1746729749.5087688,-0.39,-9.83,-9.34,0.03,0.0,-0.02
1746729749.5169957,-0.28,-9.78,-9.44,0.03,0.0,-0.02
1746729749.5254931,-0.31,-9.79,-9.44,0.03,0.01,-0.03
1746729749.5416117,-0.35,-9.78,-9.44,0.03,0.01,-0.03
1746729749.5517514,-0.31,-9.8,-9.38,0.03,0.0,-0.03
1746729749.5614061,-0.3,-9.82,-9.28,0.03,0.0,-0.02
1746729749.5711763,-0.33,-9.84,-9.33,0.03,0.0,-0.02
1746729749.580973,-0.36,-9.86,-9.42,0.03,0.0,-0.02
1746729749.6160753,-0.32,-9.82,-9.36,0.03,0.01,-0.02
1746729749.6160753,-0.32,-9.81,-9.41,0.03,0.01,-0.03
1746729749.6160753,-0.32,-9.86,-9.43,0.03,0.01,-0.02
1746729749.624385,-0.35,-9.84,-9.39,0.03,0.01,-0.03
1746729749.624385,-0.27,-9.79,-9.4,0.03,0.01,-0.02
1746729749.6406424,-0.31,-9.8,-9.37,0.03,0.0,-0.02
1746729749.649032,-0.36,-9.84,-9.39,0.03,0.0,-0.02
1746729749.6574345,-0.34,-9.77,-9.39,0.03,0.0,-0.03
1746729749.6657383,-0.34,-9.84,-9.44,0.03,0.0,-0.02
1746729749.6740115,-0.36,-9.78,-9.38,0.03,0.0,-0.03
1746729749.6984723,-0.37,-9.78,-9.33,0.03,0.01,-0.03
1746729749.6984723,-0.33,-9.79,-9.4,0.03,0.01,-0.03
1746729749.7066736,-0.35,-9.83,-9.49,0.03,0.01,-0.02
1746729749.7150364,-0.32,-9.83,-9.51,0.03,0.01,-0.03
1746729749.7315392,-0.32,-9.78,-9.41,0.03,0.0,-0.03
1746729749.7397604,-0.32,-9.81,-9.42,0.03,0.0,-0.02
1746729749.7481418,-0.3,-9.83,-9.44,0.03,0.01,-0.03
1746729749.7564044,-0.29,-9.78,-9.34,0.03,0.01,-0.02
1746729749.7648566,-0.31,-9.82,-9.36,0.03,0.0,-0.02
1746729749.7812595,-0.29,-9.83,-9.44,0.03,0.0,-0.02
1746729749.81452,-0.34,-9.81,-9.36,0.03,0.01,-0.02
1746729749.81452,-0.31,-9.88,-9.39,0.03,0.01,-0.03
1746729749.81452,-0.28,-9.84,-9.34,0.03,0.0,-0.02
1746729749.81452,-0.31,-9.83,-9.32,0.03,0.0,-0.02
1746729749.8310115,-0.32,-9.85,-9.42,0.03,0.01,-0.02
1746729749.8392942,-0.34,-9.87,-9.38,0.03,0.01,-0.02
1746729749.847766,-0.33,-9.81,-9.45,0.03,0.01,-0.02
1746729749.8561254,-0.33,-9.83,-9.4,0.03,0.01,-0.03
1746729749.8644607,-0.31,-9.8,-9.37,0.03,0.01,-0.02
1746729749.8808966,-0.3,-9.84,-9.37,0.03,0.01,-0.02
1746729749.9278717,-0.31,-9.85,-9.35,0.03,0.01,-0.02
1746729749.9300647,-0.28,-9.78,-9.32,0.03,0.01,-0.02
1746729749.9311213,-0.31,-9.78,-9.42,0.03,0.0,-0.02
1746729749.9333467,-0.38,-9.84,-9.38,0.03,0.01,-0.03
1746729749.9344788,-0.32,-9.85,-9.41,0.03,0.01,-0.02
1746729749.941428,-0.36,-9.75,-9.36,0.03,0.0,-0.02
1746729749.9510276,-0.41,-9.73,-9.41,0.03,0.0,-0.02
1746729749.960393,-0.34,-9.81,-9.36,0.03,0.01,-0.02
1746729749.9713287,-0.28,-9.81,-9.39,0.03,0.01,-0.02
1746729749.9796975,-0.28,-9.84,-9.35,0.03,0.01,-0.02
1746729750.0045874,-0.24,-9.81,-9.35,0.03,0.01,-0.02
1746729750.0045874,-0.33,-9.79,-9.32,0.03,0.01,-0.02
1746729750.0045874,-0.35,-9.8,-9.37,0.03,0.0,-0.02
1746729750.0209546,-0.31,-9.8,-9.42,0.03,0.01,-0.02
1746729750.029272,-0.34,-9.81,-9.3,0.03,0.0,-0.02
1746729750.0375206,-0.28,-9.8,-9.33,0.03,0.0,-0.02
1746729750.045956,-0.33,-9.78,-9.48,0.03,0.0,-0.02
1746729750.0547147,-0.34,-9.79,-9.39,0.03,0.0,-0.02
1746729750.0705872,-0.34,-9.83,-9.43,0.03,0.01,-0.02
1746729750.0789514,-0.31,-9.84,-9.46,0.03,0.0,-0.02
1746729750.1037865,-0.34,-9.79,-9.4,0.03,0.0,-0.02
1746729750.1037865,-0.27,-9.8,-9.32,0.03,0.01,-0.03
1746729750.111825,-0.31,-9.82,-9.36,0.03,0.01,-0.02
1746729750.1201148,-0.3,-9.86,-9.36,0.03,0.01,-0.03
1746729750.1285217,-0.27,-9.83,-9.35,0.03,0.0,-0.02
1746729750.1367989,-0.33,-9.84,-9.38,0.03,0.0,-0.03
1746729750.1452372,-0.34,-9.86,-9.36,0.03,0.01,-0.03
1746729750.1614518,-0.34,-9.83,-9.46,0.03,0.0,-0.02
1746729750.1697874,-0.26,-9.87,-9.38,0.03,0.0,-0.02
1746729750.178231,-0.29,-9.85,-9.39,0.03,0.01,-0.02
1746729750.2133515,-0.27,-9.8,-9.45,0.03,0.0,-0.03
1746729750.2384179,-0.31,-9.79,-9.37,0.03,0.01,-0.03
1746729750.2384179,-0.29,-9.83,-9.37,0.03,0.01,-0.03
1746729750.2446845,-0.27,-9.8,-9.36,0.03,0.01,-0.03
1746729750.2446845,-0.23,-9.86,-9.45,0.03,0.01,-0.03
1746729750.2446845,-0.3,-9.8,-9.31,0.03,0.0,-0.02
1746729750.2446845,-0.34,-9.8,-9.29,0.03,0.0,-0.02
1746729750.261027,-0.3,-9.81,-9.38,0.03,0.01,-0.02
1746729750.2693148,-0.34,-9.81,-9.39,0.03,0.0,-0.02
1746729750.2777202,-0.27,-9.84,-9.31,0.03,0.0,-0.02
1746729750.3107755,-0.35,-9.85,-9.39,0.03,0.0,-0.02
1746729750.3107755,-0.34,-9.74,-9.33,0.03,0.01,-0.02
1746729750.3107755,-0.31,-9.76,-9.39,0.03,0.01,-0.03
1746729750.3192687,-0.32,-9.75,-9.36,0.03,0.0,-0.02
1746729750.3277268,-0.3,-9.81,-9.44,0.03,0.0,-0.02
1746729750.3360415,-0.29,-9.79,-9.38,0.03,0.0,-0.02
1746729750.3443859,-0.3,-9.78,-9.36,0.03,0.01,-0.02
1746729750.360704,-0.36,-9.8,-9.36,0.03,0.0,-0.03
1746729750.3690321,-0.36,-9.85,-9.37,0.03,0.0,-0.02
1746729750.3774734,-0.24,-9.84,-9.41,0.03,0.01,-0.02
1746729750.418857,-0.35,-9.85,-9.33,0.03,0.0,-0.02
1746729750.418857,-0.32,-9.85,-9.4,0.03,0.0,-0.02
1746729750.4277508,-0.34,-9.85,-9.32,0.03,0.01,-0.02
1746729750.4277508,-0.3,-9.73,-9.33,0.03,0.0,-0.02
1746729750.4277508,-0.32,-9.81,-9.33,0.03,0.0,-0.02
1746729750.4356303,-0.33,-9.79,-9.42,0.03,0.0,-0.02
1746729750.4444084,-0.3,-9.83,-9.36,0.03,0.01,-0.02
1746729750.4604115,-0.34,-9.87,-9.49,0.03,0.0,-0.02
1746729750.468813,-0.35,-9.83,-9.44,0.03,0.0,-0.02
1746729750.4769146,-0.3,-9.84,-9.33,0.03,0.01,-0.02
1746729750.5179858,-0.33,-9.8,-9.34,0.03,0.01,-0.03
1746729750.5179858,-0.31,-9.82,-9.35,0.03,0.01,-0.03
1746729750.5179858,-0.32,-9.79,-9.4,0.03,0.0,-0.02
1746729750.5261657,-0.3,-9.81,-9.41,0.03,0.0,-0.03
1746729750.5261657,-0.31,-9.83,-9.37,0.03,0.01,-0.03
1746729750.5345457,-0.31,-9.78,-9.46,0.03,0.0,-0.02
1746729750.551647,-0.25,-9.77,-9.43,0.03,0.0,-0.03
1746729750.5615785,-0.31,-9.86,-9.42,0.03,0.0,-0.02
1746729750.5710971,-0.34,-9.8,-9.45,0.03,0.01,-0.02
1746729750.5815227,-0.34,-9.8,-9.36,0.03,0.01,-0.02
1746729750.5994682,-0.29,-9.85,-9.43,0.03,0.01,-0.02
1746729750.6077442,-0.29,-9.81,-9.38,0.03,0.0,-0.02
1746729750.6077442,-0.3,-9.85,-9.25,0.03,0.01,-0.02
1746729750.616174,-0.34,-9.85,-9.38,0.03,0.0,-0.03
1746729750.6245384,-0.39,-9.77,-9.45,0.03,0.01,-0.02
1746729750.640933,-0.28,-9.76,-9.39,0.03,0.0,-0.02
1746729750.6494212,-0.33,-9.83,-9.35,0.03,0.0,-0.02
1746729750.6577942,-0.33,-9.8,-9.39,0.02,0.0,-0.02
1746729750.6663685,-0.28,-9.79,-9.3,0.03,0.01,-0.02
1746729750.6746309,-0.31,-9.84,-9.33,0.03,0.0,-0.02
1746729750.715956,-0.37,-9.85,-9.33,0.03,0.01,-0.03
1746729750.715956,-0.35,-9.8,-9.36,0.03,0.01,-0.02
1746729750.715956,-0.3,-9.85,-9.35,0.03,0.0,-0.02
1746729750.715956,-0.32,-9.79,-9.46,0.03,0.0,-0.02
1746729750.73167,-0.32,-9.82,-9.32,0.03,0.01,-0.02
1746729750.7411802,-0.36,-9.79,-9.31,0.03,0.0,-0.02
1746729750.7516375,-0.33,-9.81,-9.3,0.03,0.01,-0.02
1746729750.7613044,-0.32,-9.82,-9.38,0.02,0.01,-0.03
1746729750.7715929,-0.33,-9.84,-9.47,0.03,0.01,-0.03
1746729750.7812228,-0.33,-9.78,-9.47,0.03,0.01,-0.03
1746729750.814704,-0.3,-9.84,-9.47,0.03,0.01,-0.03
1746729750.814704,-0.28,-9.76,-9.43,0.03,0.0,-0.02
1746729750.814704,-0.34,-9.82,-9.37,0.03,0.0,-0.02
1746729750.8228054,-0.33,-9.8,-9.41,0.03,0.0,-0.02
1746729750.8311675,-0.37,-9.78,-9.41,0.03,0.01,-0.02
1746729750.8396227,-0.33,-9.74,-9.39,0.03,0.01,-0.02
1746729750.8481028,-0.36,-9.79,-9.4,0.03,0.0,-0.02
1746729750.8564143,-0.27,-9.8,-9.39,0.03,0.0,-0.02
1746729750.8647356,-0.33,-9.78,-9.35,0.03,0.0,-0.02
1746729750.8811028,-0.3,-9.84,-9.4,0.03,0.0,-0.02
1746729750.897482,-0.28,-9.84,-9.38,0.03,0.0,-0.02
1746729750.9057732,-0.34,-9.79,-9.38,0.03,0.0,-0.02
1746729750.9057732,-0.32,-9.81,-9.39,0.03,0.0,-0.02
1746729750.9142728,-0.34,-9.79,-9.44,0.03,0.0,-0.02
1746729750.9305544,-0.39,-9.84,-9.34,0.03,0.0,-0.02
1746729750.9390645,-0.39,-9.78,-9.37,0.03,0.0,-0.02
1746729750.9476497,-0.21,-9.79,-9.33,0.03,0.0,-0.02
1746729750.9561749,-0.31,-9.83,-9.35,0.03,0.0,-0.02
1746729750.964614,-0.24,-9.82,-9.36,0.03,0.0,-0.02
1746729750.981051,-0.32,-9.84,-9.34,0.03,0.0,-0.02
1746729751.0389569,-0.28,-9.84,-9.32,0.03,0.01,-0.03
1746729751.0461614,-0.34,-9.79,-9.48,0.03,0.0,-0.02
1746729751.0473094,-0.33,-9.87,-9.43,0.03,0.0,-0.02
1746729751.0484505,-0.31,-9.88,-9.36,0.03,0.01,-0.02
1746729751.0505626,-0.33,-9.8,-9.45,0.03,0.0,-0.02
1746729751.0528448,-0.31,-9.84,-9.32,0.03,0.0,-0.02
1746729751.0541399,-0.34,-9.8,-9.39,0.03,0.01,-0.02
1746729751.0611699,-0.33,-9.83,-9.42,0.03,0.01,-0.02
1746729751.0707712,-0.34,-9.83,-9.43,0.03,0.01,-0.03
1746729751.0796146,-0.29,-9.8,-9.27,0.03,0.0,-0.02
1746729751.1034796,-0.36,-9.82,-9.41,0.03,-0.01,-0.02
1746729751.1034796,-0.38,-9.79,-9.41,0.03,-0.0,-0.02
1746729751.1114857,-0.31,-9.83,-9.33,0.03,-0.0,-0.02
1746729751.1198556,-0.36,-9.82,-9.46,0.03,0.0,-0.02
1746729751.1281734,-0.34,-9.78,-9.4,0.03,-0.0,-0.02
1746729751.136508,-0.33,-9.81,-9.34,0.03,0.0,-0.02
1746729751.144879,-0.33,-9.83,-9.34,0.03,0.0,-0.02
1746729751.161223,-0.25,-9.84,-9.36,0.03,0.0,-0.02
1746729751.1695793,-0.34,-9.87,-9.39,0.03,0.0,-0.02
1746729751.1778924,-0.3,-9.83,-9.47,0.03,0.0,-0.02
1746729751.2027388,-0.39,-9.85,-9.34,0.03,0.0,-0.02
1746729751.2027388,-0.34,-9.82,-9.33,0.03,0.0,-0.02
1746729751.210742,-0.3,-9.81,-9.33,0.03,0.01,-0.03
1746729751.219064,-0.3,-9.81,-9.3,0.03,0.01,-0.03
1746729751.22734,-0.35,-9.78,-9.35,0.03,0.01,-0.03
1746729751.2357922,-0.28,-9.84,-9.45,0.03,0.01,-0.02
1746729751.2441335,-0.27,-9.81,-9.34,0.03,0.01,-0.03
1746729751.260404,-0.29,-9.77,-9.38,0.02,0.01,-0.03
1746729751.2689419,-0.31,-9.84,-9.4,0.03,0.01,-0.03
1746729751.2773466,-0.34,-9.85,-9.45,0.03,0.01,-0.03
1746729751.3019426,-0.31,-9.79,-9.41,0.02,0.01,-0.03
1746729751.3019426,-0.33,-9.8,-9.35,0.02,0.0,-0.02
1746729751.31016,-0.36,-9.79,-9.34,0.03,0.01,-0.02
1746729751.3185728,-0.34,-9.8,-9.38,0.02,0.0,-0.02
1746729751.3272328,-0.35,-9.8,-9.4,0.03,0.01,-0.02
1746729751.335176,-0.32,-9.83,-9.34,0.03,0.01,-0.03
1746729751.3515294,-0.3,-9.84,-9.34,0.03,0.01,-0.02
1746729751.3598716,-0.31,-9.85,-9.42,0.03,0.01,-0.02
1746729751.3687053,-0.34,-9.77,-9.41,0.03,0.01,-0.03
1746729751.3768783,-0.39,-9.79,-9.43,0.03,0.0,-0.03
1746729751.4260502,-0.32,-9.84,-9.43,0.03,0.01,-0.03
1746729751.4260502,-0.3,-9.78,-9.42,0.03,0.01,-0.03
1746729751.4260502,-0.36,-9.87,-9.39,0.03,0.01,-0.02
1746729751.4260502,-0.33,-9.82,-9.33,0.03,0.0,-0.02
1746729751.4260502,-0.34,-9.84,-9.36,0.03,0.01,-0.02
1746729751.4344242,-0.3,-9.78,-9.42,0.03,0.01,-0.02
1746729751.4508002,-0.31,-9.78,-9.42,0.03,0.01,-0.02
1746729751.4591079,-0.31,-9.79,-9.36,0.03,0.0,-0.02
1746729751.4675064,-0.34,-9.75,-9.4,0.03,0.0,-0.02
1746729751.4757538,-0.36,-9.83,-9.38,0.03,0.0,-0.02
1746729751.5085251,-0.33,-9.81,-9.39,0.03,0.0,-0.02
1746729751.5085251,-0.3,-9.84,-9.44,0.04,0.0,-0.02
1746729751.51276,-0.32,-9.77,-9.41,0.04,0.0,-0.02
1746729751.5211983,-0.4,-9.82,-9.37,0.04,0.0,-0.02
1746729751.5313256,-0.33,-9.84,-9.26,0.04,0.0,-0.02
1746729751.540804,-0.32,-9.84,-9.3,0.04,-0.0,-0.02
1746729751.5491788,-0.3,-9.8,-9.42,0.04,0.0,-0.01
