time,ax,ay,az,gx,gy,gz
1746730006.9245372,-0.08,-9.88,-10.26,0.04,0.0,-0.05
1746730007.0146103,-0.21,-9.89,-10.09,0.04,0.0,-0.03
1746730007.0146103,-0.18,-9.89,-10.16,0.04,0.01,-0.04
1746730007.0146103,-0.1,-9.91,-10.14,0.04,0.0,-0.05
1746730007.022926,-0.14,-9.9,-10.14,0.04,0.01,-0.03
1746730007.022926,-0.13,-9.88,-10.21,0.04,0.0,-0.04
1746730007.022926,-0.06,-9.96,-10.09,0.04,0.01,-0.04
1746730007.022926,-0.17,-9.94,-10.2,0.02,0.01,-0.02
1746730007.0309327,-0.12,-9.9,-10.2,0.05,0.0,-0.04
1746730007.0309327,-0.05,-10.0,-10.14,0.04,0.01,-0.03
1746730007.055809,-0.19,-9.82,-10.16,0.03,0.0,-0.03
1746730007.055809,-0.06,-9.84,-10.18,0.05,0.01,-0.04
1746730007.0640407,-0.14,-9.87,-10.15,0.04,0.0,-0.03
1746730007.0640407,-0.14,-9.94,-10.09,0.05,0.0,-0.05
1746730007.0640407,-0.15,-9.94,-10.06,0.03,0.01,-0.03
1746730007.0720274,-0.14,-9.9,-10.13,0.05,0.0,-0.04
1746730007.0720274,-0.2,-10.0,-10.03,0.06,-0.0,-0.05
1746730007.0720274,-0.07,-9.92,-10.15,0.05,-0.0,-0.03
1746730007.0720274,0.01,-10.05,-10.06,0.04,0.0,-0.03
1746730007.0720274,-0.17,-9.92,-10.26,0.02,0.01,-0.03
1746730007.105587,-0.12,-9.95,-10.27,0.04,0.01,-0.03
1746730007.1066585,-0.23,-9.87,-10.08,0.04,0.01,-0.02
1746730007.1066585,-0.06,-9.69,-10.49,0.06,-0.04,-0.01
1746730007.1087954,0.0,-9.64,-10.36,0.09,-0.02,-0.05
1746730007.1098683,-0.19,-10.03,-10.27,0.04,-0.0,-0.02
1746730007.1120212,0.02,-9.86,-10.14,0.05,0.02,-0.04
1746730007.1130931,-0.14,-9.87,-9.99,0.05,0.02,-0.03
1746730007.1141586,0.01,-9.94,-10.02,0.04,0.01,-0.02
1746730007.1172965,-0.29,-9.83,-10.09,0.03,0.02,-0.02
1746730007.1201382,-0.13,-9.96,-10.04,0.03,0.01,-0.03
1746730007.1444423,-0.16,-9.92,-10.09,0.03,0.01,-0.02
1746730007.1444423,-0.13,-9.9,-10.13,0.04,0.01,-0.03
1746730007.1444423,-0.15,-9.98,-10.2,0.04,0.01,-0.02
1746730007.1444423,-0.07,-9.84,-10.04,0.04,0.01,-0.02
1746730007.1444423,-0.19,-9.85,-10.21,0.04,0.0,-0.02
1746730007.1524942,-0.14,-9.9,-10.05,0.04,0.01,-0.02
1746730007.1524942,-0.11,-9.87,-10.09,0.03,0.01,-0.02
1746730007.1524942,-0.11,-9.89,-10.12,0.03,0.01,-0.03
1746730007.1524942,-0.11,-9.92,-10.11,0.03,0.0,-0.03
1746730007.1524942,-0.16,-9.87,-10.24,0.03,0.0,-0.03
1746730007.1767955,-0.06,-9.93,-10.1,0.03,0.01,-0.02
1746730007.1767955,-0.16,-9.89,-10.17,0.03,0.0,-0.02
1746730007.1767955,-0.14,-9.9,-10.08,0.04,0.01,-0.02
1746730007.1767955,-0.14,-9.86,-10.12,0.03,0.01,-0.03
1746730007.1848013,-0.18,-9.91,-10.11,0.03,0.01,-0.02
1746730007.1929302,-0.15,-9.93,-10.18,0.03,0.0,-0.03
1746730007.200795,-0.11,-9.93,-10.08,0.03,0.0,-0.03
1746730007.2177687,-0.11,-9.87,-10.13,0.03,0.01,-0.03
1746730007.2257388,-0.06,-9.94,-10.12,0.03,0.01,-0.02
1746730007.2343378,-0.05,-9.89,-10.16,0.03,0.01,-0.02
1746730007.2584348,-0.09,-9.9,-10.11,0.02,0.0,-0.03
1746730007.2584348,-0.17,-9.89,-10.11,0.03,0.0,-0.02
1746730007.2667756,-0.14,-9.92,-10.13,0.03,0.01,-0.02
1746730007.2752082,-0.18,-9.87,-10.17,0.02,0.01,-0.03
1746730007.2841513,-0.21,-9.95,-10.22,0.03,0.01,-0.02
1746730007.2918024,-0.07,-9.87,-10.18,0.03,0.01,-0.03
1746730007.3086858,-0.19,-9.94,-10.08,0.02,0.0,-0.02
1746730007.3170955,-0.13,-9.9,-10.12,0.03,0.01,-0.03
1746730007.325667,-0.05,-9.91,-10.15,0.03,0.0,-0.02
1746730007.3350706,-0.12,-9.86,-10.14,0.02,0.01,-0.02
1746730007.3839152,-0.11,-9.88,-10.17,0.02,0.01,-0.02
1746730007.3839152,-0.24,-9.87,-10.1,0.02,0.01,-0.02
1746730007.3919635,-0.17,-9.96,-10.19,0.02,0.01,-0.02
1746730007.3919635,-0.2,-9.92,-10.13,0.01,0.0,-0.02
1746730007.3919635,-0.02,-9.95,-10.15,0.03,0.0,-0.03
1746730007.4003222,-0.23,-9.9,-10.14,0.02,0.0,-0.01
1746730007.4087765,-0.06,-10.01,-10.22,0.03,-0.0,-0.03
1746730007.4171803,-0.03,-9.92,-10.17,0.01,0.01,-0.01
1746730007.4258027,-0.07,-9.95,-10.18,0.02,0.01,-0.02
1746730007.4342277,-0.11,-9.81,-9.97,0.01,0.01,-0.01
1746730007.4671903,-0.15,-9.82,-10.17,0.01,0.01,-0.01
1746730007.4671903,-0.02,-9.93,-10.12,0.01,0.01,-0.01
1746730007.4671903,-0.13,-10.01,-9.94,0.0,0.02,0.01
1746730007.4758239,-0.04,-9.94,-9.98,0.0,0.03,0.02
1746730007.4842243,-0.09,-9.99,-10.0,-0.01,0.03,0.04
1746730007.4923656,-0.14,-10.04,-10.06,-0.03,0.04,0.06
1746730007.50913,-0.11,-9.91,-10.2,-0.02,0.04,0.06
1746730007.5172644,-0.24,-9.85,-10.18,-0.03,0.04,0.06
1746730007.5257268,-0.33,-9.86,-10.4,-0.0,0.04,0.05
1746730007.5338643,-0.37,-9.86,-10.38,0.04,0.03,0.02
1746730007.5663412,-0.07,-10.07,-10.11,0.03,0.02,0.02
1746730007.5663412,-0.27,-9.9,-10.0,-0.01,0.02,0.03
1746730007.5663412,-0.3,-9.78,-10.25,-0.01,0.02,0.01
1746730007.5748136,-0.21,-9.81,-10.18,0.01,0.02,0.0
1746730007.5832047,-0.22,-9.95,-10.13,-0.0,0.02,0.01
1746730007.591343,-0.19,-9.9,-10.12,-0.01,0.02,0.02
1746730007.6078534,-0.13,-9.93,-10.21,-0.01,0.02,0.02
1746730007.6161325,-0.17,-9.92,-10.13,0.0,0.03,0.03
1746730007.6245792,-0.1,-9.92,-10.07,-0.0,0.04,0.05
1746730007.6329477,-0.37,-9.96,-10.15,-0.01,0.04,0.06
1746730007.6743872,-0.28,-9.77,-10.4,-0.01,0.03,0.04
1746730007.6743872,-0.34,-9.81,-10.3,-0.01,0.02,0.01
1746730007.6743872,-0.23,-9.79,-10.32,0.0,0.02,0.0
1746730007.6743872,-0.59,-9.42,-9.53,-0.0,0.05,0.04
1746730007.6823905,-0.34,-9.74,-10.3,-0.0,0.02,0.0
1746730007.6907732,-0.27,-9.95,-10.26,0.01,0.01,0.01
1746730007.7074213,-0.31,-9.84,-10.25,0.01,0.02,0.01
1746730007.7156415,-0.39,-9.95,-10.35,0.01,0.0,0.01
1746730007.7240608,-0.41,-9.96,-10.51,-0.01,-0.02,0.02
1746730007.732087,-1.27,-11.48,-10.44,-0.01,0.03,0.11
1746730007.7654145,0.94,-9.87,-14.32,0.52,-0.2,0.19
1746730007.7654145,-0.26,-10.45,-10.59,0.81,-0.01,0.22
1746730007.7654145,-0.3,-10.69,-9.89,0.36,-0.08,0.26
1746730007.7737412,-0.61,-9.52,-9.61,0.05,-0.28,0.12
1746730007.7817595,-0.18,-9.78,-9.01,0.14,-0.13,0.06
1746730007.7985198,0.02,-10.06,-9.48,0.09,-0.09,0.11
1746730007.8072536,-0.4,-9.84,-9.37,-0.02,-0.04,0.12
1746730007.8155673,-0.48,-9.76,-9.89,-0.1,-0.0,0.05
1746730007.8232276,-0.21,-9.7,-10.24,-0.04,0.02,0.05
1746730007.8318794,-0.33,-9.78,-10.19,0.05,0.04,0.06
1746730007.8737402,-0.37,-10.0,-10.1,0.06,0.04,0.06
1746730007.8760695,-0.54,-10.04,-10.0,0.03,0.02,0.1
1746730007.8760695,-0.37,-9.81,-9.73,-0.0,0.02,0.1
1746730007.8798583,-0.59,-9.81,-9.86,-0.05,0.03,0.1
1746730007.888455,-0.74,-9.81,-10.1,-0.08,0.03,0.09
1746730007.8967159,-0.61,-9.7,-9.67,-0.04,0.07,0.1
1746730007.9050603,-0.71,-9.92,-10.24,-0.03,0.03,0.1
1746730007.9145155,-0.95,-9.88,-10.0,-0.01,0.03,0.08
1746730007.921621,-0.83,-9.82,-9.93,-0.04,0.01,0.05
1746730007.9383957,-0.86,-9.96,-10.2,-0.02,0.0,0.05
1746730007.9717548,-0.47,-10.21,-9.92,-0.03,-0.0,0.02
1746730007.9717548,-0.51,-10.25,-10.0,-0.05,0.0,0.03
1746730007.9717548,-0.28,-10.39,-9.88,-0.04,0.01,0.06
1746730007.9717548,-0.33,-10.14,-9.76,-0.13,0.02,0.1
1746730007.9883811,-0.68,-9.79,-10.25,-0.2,0.02,0.09
1746730007.9966507,-0.67,-9.51,-10.7,-0.11,0.02,0.07
1746730008.0050275,-0.63,-9.62,-10.36,0.04,0.01,0.06
1746730008.0135398,-0.67,-9.93,-9.82,0.01,0.02,0.03
1746730008.0216138,-0.7,-9.84,-10.11,-0.09,0.02,-0.01
1746730008.0384393,-0.71,-9.53,-10.42,-0.07,0.02,-0.05
1746730008.063193,-0.61,-9.66,-10.59,0.05,0.0,-0.07
1746730008.063193,-0.42,-9.8,-10.13,0.07,0.02,-0.06
1746730008.063193,-0.68,-9.84,-10.46,0.0,0.01,-0.06
1746730008.0711994,-0.66,-9.46,-10.69,0.09,-0.01,-0.07
1746730008.0879688,-0.82,-9.32,-10.6,0.12,-0.04,-0.08
1746730008.0964532,-0.89,-9.47,-10.69,0.19,-0.07,-0.11
1746730008.104776,-0.66,-9.23,-10.64,0.19,-0.1,-0.16
1746730008.1132493,-0.76,-9.58,-10.35,0.11,-0.1,-0.18
1746730008.1213946,0.05,-9.16,-10.51,0.25,0.02,-0.14
1746730008.138353,-0.71,-10.05,-10.2,0.34,-0.06,-0.09
1746730008.1797962,-0.42,-9.8,-9.98,0.36,-0.04,-0.11
1746730008.1797962,-0.34,-10.25,-9.8,0.34,-0.0,-0.08
1746730008.1797962,-0.5,-10.07,-10.25,0.26,0.05,-0.02
1746730008.1797962,-0.36,-9.71,-10.54,0.33,0.05,-0.03
1746730008.1881886,-0.48,-10.13,-10.26,0.51,0.02,-0.12
1746730008.1965392,-0.52,-10.31,-9.84,0.42,0.02,-0.1
1746730008.2049005,-0.84,-10.14,-10.05,0.35,0.03,-0.12
1746730008.2132814,-1.51,-10.04,-10.28,0.43,0.06,-0.1
1746730008.221379,-1.28,-9.19,-11.3,0.7,0.07,-0.14
1746730008.2378833,-1.4,-10.07,-9.64,0.93,-0.01,-0.25
1746730008.2625446,-1.27,-10.55,-9.56,0.79,0.05,-0.26
1746730008.270751,-1.23,-9.97,-10.37,0.71,0.05,-0.26
1746730008.270751,-0.32,-10.7,-12.01,0.87,-0.06,-0.32
1746730008.279084,-0.04,-11.52,-11.95,0.96,-0.16,-0.25
1746730008.287498,-1.88,-10.54,-11.3,1.2,-0.21,-0.36
1746730008.2959316,-1.32,-11.29,-11.1,1.4,-0.21,-0.59
1746730008.304368,-0.99,-11.65,-11.09,1.44,-0.2,-0.75
1746730008.3125098,-1.3,-10.82,-11.49,1.53,-0.24,-0.86
1746730008.3289502,-1.47,-11.75,-11.18,1.72,-0.31,-0.97
1746730008.3375862,-0.3,-12.08,-11.42,1.95,-0.29,-1.07
1746730008.379378,0.53,-12.79,-10.91,2.07,-0.3,-1.02
1746730008.379378,-0.17,-12.48,-11.81,2.21,-0.3,-0.93
1746730008.379378,-0.16,-13.02,-12.84,2.69,-0.27,-0.94
1746730008.387621,-1.73,-12.79,-12.75,3.19,-0.42,-0.91
1746730008.387621,-3.1,-12.63,-14.13,3.77,-0.54,-1.02
1746730008.3961062,-2.76,-12.27,-14.76,4.37,-0.84,-1.28
1746730008.4045255,-3.62,-13.55,-14.33,4.37,-1.16,-1.54
1746730008.4128993,-4.2,-13.51,-14.29,4.37,-1.62,-1.67
1746730008.4209938,-4.85,-13.76,-9.72,4.37,-1.82,-1.84
1746730008.4377198,-3.92,-14.67,-3.79,4.37,-1.37,-1.95
1746730008.4705052,-3.39,-13.96,-6.4,4.37,-1.46,-1.37
1746730008.4708295,-5.43,-18.84,5.06,4.37,-1.89,-1.6
1746730008.4708295,-9.12,-17.76,6.25,4.37,-1.58,-1.66
1746730008.4708295,-8.56,-14.43,-0.16,3.43,-1.03,-2.09
1746730008.4877188,-8.85,-10.72,-5.71,1.7,-0.6,-2.54
1746730008.4962149,-9.2,-2.63,-9.98,0.38,-0.39,-3.63
1746730008.5046809,4.72,-19.61,-17.54,0.96,-1.49,-3.74
1746730008.513172,3.12,-19.61,-0.94,-1.6,-1.42,-1.97
1746730008.5213196,-1.94,-12.34,-7.52,-4.35,0.54,-0.41
1746730008.5385294,-4.29,-4.88,-19.27,-4.37,0.51,0.27
1746730008.5876982,-4.91,-0.5,-18.36,-4.37,0.49,-0.45
1746730008.5876982,-3.19,-0.91,-17.39,-4.37,0.42,-0.68
1746730008.5959082,-1.77,-1.68,-17.53,-4.37,0.46,-0.63
1746730008.5959082,-1.19,-3.23,-16.88,-3.53,0.51,-0.35
1746730008.5959082,-0.96,-4.83,-15.12,-2.09,0.74,0.31
1746730008.5959082,-1.24,-4.17,-14.41,-0.42,1.16,1.07
1746730008.6043541,-2.2,-3.11,-14.33,1.25,1.34,1.21
1746730008.6123848,-1.29,-10.29,-13.6,2.06,1.39,1.29
1746730008.6206503,-10.29,-13.22,-10.93,-4.37,1.39,4.37
1746730008.637193,4.71,-8.72,-3.73,-1.49,1.87,2.88
1746730008.653755,0.09,-8.54,-5.27,-3.27,2.33,1.64
1746730008.6617897,0.66,-11.59,-8.48,-4.37,2.51,1.28
1746730008.6617897,0.34,-7.49,-9.37,-4.37,2.51,1.31
1746730008.6782043,0.14,-8.49,-10.69,-4.37,2.28,1.72
1746730008.6864438,-0.31,-8.2,-10.91,-3.59,2.23,2.03
1746730008.6948102,-0.36,-10.23,-9.2,-3.32,2.1,2.21
1746730008.703096,-1.43,-10.89,-8.88,-3.37,1.95,2.11
1746730008.7111003,-1.12,-12.27,-8.43,-3.55,1.82,1.91
1746730008.7275653,-0.64,-13.8,-8.69,-3.56,1.64,1.89
1746730008.7358894,-0.56,-14.93,-8.4,-3.39,1.51,1.98
1746730008.752123,-0.89,-16.24,-8.5,-3.1,1.33,2.16
1746730008.7604253,-1.39,-16.7,-7.38,-2.81,1.25,2.18
1746730008.7604253,0.96,-16.77,-6.5,-2.66,1.27,2.05
1746730008.7771266,2.75,-16.62,-5.43,-2.82,0.85,2.22
1746730008.7854097,3.79,-19.61,-1.61,-2.52,0.32,3.11
1746730008.7937198,5.25,-17.12,1.39,-1.66,1.23,3.1
1746730008.801758,0.77,-19.61,7.58,-1.59,1.0,3.53
1746730008.8180213,-0.47,4.5,9.8,-1.47,3.22,2.71
1746730008.8264148,0.73,-4.08,-2.01,-1.54,1.92,1.92
1746730008.8347604,8.66,-3.15,1.63,-0.78,0.08,-0.78
1746730008.85951,0.8,-6.63,9.8,4.0,1.01,1.14
1746730008.8955982,9.76,5.3,9.8,4.37,-0.43,-0.24
1746730008.8988695,12.28,4.62,9.8,4.37,-1.99,-0.18
1746730008.8988695,14.03,3.67,9.8,3.99,-1.53,-0.32
1746730008.8988695,11.48,-1.47,9.8,0.53,-0.26,-1.08
1746730008.8988695,2.89,-19.61,0.2,-2.61,0.37,-1.35
1746730008.9071844,-1.7,-13.56,2.69,-0.93,1.24,-1.83
1746730008.9154084,-11.79,-9.0,9.8,3.78,-1.33,2.62
1746730008.923868,-1.85,-19.61,-2.96,3.67,1.27,0.71
1746730008.931884,-2.61,-8.27,-2.34,-0.1,0.19,-1.49
1746730008.9737585,-2.69,-13.8,3.61,-2.02,0.79,-2.19
1746730008.9737585,0.56,-10.33,-6.48,-4.11,1.11,-2.47
1746730008.9737585,-1.66,-7.59,-5.75,-2.05,1.54,-2.55
1746730008.981793,-0.13,-3.19,-11.28,-2.52,0.54,-2.73
1746730008.981793,0.31,-5.89,-13.96,-2.08,0.06,-2.42
1746730008.9983137,1.34,-10.17,-11.4,-0.05,-0.12,-2.19
1746730009.0066001,2.32,-11.85,-10.71,-0.04,-0.57,-1.27
1746730009.0148776,-0.39,-12.29,-9.3,0.09,-0.63,-0.34
1746730009.0261898,-1.14,-11.49,-9.12,0.44,-0.31,0.11
1746730009.0339186,-1.43,-10.52,-8.11,0.56,-0.24,0.24
1746730009.07506,-1.91,-9.17,-7.98,0.57,0.01,0.24
1746730009.07506,-2.14,-9.11,-9.07,0.35,0.15,0.15
1746730009.07506,-2.04,-8.7,-9.05,0.26,0.13,-0.1
1746730009.07506,-1.65,-10.25,-9.01,0.19,0.06,-0.15
1746730009.0835583,-0.9,-9.51,-9.69,0.07,0.02,-0.21
1746730009.09107,-1.14,-8.78,-10.21,-0.18,-0.07,-0.35
1746730009.1079946,-0.29,-8.83,-11.25,-0.26,-0.5,-0.62
1746730009.1163368,-0.92,-9.68,-9.12,-0.27,-0.68,-0.76
1746730009.1261497,-0.63,-11.0,-8.44,-0.36,-0.7,-0.67
1746730009.1356502,-1.46,-10.43,-8.39,-0.53,-0.65,-0.55
1746730009.1910126,-1.46,-10.16,-9.22,-0.68,-0.74,-0.47
1746730009.1910126,-1.16,-9.76,-9.79,-0.33,-1.58,-0.28
1746730009.1910126,-1.56,-9.46,-9.39,-0.54,-0.82,-0.32
1746730009.1992164,-0.79,-8.51,-11.34,-0.0,-0.18,-0.28
1746730009.1992164,-1.42,-8.44,-14.98,-0.84,-0.94,-0.27
1746730009.1992164,2.45,3.25,-16.71,-2.79,-1.62,-2.47
1746730009.2093976,0.14,-10.17,-15.55,0.2,-1.68,0.18
1746730009.243712,-1.28,-12.63,-7.58,1.17,-1.15,0.66
1746730009.2469473,0.62,-12.84,-8.15,1.17,-0.63,0.59
1746730009.2469473,-2.37,-9.87,-7.19,0.97,-0.42,0.14
1746730009.2715392,-0.14,-12.56,-6.06,0.6,0.18,-0.3
1746730009.279743,-1.21,-10.59,-7.62,0.06,0.23,-0.46
1746730009.279743,-0.99,-9.66,-10.25,0.05,0.42,-0.56
1746730009.279743,0.23,-9.02,-10.58,0.05,0.13,-0.45
1746730009.288194,0.51,-8.77,-10.68,0.47,-0.02,-0.28
1746730009.2965736,-1.07,-9.03,-11.04,0.72,-0.33,0.05
1746730009.3050218,-0.23,-9.39,-11.43,1.15,-0.39,-0.05
1746730009.3135197,-1.02,-10.52,-9.4,1.16,-0.52,-0.0
1746730009.3216665,-0.81,-9.75,-8.57,0.89,-0.48,0.06
1746730009.3383873,-1.49,-10.23,-8.37,0.99,-0.28,-0.27
1746730009.3793006,-1.71,-10.36,-8.82,1.15,0.02,-0.58
1746730009.3793006,-0.99,-10.65,-10.0,1.09,-0.2,-0.68
1746730009.3793006,-1.0,-10.47,-9.74,1.11,-0.25,-0.73
1746730009.3793006,0.34,-10.75,-9.99,1.25,-0.3,-0.7
1746730009.3875034,0.74,-10.61,-9.78,1.53,-0.32,-0.62
1746730009.3960488,1.5,-10.95,-9.7,1.76,-0.38,-0.46
1746730009.4061348,1.85,-11.52,-9.76,1.94,-0.44,-0.26
1746730009.4138515,1.17,-12.0,-9.21,2.15,-0.33,-0.12
1746730009.4219317,0.25,-12.11,-9.29,2.36,-0.14,-0.09
1746730009.4385164,-1.14,-11.99,-9.77,2.54,-0.01,-0.16
1746730009.4634867,-1.81,-11.51,-10.84,2.64,-0.28,-0.43
1746730009.4634867,-2.13,-11.61,-10.55,2.92,-0.44,-0.55
1746730009.4634867,-1.28,-11.07,-9.99,3.13,-0.56,-0.97
1746730009.47161,-1.2,-12.53,-10.75,3.13,-0.53,-1.17
1746730009.4883409,-2.7,-12.2,-12.1,3.5,-0.64,-1.51
1746730009.4966357,-2.57,-11.16,-13.32,4.01,-0.96,-1.72
1746730009.5050974,-2.28,-12.91,-15.22,4.37,-1.66,-1.95
1746730009.5136344,-1.53,-11.82,-14.58,4.37,-2.49,-1.83
1746730009.5217817,-1.79,-15.84,-10.93,4.37,-3.36,-1.15
1746730009.5390933,-3.37,-19.61,-1.64,4.37,-2.94,-0.1
1746730009.5882752,-0.32,-18.75,-1.92,4.37,-2.8,0.06
1746730009.5882752,-5.3,-18.75,3.2,4.37,-2.56,-0.18
1746730009.5882752,-7.41,-13.7,1.37,4.37,-2.0,-0.63
1746730009.5882752,-7.7,-14.07,-0.64,4.34,-2.06,-0.69
1746730009.5882752,-7.23,-19.61,-5.51,4.37,-2.41,-0.95
1746730009.5966253,-5.79,-8.92,-5.96,2.94,-2.41,-1.95
1746730009.6050687,-4.7,0.38,-4.23,1.31,-2.66,-2.97
1746730009.6136239,5.9,-15.4,-15.18,1.16,-4.37,-1.87
1746730009.6217582,4.12,-17.49,1.52,1.81,-4.37,-0.5
1746730009.6383138,2.55,-19.61,9.8,0.98,-3.54,1.43
1746730009.6711514,-4.12,-19.44,9.8,-3.78,0.11,2.04
1746730009.6711514,-6.06,-7.79,-0.77,-4.37,2.64,1.34
1746730009.6711514,-10.02,3.11,-9.69,-4.37,2.98,1.4
1746730009.6711514,-8.15,4.68,-8.99,-4.37,4.37,0.23
1746730009.688032,-2.26,3.47,-28.23,-4.37,0.75,-0.57
1746730009.6965256,-0.48,6.47,-19.39,-4.37,-2.27,1.04
1746730009.7049727,0.23,-2.32,-25.48,-3.24,1.06,0.38
1746730009.7133539,1.05,-5.5,-7.02,-3.47,3.84,1.15
1746730009.7214923,2.53,-3.17,-15.71,-1.98,3.5,1.46
1746730009.7381568,2.26,-3.48,-13.97,-0.46,3.71,1.52
1746730009.779477,0.62,-2.01,-14.56,1.0,3.36,1.21
1746730009.779477,0.61,-8.48,-8.3,-0.83,3.29,2.43
1746730009.779477,1.7,-11.46,-4.89,-2.53,3.27,1.98
1746730009.779477,1.58,-11.39,-2.72,-4.37,3.04,1.41
1746730009.7878711,1.44,-7.45,-7.67,-4.37,2.64,0.52
1746730009.796439,1.06,-4.37,-11.4,-4.37,2.07,0.59
1746730009.8050444,-0.12,-3.9,-13.49,-4.37,1.48,0.71
1746730009.8134835,-0.05,-6.86,-12.45,-4.37,1.11,1.06
1746730009.8216217,0.85,-9.55,-10.03,-3.95,1.15,1.78
1746730009.8383014,-0.47,-11.63,-7.93,-3.88,1.1,2.05
1746730009.8712385,-0.53,-13.27,-6.43,-4.24,0.89,2.07
1746730009.8712385,-0.7,-14.65,-5.95,-4.37,0.71,2.14
1746730009.8712385,-0.96,-15.39,-6.83,-4.37,0.56,2.36
1746730009.8712385,-1.54,-15.6,-6.8,-4.37,0.38,2.7
1746730009.8879254,-1.15,-16.62,-4.9,-3.85,0.17,3.13
1746730009.8963711,0.19,-18.33,-1.87,-3.36,0.02,3.51
1746730009.9048014,1.93,-19.17,0.98,-3.28,0.07,3.77
1746730009.9132702,3.54,-19.61,2.42,-3.84,0.19,3.65
1746730009.9214094,3.34,-19.17,2.15,-4.36,0.35,3.54
1746730009.9381053,0.31,-15.5,-0.24,-4.08,0.47,3.33
1746730009.979579,-2.74,-13.76,-0.35,-2.89,0.65,3.26
1746730009.979579,-1.88,-12.98,1.65,-1.37,0.66,2.93
1746730009.979579,0.41,-11.15,2.04,-1.43,1.26,2.34
1746730009.979579,3.22,-8.3,9.8,-0.8,0.2,2.05
1746730009.9880064,8.3,-8.09,9.8,-0.8,-0.36,1.24
1746730009.996424,0.16,0.32,3.3,4.37,1.85,0.46
1746730010.0048404,11.9,19.59,9.72,4.37,0.69,-2.5
1746730010.016286,11.88,11.82,9.8,4.17,-1.17,-2.85
1746730010.0214412,4.3,-11.28,-4.13,0.08,0.88,-3.29
1746730010.0381384,-4.04,-13.07,-5.48,-3.1,-1.28,-3.38
1746730010.07135,-5.7,-19.61,-7.54,1.21,-0.23,-2.82
1746730010.0796003,-4.53,-9.8,-7.52,2.02,-1.57,-2.28
1746730010.0796003,8.57,-10.01,-10.41,1.91,-2.34,-3.31
1746730010.0796003,8.74,-19.61,-7.17,2.19,-4.37,-3.04
1746730010.0880263,9.04,-12.52,9.8,4.37,-4.14,-1.35
1746730010.0977316,4.71,-19.61,8.1,1.79,-1.13,-0.77
1746730010.1076124,2.41,-19.61,5.62,-0.64,1.5,0.01
1746730010.1182046,-1.52,-13.56,-4.08,-3.19,2.29,-0.02
1746730010.126884,-6.48,-8.39,-14.63,-2.04,2.31,0.11
1746730010.1374202,2.68,0.92,-11.77,-2.38,1.31,-0.52
1746730010.1539447,-2.44,-5.37,-16.39,-1.23,0.79,-1.13
1746730010.1539447,-2.33,-7.0,-12.15,-0.19,0.32,-0.95
1746730010.161946,-4.34,-10.33,-12.77,0.36,-0.1,-0.39
1746730010.178724,-0.06,-11.03,-9.68,0.71,-0.38,-0.19
1746730010.1870492,-1.11,-11.56,-7.69,0.83,-0.34,0.12
1746730010.195532,-0.92,-10.56,-7.28,0.61,-0.0,0.2
1746730010.2061613,-1.9,-9.61,-8.63,0.0,0.07,0.0
1746730010.2134614,-1.83,-8.65,-9.63,-0.27,-0.09,-0.26
1746730010.2216094,-2.19,-8.83,-9.24,-0.41,-0.19,-0.39
1746730010.2384808,-2.05,-9.47,-9.49,-0.57,-0.38,-0.51
1746730010.2795317,-1.31,-9.47,-10.31,-0.66,-0.51,-0.73
1746730010.2795317,-0.94,-9.67,-9.21,-0.74,-0.63,-0.89
1746730010.2795317,-0.16,-10.86,-8.99,-0.69,-0.67,-0.79
1746730010.2795317,0.0,-11.13,-8.36,-0.27,-0.52,-0.42
1746730010.2878177,-1.1,-11.18,-9.07,-0.46,-1.06,-0.09
1746730010.296266,0.38,-6.53,-6.29,-0.0,0.42,-0.23
1746730010.3046865,-1.33,-9.17,-10.89,0.27,-0.05,-0.03
1746730010.313079,-0.06,-8.97,-9.92,0.59,-0.1,-0.0
1746730010.3212135,-0.81,-9.07,-10.01,0.75,-0.18,0.08
1746730010.337851,-0.48,-9.9,-9.55,0.76,-0.27,0.02
1746730010.370985,-0.29,-10.54,-8.2,0.58,-0.33,0.04
1746730010.370985,-0.95,-10.98,-8.21,0.41,-0.16,0.12
1746730010.370985,-0.62,-9.23,-9.45,0.02,-0.67,-0.06
1746730010.379218,-0.31,-8.51,-9.45,-0.7,-1.29,-0.09
1746730010.3876324,-0.26,-9.49,-8.84,-0.08,-0.54,-0.06
1746730010.3960757,-1.2,-9.07,-10.34,-0.37,-0.13,-0.18
1746730010.404528,-2.24,-10.9,-10.89,0.11,-0.29,0.05
1746730010.4129848,-0.57,-8.09,-10.75,0.36,-0.29,0.05
1746730010.421135,-2.54,-10.84,-10.63,0.76,-0.4,0.19
1746730010.4377568,-0.33,-8.99,-8.62,1.08,-0.38,-0.09
1746730010.487144,-1.94,-10.86,-8.9,0.96,-0.28,0.04
1746730010.495382,-0.72,-10.76,-9.17,0.88,-0.21,-0.06
1746730010.495382,-2.0,-9.65,-9.6,0.86,-0.06,-0.25
1746730010.495382,-1.14,-9.85,-9.77,1.04,-0.11,-0.28
1746730010.495382,-1.59,-9.2,-9.57,1.26,-0.15,-0.3
1746730010.495382,-1.41,-9.76,-9.42,1.39,-0.15,-0.41
1746730010.5057588,-1.32,-9.82,-9.08,1.42,0.01,-0.48
1746730010.5119102,-1.91,-11.03,-9.2,1.58,-0.06,-0.51
1746730010.5286171,-1.48,-10.55,-9.37,1.59,-0.09,-0.6
1746730010.536968,-0.87,-10.52,-9.22,1.64,-0.18,-0.74
1746730010.553584,-0.15,-10.67,-9.25,1.63,-0.28,-0.77
1746730010.553584,0.25,-10.35,-8.8,1.74,-0.25,-0.74
1746730010.5680642,1.04,-10.51,-8.74,1.85,-0.32,-0.62
1746730010.5976355,0.39,-10.53,-8.65,2.12,-0.28,-0.46
1746730010.5976355,-1.0,-11.24,-9.25,2.32,-0.38,-0.5
1746730010.6014109,-1.56,-11.5,-9.2,2.37,-0.44,-0.57
1746730010.6014109,-2.72,-12.0,-9.78,2.46,-0.57,-0.79
1746730010.61805,-2.55,-12.73,-9.72,2.52,-0.71,-0.95
1746730010.6265008,-2.28,-13.26,-10.83,2.65,-0.88,-1.04
1746730010.6349857,-1.29,-14.02,-12.38,3.02,-1.2,-1.1
1746730010.6678882,-3.72,-14.66,-11.36,3.47,-1.29,-1.1
1746730010.6678882,-2.89,-12.11,-14.74,3.83,-1.55,-1.49
1746730010.6678882,0.17,-13.87,-17.48,4.31,-2.55,-2.02
1746730010.6763802,-1.46,-13.63,-16.55,4.37,-3.66,-1.68
1746730010.6848173,-3.08,-14.43,-10.6,4.37,-4.37,-0.75
1746730010.6932464,-3.9,-15.79,0.71,4.37,-3.52,0.25
1746730010.7013836,-3.93,-18.35,2.77,4.37,-3.52,0.15
1746730010.7179961,-7.35,-19.39,6.42,4.37,-3.12,-0.54
1746730010.7264028,-9.31,-13.01,8.12,4.34,-2.27,-0.84
1746730010.734861,-13.86,-19.61,-1.92,4.37,-2.51,-0.62
1746730010.7678294,-8.71,-11.37,-7.85,1.9,-1.37,-2.51
1746730010.7678294,-8.09,1.42,-3.93,0.1,-2.19,-3.26
1746730010.7678294,6.33,-16.2,-19.63,0.02,-3.57,-3.39
1746730010.776374,1.99,-18.29,1.37,0.32,-4.37,-1.6
1746730010.7848117,0.37,-19.61,9.8,0.07,-1.62,0.75
1746730010.793268,-6.49,-19.61,6.52,-4.37,2.39,1.53
1746730010.801406,-5.93,-5.87,-5.83,-4.37,4.37,-0.05
1746730010.8180327,-0.12,4.06,-8.64,-4.37,2.72,2.01
1746730010.8265386,2.21,9.97,-24.32,-4.37,1.94,0.64
1746730010.8350434,-2.12,1.36,-17.93,-4.37,1.82,-1.43
1746730010.8847198,2.17,-6.2,-10.26,-4.37,2.92,-0.22
1746730010.8929987,3.34,-5.76,-13.07,-4.37,3.16,1.96
1746730010.8929987,0.57,-1.21,-15.54,-2.62,3.2,2.15
1746730010.8929987,0.16,-2.34,-13.88,-0.23,3.04,1.76
1746730010.8929987,-0.69,-1.88,-13.05,1.89,2.79,1.39
1746730010.9010012,-0.71,-2.12,-12.37,3.7,2.54,0.83
1746730010.9010012,6.93,-9.85,3.59,0.89,2.49,3.02
1746730010.91781,1.19,-16.85,1.85,-1.5,2.4,2.69
1746730010.9262688,1.6,-14.42,2.29,-4.37,2.89,1.6
1746730010.9347355,0.38,-8.61,-2.66,-4.37,2.57,0.24
1746730010.9511142,1.16,-5.04,-8.18,-4.37,2.13,0.09
1746730010.9593823,-3.07,-1.78,-12.02,-4.37,1.62,0.55
1746730010.9678364,-2.02,-4.11,-12.36,-4.3,1.36,0.89
1746730010.976406,-0.85,-9.22,-9.27,-2.84,1.47,1.72
1746730010.9848347,-0.59,-12.99,-4.77,-2.21,1.49,2.22
1746730010.9982865,0.85,-15.63,-1.89,-2.67,1.52,2.36
1746730011.001435,0.97,-16.33,0.02,-3.54,1.6,2.36
1746730011.0182333,0.16,-15.65,-0.25,-4.3,1.64,2.37
1746730011.0266664,-0.79,-14.02,-1.54,-4.37,1.59,2.38
1746730011.0350661,-1.01,-13.1,-2.87,-4.05,1.56,2.4
1746730011.0844867,-0.91,-13.66,-3.48,-3.39,1.47,2.39
1746730011.0844867,-0.45,-14.85,-2.55,-2.84,1.36,2.3
1746730011.0844867,-0.69,-15.89,-1.3,-2.7,1.28,2.22
1746730011.0844867,-1.41,-15.56,-0.73,-2.82,1.25,2.08
1746730011.0844867,-2.22,-14.7,0.1,-2.66,1.12,1.9
1746730011.092488,-1.23,-13.65,1.77,-2.25,0.83,1.83
1746730011.1009026,1.43,-13.91,3.75,-2.22,0.38,1.72
1746730011.1176171,5.44,-14.43,5.02,-2.67,0.11,1.84
1746730011.126209,2.65,-7.95,9.8,-2.41,1.92,2.1
1746730011.1345801,6.57,-6.87,9.12,3.13,1.28,2.35
1746730011.159199,12.09,0.35,9.8,2.63,-0.93,2.41
1746730011.159199,9.67,-10.08,7.92,-0.25,1.46,2.26
1746730011.1675787,-0.33,11.61,9.8,1.91,2.36,1.13
1746730011.17599,-0.49,9.49,-0.8,0.18,2.37,-1.05
1746730011.1844218,-1.03,-0.21,-15.63,-2.01,1.89,-3.08
1746730011.1924653,-3.39,-14.07,-14.7,1.55,-0.63,-3.99
1746730011.2007399,-11.61,-3.79,-7.83,2.41,-1.73,-4.36
1746730011.2172408,-15.92,-19.61,-13.28,2.44,-1.46,-3.77
1746730011.225582,3.23,-15.21,-16.66,2.26,-1.75,-3.94
1746730011.2340088,3.72,-16.8,-10.48,4.32,-2.8,-2.59
1746730011.258536,3.45,-15.81,-0.26,4.37,-4.07,-1.51
1746730011.258536,1.05,-15.95,8.87,4.37,-2.82,-0.51
1746730011.2668252,2.43,-19.61,4.46,2.11,-1.42,-0.24
1746730011.2752795,4.67,-14.63,-0.79,-1.02,-0.09,-0.41
1746730011.286128,-4.32,-13.16,-7.0,-1.25,0.84,-0.69
1746730011.2931578,-3.09,-5.74,-14.06,-0.65,-0.05,-0.77
1746730011.301291,-2.82,-7.26,-12.69,-0.03,-0.61,-0.83
1746730011.317925,0.59,-10.79,-8.55,0.86,-0.71,-0.55
1746730011.3264732,1.1,-11.82,-6.0,1.0,-0.43,-0.21
1746730011.3350058,-1.83,-13.6,-4.81,0.78,-0.04,0.05
1746730011.3850932,-0.74,-11.44,-4.49,0.32,0.11,-0.02
1746730011.3850932,-0.81,-10.4,-6.8,-0.28,0.69,-0.18
1746730011.3850932,-2.95,-7.81,-10.48,-1.05,0.63,-0.48
1746730011.3850932,-2.95,-5.94,-13.35,-1.03,-0.04,-0.74
1746730011.3933263,-1.71,-8.33,-12.2,-0.54,-0.52,-0.99
1746730011.3941684,-1.57,-9.83,-9.03,-0.24,-0.7,-0.75
1746730011.4013164,0.03,-11.78,-7.37,-0.1,-0.38,-0.38
1746730011.4179504,-0.09,-10.77,-8.37,-0.19,-0.27,-0.18
1746730011.4264343,-0.02,-10.64,-9.41,-0.31,-0.54,-0.12
1746730011.4349134,-1.34,-9.85,-9.9,-0.44,-0.92,-0.01
1746730011.4677088,-1.82,-8.18,-7.96,-0.42,-0.16,-0.1
1746730011.4677088,-0.72,-8.75,-10.41,-0.05,-0.06,-0.12
1746730011.4677088,1.23,-9.84,-10.04,0.05,-0.59,0.09
1746730011.4761553,-1.44,-9.56,-9.65,0.37,0.07,0.02
1746730011.4846153,-1.22,-10.35,-9.41,0.39,0.07,0.02
1746730011.4930556,-1.39,-9.53,-9.95,0.41,-0.03,-0.02
1746730011.5011907,-1.29,-9.84,-9.84,0.19,-0.1,-0.03
1746730011.517843,-1.29,-9.75,-9.32,0.14,-0.08,-0.17
1746730011.5263135,-0.51,-9.86,-8.78,0.08,-0.08,-0.25
1746730011.534828,-0.27,-11.67,-9.47,-0.02,-0.06,-0.25
1746730011.5679214,-0.67,-10.05,-9.04,-0.04,-0.01,-0.18
1746730011.5679214,-1.35,-9.59,-9.39,-0.05,-0.08,-0.14
1746730011.5679214,-1.19,-8.85,-9.65,0.06,-0.2,-0.22
1746730011.5763643,-1.87,-9.07,-9.35,0.12,-0.12,-0.25
1746730011.584621,-1.04,-8.63,-7.48,0.14,-0.1,-0.22
1746730011.5930269,-0.38,-10.58,-9.7,0.05,-0.09,-0.27
1746730011.6011608,-0.34,-9.62,-9.3,0.04,-0.07,-0.25
1746730011.6178124,-1.1,-9.75,-8.83,-0.18,-0.1,-0.21
1746730011.6262214,-0.24,-9.4,-8.38,-0.07,-0.06,-0.19
1746730011.6346524,0.01,-9.66,-9.13,-0.1,-0.05,-0.12
1746730011.6592588,-0.56,-10.54,-9.44,-0.08,-0.09,-0.08
1746730011.6675205,-0.5,-10.05,-9.3,-0.03,-0.08,-0.09
1746730011.6675205,-0.44,-9.93,-9.47,0.03,-0.05,-0.06
1746730011.6756635,-0.91,-9.88,-9.29,0.1,-0.05,-0.02
1746730011.684226,-1.04,-9.24,-8.96,0.1,-0.04,-0.07
1746730011.6923678,-0.13,-10.41,-8.92,0.06,-0.03,-0.06
1746730011.700486,-0.96,-9.66,-9.03,0.06,0.04,-0.03
1746730011.7176223,-0.36,-9.82,-9.01,0.08,-0.03,0.01
1746730011.728653,-0.18,-10.12,-8.82,0.05,-0.07,0.05
1746730011.7384458,-0.5,-9.72,-8.54,-0.09,-0.05,0.06
1746730011.7890403,-1.75,-10.03,-9.04,-0.37,0.0,0.03
1746730011.7972353,-1.99,-8.93,-10.52,-0.19,0.18,-0.3
1746730011.7972353,-0.63,-9.82,-10.86,-0.14,-0.06,-0.22
1746730011.7972353,-0.51,-7.98,-9.46,0.21,-0.09,-0.1
1746730011.7972353,-0.85,-9.84,-9.57,0.35,-0.07,-0.02
1746730011.7972353,-0.8,-9.91,-9.36,0.2,-0.25,0.13
1746730011.8054934,-0.31,-10.72,-8.95,0.3,-0.06,0.0
1746730011.8144033,-0.68,-9.83,-10.19,0.03,-0.24,-0.01
1746730011.8219936,0.21,-8.47,-9.43,0.1,-0.19,0.01
1746730011.8386092,-0.1,-9.98,-8.59,0.53,-0.16,0.1
1746730011.8714414,-0.93,-9.73,-7.17,0.55,-0.13,0.44
1746730011.8797445,-0.79,-9.3,-8.67,0.44,-0.02,0.46
1746730011.8797445,-1.2,-10.03,-8.42,0.36,0.11,0.26
1746730011.8797445,-2.37,-9.63,-9.42,-0.11,0.14,0.11
1746730011.8881993,-1.63,-9.08,-10.63,-0.16,0.03,-0.24
1746730011.8964014,-0.18,-9.56,-9.6,0.09,-0.07,-0.2
1746730011.9047806,-0.21,-10.07,-8.79,0.2,0.01,-0.01
1746730011.9132276,-0.65,-10.3,-8.95,0.15,0.05,-0.01
1746730011.9276211,-0.78,-9.85,-9.49,0.04,0.0,0.01
1746730011.937615,-1.22,-9.55,-9.66,0.16,-0.08,-0.02
1746730011.961393,-0.59,-9.84,-8.91,0.28,-0.09,0.01
1746730011.9634373,-0.94,-9.71,-8.69,0.28,-0.06,0.08
1746730011.9646077,-1.09,-9.66,-8.7,0.24,-0.03,0.02
1746730011.978315,-0.8,-9.87,-8.58,0.13,-0.02,-0.02
1746730011.986549,-0.86,-9.75,-8.84,-0.01,-0.01,-0.04
1746730011.9949617,-0.78,-9.77,-8.94,-0.1,-0.02,-0.06
1746730012.0037098,-0.96,-9.53,-9.21,-0.07,-0.03,-0.07
1746730012.0113592,-0.61,-9.72,-8.95,-0.01,-0.04,-0.08
1746730012.0282705,-0.51,-9.79,-8.71,-0.01,-0.0,-0.04
1746730012.0368252,-0.79,-9.75,-8.65,-0.06,0.02,-0.03
1746730012.0859482,-0.63,-9.71,-8.77,-0.1,0.02,-0.05
1746730012.0859482,-0.81,-10.13,-9.14,-0.13,0.02,-0.01
1746730012.0859482,-1.14,-9.15,-9.7,-0.11,-0.04,-0.07
1746730012.0859482,-0.86,-9.74,-9.17,0.03,-0.05,-0.01
1746730012.0941937,-0.66,-9.67,-9.41,0.1,-0.08,-0.01
1746730012.0941937,-0.59,-10.01,-9.21,0.04,-0.05,-0.03
1746730012.1022913,-0.7,-9.96,-9.2,-0.08,-0.07,-0.04
1746730012.1188364,-0.87,-9.35,-9.32,-0.07,-0.04,-0.05
1746730012.1272223,-0.64,-9.74,-9.02,-0.0,-0.06,-0.04
1746730012.1356757,-0.85,-9.55,-8.92,0.0,-0.02,-0.04
1746730012.160263,-0.77,-9.75,-8.82,-0.03,0.0,-0.05
1746730012.160263,-0.87,-9.74,-8.89,-0.06,0.02,-0.07
1746730012.1686313,-0.77,-9.86,-8.72,-0.04,0.05,-0.08
1746730012.176955,-0.79,-10.26,-8.58,-0.05,0.1,-0.06
1746730012.1854308,-0.88,-9.94,-8.77,-0.08,0.13,-0.07
1746730012.19397,-0.64,-9.6,-8.95,-0.14,0.12,-0.1
1746730012.20346,-0.73,-9.81,-8.97,-0.17,0.09,-0.06
1746730012.2134726,-0.8,-9.46,-9.39,-0.22,0.12,-0.07
1746730012.2209163,-1.01,-9.68,-9.63,-0.12,0.09,-0.05
1746730012.2377894,-0.74,-9.47,-9.53,0.0,0.1,-0.01
1746730012.2871406,0.1,-9.72,-8.35,-0.04,0.3,0.11
1746730012.2871406,-2.09,-9.88,-9.13,-0.07,0.02,0.23
1746730012.2871406,-0.76,-9.46,-9.46,0.01,0.04,0.02
1746730012.2871406,-0.83,-9.69,-9.24,0.04,0.02,-0.03
1746730012.2871406,-0.74,-9.83,-9.03,0.04,0.03,-0.03
1746730012.2956138,-0.77,-9.84,-9.17,-0.02,0.02,0.02
1746730012.3038497,-0.85,-9.71,-9.21,-0.02,0.03,-0.01
1746730012.3118505,-0.83,-9.74,-9.36,-0.01,0.02,-0.01
1746730012.3284938,-0.88,-9.66,-9.4,0.03,0.01,-0.01
1746730012.3364947,-0.87,-9.86,-9.35,0.05,0.01,-0.01
1746730012.3604934,-0.97,-9.76,-9.32,0.06,0.01,-0.01
1746730012.3604934,-0.91,-9.85,-9.19,0.06,0.03,0.0
1746730012.3604934,-0.52,-9.7,-7.85,0.13,0.11,0.06
1746730012.3764932,-1.1,-9.4,-9.29,0.09,0.06,0.07
1746730012.384522,-0.73,-9.59,-9.57,0.07,-0.01,0.01
1746730012.3925562,-0.85,-9.83,-9.26,0.07,-0.02,0.0
1746730012.4004922,-0.67,-9.86,-8.96,0.06,0.02,0.01
1746730012.4165268,-0.83,-9.82,-9.22,0.01,0.02,0.01
1746730012.4245684,-0.99,-9.63,-9.28,-0.01,0.01,-0.02
1746730012.432523,-0.95,-9.79,-9.33,-0.0,0.0,-0.04
1746730012.4656932,-0.89,-9.69,-9.33,0.02,0.01,-0.03
1746730012.4656932,-0.88,-9.66,-9.34,0.04,0.01,-0.03
1746730012.4656932,-0.87,-9.75,-9.2,0.04,0.02,-0.03
1746730012.4741094,-0.84,-9.79,-9.06,0.03,0.02,-0.03
1746730012.4821181,-0.85,-9.75,-9.1,0.02,0.02,-0.02
1746730012.4905484,-0.86,-9.86,-9.14,0.01,0.04,-0.01
1746730012.5071661,-0.78,-9.72,-9.13,0.02,0.05,-0.0
1746730012.5153852,-0.83,-9.65,-9.18,0.01,0.05,-0.01
1746730012.5238712,-0.88,-9.77,-9.24,-0.01,0.03,-0.02
1746730012.5318787,-0.76,-9.88,-9.21,0.02,0.06,-0.01
1746730012.5564005,-1.06,-9.58,-9.38,-0.02,0.05,-0.02
1746730012.5564005,-0.88,-9.48,-9.36,-0.02,0.01,-0.06
1746730012.5644956,-0.81,-9.87,-9.21,0.01,0.01,-0.03
1746730012.572507,-0.67,-9.85,-9.23,0.01,0.01,-0.01
1746730012.5883667,-1.1,-9.91,-8.99,0.02,0.07,0.01
1746730012.5969784,-1.0,-9.72,-9.2,0.0,0.05,-0.01
1746730012.605515,-0.82,-9.7,-9.29,0.01,0.05,0.0
1746730012.6138165,-1.19,-9.94,-8.99,0.04,0.04,0.04
1746730012.6219656,-0.74,-9.65,-9.53,0.03,0.05,0.02
1746730012.6385472,-1.02,-9.63,-9.54,0.05,0.05,0.0
1746730012.6879349,-1.0,-9.47,-9.47,0.07,0.0,-0.02
1746730012.6879349,-0.95,-9.83,-9.34,0.08,-0.01,-0.02
1746730012.6879349,-0.99,-9.82,-9.18,0.08,-0.0,-0.02
1746730012.6961384,-0.94,-9.75,-9.33,0.07,-0.0,-0.02
1746730012.6962802,-0.91,-9.7,-9.2,0.06,-0.0,-0.02
1746730012.6962802,-0.81,-9.73,-9.28,0.06,0.0,-0.01
1746730012.7047274,-0.94,-9.79,-9.25,0.06,0.01,-0.01
1746730012.7131135,-0.87,-9.76,-9.24,0.05,0.0,-0.01
1746730012.7212546,-0.89,-9.75,-9.29,0.05,-0.0,-0.01
1746730012.7371635,-0.93,-9.73,-9.21,0.04,-0.0,-0.01
1746730012.7614808,-1.03,-9.69,-9.26,0.03,-0.01,-0.02
1746730012.7614808,-0.97,-9.76,-9.16,0.02,-0.01,-0.03
1746730012.7614808,-0.99,-9.77,-9.15,-0.0,-0.01,-0.04
1746730012.7776144,-0.9,-9.75,-9.17,-0.01,-0.01,-0.05
1746730012.7856317,-0.77,-9.79,-9.21,-0.0,-0.01,-0.04
1746730012.7936301,-0.83,-9.77,-9.12,-0.01,-0.0,-0.03
1746730012.801618,-0.92,-9.66,-9.19,-0.01,-0.0,-0.04
1746730012.8179793,-1.04,-9.74,-9.34,-0.02,0.0,-0.05
1746730012.826452,-0.98,-9.67,-9.34,-0.0,-0.0,-0.06
1746730012.8347776,-0.94,-9.75,-9.29,0.01,-0.02,-0.06
1746730012.8762891,-0.95,-9.74,-9.18,0.04,-0.02,-0.05
1746730012.8762891,-0.77,-9.85,-9.21,0.03,-0.01,-0.04
1746730012.8762891,-0.88,-9.8,-9.13,0.0,-0.01,-0.03
1746730012.884594,-0.91,-9.76,-9.14,-0.01,-0.01,-0.04
1746730012.884594,-0.94,-9.79,-9.28,-0.02,-0.01,-0.05
1746730012.895157,-0.9,-9.68,-9.3,-0.02,-0.02,-0.06
1746730012.9061012,-0.87,-9.7,-9.23,-0.04,-0.02,-0.06
1746730012.9160984,-0.83,-9.75,-9.3,-0.01,0.0,-0.05
1746730012.923239,-0.79,-9.62,-9.32,0.0,-0.0,-0.04
1746730012.9313715,-0.94,-9.69,-9.36,0.0,-0.01,-0.04
1746730012.9647045,-0.87,-9.68,-9.4,0.01,-0.01,-0.06
1746730012.9729376,-0.92,-9.81,-9.33,0.02,-0.0,-0.05
1746730012.9729376,-0.93,-9.67,-9.52,0.04,-0.01,-0.06
1746730012.9729376,-0.75,-9.83,-9.26,0.06,-0.01,-0.05
1746730012.9810655,-0.82,-9.78,-9.21,0.07,-0.01,-0.03
1746730012.997643,-0.81,-9.81,-9.27,0.05,-0.0,-0.03
1746730013.006151,-0.88,-9.77,-9.19,0.03,0.0,-0.03
1746730013.0146532,-0.91,-9.73,-9.29,0.02,0.01,-0.03
1746730013.0261037,-0.87,-9.65,-9.33,0.04,-0.0,-0.04
1746730013.0341706,-0.84,-9.75,-9.19,0.06,0.0,-0.02
1746730013.1003807,-0.93,-9.78,-9.34,0.05,0.0,-0.02
1746730013.1015217,-0.86,-9.72,-9.21,0.06,0.0,-0.03
1746730013.1025302,-0.88,-9.68,-9.21,0.06,0.0,-0.03
1746730013.1025302,-1.0,-9.64,-9.41,0.06,0.0,-0.05
1746730013.1045809,-0.88,-9.78,-9.36,0.08,-0.0,-0.06
1746730013.1078224,-0.86,-9.76,-9.33,0.1,0.01,-0.04
1746730013.1088274,-0.9,-9.7,-9.34,0.13,0.01,-0.05
1746730013.1173637,-0.83,-9.81,-9.19,0.14,0.0,-0.04
1746730013.122418,-0.77,-9.82,-9.1,0.14,0.01,-0.01
1746730013.1304283,-0.8,-9.79,-9.11,0.12,0.02,-0.01
1746730013.1631658,-0.86,-9.76,-9.03,0.1,0.03,-0.01
1746730013.1631658,-0.87,-9.67,-9.12,0.06,0.01,-0.02
1746730013.1631658,-0.89,-9.73,-9.17,0.04,0.01,-0.04
1746730013.1712155,-0.83,-9.73,-9.28,0.05,-0.0,-0.04
1746730013.1873205,-0.78,-9.79,-9.16,0.06,-0.0,-0.03
1746730013.1953354,-0.74,-9.79,-9.08,0.06,0.01,-0.03
1746730013.2044694,-0.85,-9.71,-9.13,0.04,0.01,-0.02
1746730013.211487,-0.94,-9.71,-9.32,0.02,0.01,-0.03
1746730013.228347,-0.88,-9.67,-9.33,0.05,-0.0,-0.05
1746730013.236668,-0.97,-9.79,-9.34,0.08,-0.01,-0.04
1746730013.261262,-0.92,-9.94,-9.18,0.12,-0.01,-0.04
1746730013.261262,-0.87,-9.9,-9.02,0.09,-0.01,-0.03
1746730013.261262,-0.88,-9.74,-9.03,0.06,-0.01,-0.03
1746730013.277817,-0.7,-9.84,-9.01,0.04,-0.01,-0.03
1746730013.2861104,-0.72,-9.8,-8.95,0.03,0.0,-0.02
1746730013.2972038,-0.81,-9.7,-9.05,0.01,0.0,-0.02
1746730013.3370733,-0.82,-9.71,-9.04,-0.01,0.0,-0.02
1746730013.344585,-0.84,-9.66,-9.12,-0.01,-0.0,-0.02
1746730013.344585,-0.86,-9.68,-9.26,-0.0,-0.0,-0.03
1746730013.352583,-0.76,-9.72,-9.21,0.02,-0.0,-0.02
1746730013.3697228,-0.83,-9.75,-9.19,0.02,-0.0,-0.02
1746730013.3697228,-0.79,-9.78,-9.14,0.01,0.0,-0.01
1746730013.3774316,-0.78,-9.69,-9.12,-0.0,0.0,-0.01
1746730013.3774316,-0.85,-9.75,-9.11,-0.0,0.0,-0.01
1746730013.3858848,-0.87,-9.66,-9.17,0.0,0.0,-0.01
1746730013.394315,-0.83,-9.72,-9.18,0.0,-0.0,-0.02
1746730013.4023135,-0.89,-9.77,-9.22,-0.0,-0.0,-0.02
1746730013.4107206,-0.83,-9.71,-9.2,-0.02,-0.0,-0.02
1746730013.428393,-0.88,-9.77,-9.17,-0.01,-0.0,-0.01
1746730013.4359665,-0.79,-9.76,-9.22,-0.01,0.0,-0.01
1746730013.4937434,-0.8,-9.8,-9.17,0.0,0.0,-0.0
1746730013.4937434,-0.88,-9.83,-9.08,-0.02,0.0,0.0
1746730013.5017467,-0.89,-9.69,-9.31,-0.04,0.0,-0.01
1746730013.5017467,-0.98,-9.75,-9.31,-0.03,0.0,-0.01
1746730013.5017467,-0.94,-9.68,-9.32,-0.01,-0.01,-0.03
1746730013.5017467,-0.83,-9.75,-9.26,0.02,0.0,-0.02
1746730013.5099604,-0.86,-9.75,-9.2,0.03,0.01,-0.01
1746730013.517996,-0.79,-9.78,-9.07,0.02,0.02,-0.01
1746730013.5260465,-0.8,-9.8,-9.09,0.01,0.02,-0.0
1746730013.5343704,-0.82,-9.73,-9.23,-0.01,0.03,0.0
1746730013.5589788,-0.84,-9.78,-9.23,-0.0,0.03,0.01
1746730013.5589788,-0.93,-9.73,-9.29,0.0,0.02,0.01
1746730013.5673926,-0.85,-9.7,-9.19,-0.01,0.02,0.0
1746730013.5758302,-0.9,-9.7,-9.27,-0.02,0.01,-0.01
1746730013.5844676,-0.85,-9.73,-9.27,-0.02,0.01,-0.0
1746730013.592117,-0.92,-9.79,-9.29,-0.02,0.01,0.0
1746730013.608167,-0.87,-9.78,-9.17,-0.01,0.01,0.01
1746730013.6164434,-0.87,-9.77,-9.21,-0.02,0.02,0.01
1746730013.6248927,-0.94,-9.61,-9.25,-0.01,0.02,0.0
1746730013.6330793,-0.97,-9.75,-9.46,0.02,0.01,0.0
1746730013.6575866,-0.96,-9.7,-9.37,0.03,0.01,0.0
1746730013.665821,-0.92,-9.8,-9.31,0.03,0.01,-0.01
1746730013.665821,-0.96,-9.7,-9.35,0.02,0.01,-0.01
1746730013.6744497,-0.91,-9.72,-9.3,0.01,0.0,-0.01
1746730013.682454,-0.95,-9.75,-9.36,-0.0,0.01,-0.01
1746730013.690724,-0.92,-9.62,-9.5,0.02,0.0,-0.03
1746730013.7073412,-0.85,-9.77,-9.36,0.07,0.0,-0.02
1746730013.7156334,-0.94,-9.72,-9.2,0.08,0.0,-0.01
1746730013.7240422,-0.85,-9.74,-9.19,0.08,0.0,-0.01
1746730013.732043,-0.87,-9.77,-9.17,0.08,0.01,0.01
1746730013.7567923,-0.91,-9.77,-9.15,0.06,0.02,-0.0
1746730013.7567923,-0.85,-9.79,-9.16,0.04,0.02,-0.01
1746730013.7650607,-0.92,-9.81,-9.25,0.02,0.02,-0.01
1746730013.776094,-0.92,-9.73,-9.2,0.01,0.01,-0.02
1746730013.7837708,-0.97,-9.67,-9.24,0.02,0.0,-0.02
1746730013.7919168,-0.94,-9.73,-9.3,0.03,0.0,-0.02
1746730013.8085525,-0.86,-9.73,-9.24,0.04,0.0,-0.02
1746730013.816975,-0.89,-9.73,-9.15,0.04,0.01,-0.02
1746730013.8257685,-0.92,-9.68,-9.19,0.03,0.01,-0.02
1746730013.8353822,-0.86,-9.7,-9.14,0.02,0.01,-0.02
1746730013.883864,-0.99,-9.63,-9.46,0.01,0.0,-0.03
1746730013.883864,-0.91,-9.76,-9.35,0.05,-0.01,-0.03
1746730013.883864,-0.91,-9.73,-9.33,0.05,-0.0,-0.02
1746730013.8918636,-0.9,-9.84,-9.17,0.05,0.0,-0.02
1746730013.8918636,-0.9,-9.79,-9.08,0.03,-0.0,-0.02
1746730013.8918636,-0.9,-9.79,-9.14,0.02,0.0,-0.02
1746730013.9085352,-0.86,-9.75,-9.25,0.01,0.0,-0.02
1746730013.9169104,-0.91,-9.81,-9.25,0.02,0.0,-0.02
1746730013.9254296,-0.98,-9.65,-9.32,0.02,0.0,-0.02
1746730013.9340372,-0.93,-9.75,-9.26,0.03,0.0,-0.02
1746730013.9580765,-0.89,-9.76,-9.29,0.02,0.0,-0.02
1746730013.9580765,-0.9,-9.73,-9.19,0.02,0.01,-0.02
1746730013.966075,-0.87,-9.68,-9.27,0.03,0.0,-0.02
1746730013.974182,-0.93,-9.72,-9.21,0.03,0.0,-0.02
1746730013.982174,-0.89,-9.72,-9.29,0.02,-0.0,-0.03
1746730013.9985325,-0.91,-9.73,-9.36,0.02,-0.0,-0.03
1746730014.0067933,-0.95,-9.65,-9.32,0.04,-0.0,-0.03
1746730014.0152907,-0.87,-9.68,-9.24,0.07,-0.0,-0.03
1746730014.0238228,-0.95,-9.66,-9.19,0.08,-0.0,-0.03
1746730014.0319712,-0.85,-9.75,-9.13,0.06,-0.0,-0.03
1746730014.0891793,-0.91,-9.79,-9.22,0.05,0.0,-0.03
1746730014.0891793,-0.86,-9.69,-9.11,0.04,0.0,-0.03
1746730014.0974877,-0.94,-9.73,-9.13,0.04,0.0,-0.03
1746730014.0974877,-1.0,-9.74,-9.24,0.03,0.0,-0.03
1746730014.0974877,-0.95,-9.78,-9.39,0.03,0.0,-0.03
1746730014.0974877,-0.93,-9.72,-9.28,0.04,-0.0,-0.03
1746730014.1058931,-0.97,-9.64,-9.25,0.05,-0.0,-0.03
1746730014.11602,-0.9,-9.77,-9.28,0.07,-0.01,-0.04
1746730014.1236677,-0.91,-9.74,-9.25,0.07,-0.0,-0.03
1746730014.1317616,-0.87,-9.76,-9.19,0.07,-0.01,-0.03
1746730014.1564875,-0.84,-9.76,-9.11,0.07,-0.0,-0.02
1746730014.1647115,-0.85,-9.76,-9.12,0.07,0.0,-0.02
1746730014.1647115,-0.9,-9.77,-9.07,0.04,0.01,-0.02
1746730014.17554,-0.87,-9.71,-9.21,0.02,0.01,-0.02
1746730014.1832228,-0.9,-9.75,-9.25,0.01,0.01,-0.03
1746730014.1913602,-0.92,-9.71,-9.3,0.03,0.0,-0.02
1746730014.2078474,-0.88,-9.79,-9.24,0.04,-0.0,-0.03
1746730014.2163186,-0.91,-9.72,-9.27,0.05,0.0,-0.03
1746730014.2248585,-0.85,-9.68,-9.27,0.05,0.01,-0.02
1746730014.233198,-0.99,-9.67,-9.21,0.06,0.0,-0.03
1746730014.2824013,-0.89,-9.79,-9.19,0.06,0.0,-0.02
1746730014.2824013,-0.94,-9.7,-9.18,0.05,-0.0,-0.03
1746730014.2824013,-0.87,-9.74,-9.23,0.03,-0.0,-0.03
1746730014.2824013,-0.89,-9.74,-9.21,0.03,0.0,-0.03
1746730014.2905724,-0.9,-9.74,-9.09,0.03,0.01,-0.03
1746730014.2905724,-0.87,-9.78,-9.17,0.03,0.01,-0.03
1746730014.3074114,-0.9,-9.77,-9.16,0.03,0.01,-0.03
1746730014.315905,-0.86,-9.73,-9.21,0.03,0.01,-0.02
1746730014.324363,-0.98,-9.67,-9.17,0.02,0.01,-0.03
1746730014.3379903,-0.94,-9.67,-9.27,0.03,0.01,-0.03
1746730014.3675323,-1.0,-9.74,-9.33,0.03,-0.01,-0.03
1746730014.373087,-0.83,-9.71,-9.33,0.05,-0.0,-0.04
1746730014.373087,-0.84,-9.71,-9.18,0.06,0.0,-0.03
1746730014.373087,-0.86,-9.78,-9.14,0.05,0.01,-0.03
1746730014.3813362,-0.85,-9.78,-9.17,0.03,0.01,-0.02
1746730014.3980644,-0.88,-9.79,-9.07,0.01,0.01,-0.02
1746730014.406532,-0.86,-9.74,-9.23,0.0,0.0,-0.03
