timestamp,ax,ay,az,gx,gy,gz,roll,pitch_k,acc_norm,gyro_norm,classe_prevista_raw,classe_prevista,delay_ms
1777493486803,-0.0397949,0.996582,-0.2854,-3.25191,-2.51908,-2.50382,96.4328,2.00035,1.03741,4.81558,0,0,3.285
1777493486821,-0.048,1.001,-0.287,-2.412,-2.573,-1.756,101.236,2.317,1.042,3.939,0,0,6.250
1777493486835,-0.050,1.000,-0.275,-1.748,-2.244,-0.947,102.798,2.480,1.038,2.998,0,0,3.278
1777493486848,-0.044,0.997,-0.278,-1.405,-1.359,-0.908,103.693,2.473,1.036,2.155,0,0,3.277
1777493486861,-0.041,0.994,-0.273,-1.160,-1.000,-0.427,104.184,2.408,1.031,1.590,0,0,3.274
1777493486875,-0.039,0.990,-0.281,-0.992,-0.595,-0.420,104.657,2.333,1.030,1.231,0,0,3.264
1777493486888,-0.035,0.990,-0.295,-1.008,-0.611,-0.763,105.198,2.227,1.033,1.404,0,0,3.256
1777493486901,-0.024,0.987,-0.287,-1.122,-1.252,-1.496,105.473,1.989,1.028,2.251,0,0,3.244
1777493486915,-0.039,0.990,-0.283,-1.290,-1.901,-1.756,105.609,2.043,1.030,2.891,0,0,3.258
1777493486928,-0.038,0.996,-0.283,-1.076,-2.260,-2.504,105.673,2.053,1.036,3.540,0,0,3.248
1777493486941,-0.037,0.986,-0.287,-0.901,-2.397,-2.687,105.829,2.054,1.028,3.712,0,0,3.258
1777493486955,-0.035,0.984,-0.281,-1.168,-2.664,-2.672,105.864,2.027,1.024,3.950,0,0,3.258
1777493486968,-0.039,0.990,-0.286,-0.718,-3.206,-3.015,105.928,2.062,1.032,4.459,0,0,3.249
1777493486981,-0.049,0.988,-0.273,-0.901,-2.634,-2.237,105.799,2.238,1.026,3.571,0,0,3.305
1777493486995,-0.041,0.990,-0.289,-1.115,-2.840,-1.969,105.927,2.249,1.032,3.631,0,0,3.255
1777493487008,-0.041,0.979,-0.299,-1.298,-3.634,-2.069,106.208,2.262,1.024,4.378,0,0,3.273
1777493487022,-0.039,0.987,-0.279,-1.626,-3.458,-2.252,106.095,2.233,1.026,4.435,0,0,3.261
1777493487035,-0.045,0.980,-0.280,-1.733,-2.962,-2.008,106.046,2.307,1.021,3.976,0,0,3.266
1777493487048,-0.038,0.974,-0.287,-1.931,-2.855,-2.275,106.139,2.260,1.016,4.130,0,0,3.264
1777493487062,-0.042,0.982,-0.281,-2.053,-3.008,-2.466,106.102,2.290,1.022,4.398,0,0,3.259
1777493487075,-0.044,0.989,-0.271,-1.893,-3.191,-2.466,105.888,2.341,1.026,4.455,0,0,3.287
1777493487088,-0.043,0.999,-0.289,-1.565,-2.985,-2.611,105.953,2.355,1.041,4.263,0,0,3.272
1777493487102,-0.053,0.992,-0.275,-1.443,-3.366,-2.183,105.826,2.511,1.031,4.264,0,0,3.272
1777493487115,-0.054,0.996,-0.286,-1.496,-2.962,-1.863,105.879,2.642,1.037,3.805,0,0,3.270
1777493487128,-0.045,0.990,-0.280,-1.275,-2.969,-1.779,105.858,2.611,1.030,3.689,0,0,3.259
1777493487142,-0.050,1.004,-0.265,0.565,-2.603,-2.015,105.568,2.655,1.039,3.340,0,0,3.272
1777493487155,-0.054,0.990,-0.284,0.290,-2.099,-1.534,105.690,2.744,1.031,2.616,0,0,3.260
1777493487169,-0.034,0.981,-0.293,-0.206,-2.779,-2.099,105.946,2.512,1.025,3.489,0,0,3.295
1777493487182,-0.053,0.984,-0.282,-0.718,-3.038,-2.550,105.960,2.634,1.025,4.031,0,0,3.263
1777493487195,-0.047,0.982,-0.275,-1.023,-3.290,-2.611,105.879,2.629,1.021,4.323,1,1,3.995
1777493487209,-0.048,0.981,-0.266,-1.130,-3.985,-3.061,105.686,2.647,1.017,5.150,1,1,3.278
1777493487223,-0.059,0.998,-0.269,-1.061,-3.618,-2.893,105.526,2.809,1.035,4.753,1,1,3.280
1777493487236,-0.078,1.002,-0.275,-1.198,-3.611,-2.427,105.483,3.204,1.042,4.513,1,1,3.284
1777493487250,-0.097,1.000,-0.263,-0.710,-3.053,-1.473,105.283,3.785,1.039,3.464,1,1,3.262
1777493487263,-0.088,0.999,-0.266,-0.351,-1.740,-0.313,105.188,4.079,1.037,1.803,4,1,3.962
1777493487277,-0.076,0.982,-0.270,-0.137,-1.267,0.565,105.230,4.132,1.022,1.394,4,1,3.266
1777493487290,-0.067,0.987,-0.269,-0.115,-0.366,1.191,105.232,4.034,1.025,1.251,4,1,3.274
1777493487304,-0.053,0.979,-0.276,0.069,-0.611,1.405,105.368,3.754,1.019,1.533,4,1,3.259
1777493487317,-0.053,0.989,-0.278,-0.092,-0.641,1.260,105.451,3.537,1.029,1.416,4,1,3.252
1777493487330,-0.058,0.991,-0.272,0.206,-0.855,1.389,105.425,3.459,1.030,1.644,1,1,3.908
1777493487344,-0.053,0.991,-0.278,0.656,-1.191,1.511,105.490,3.324,1.030,2.033,1,1,3.262
1777493487358,-0.054,0.988,-0.278,1.229,-0.878,1.641,105.548,3.239,1.028,2.230,1,1,3.284
1777493487371,-0.051,0.985,-0.283,1.802,-0.901,1.847,105.680,3.130,1.026,2.733,1,1,3.261
1777493487385,-0.035,0.987,-0.279,2.305,-1.115,1.206,105.700,2.807,1.026,2.830,1,1,3.270
1777493487398,-0.042,0.995,-0.286,2.916,-1.214,1.183,105.787,2.684,1.036,3.373,1,1,3.888
1777493487412,-0.054,0.988,-0.291,3.595,-1.740,1.405,105.958,2.766,1.031,4.234,1,1,3.249
1777493487425,-0.053,0.985,-0.280,4.427,-1.733,1.618,105.937,2.815,1.026,5.022,1,1,3.264
1777493487439,-0.063,0.991,-0.283,5.427,-1.679,2.229,105.943,3.003,1.033,6.103,1,1,3.256
1777493487452,-0.055,1.005,-0.279,6.489,-2.412,1.366,105.821,3.013,1.044,7.056,1,1,3.259
1777493487465,-0.057,1.015,-0.276,7.939,-3.519,-0.496,105.661,3.035,1.054,8.698,1,1,3.884
1777493487479,-0.041,1.026,-0.279,10.282,-4.802,-3.809,105.545,2.812,1.064,11.971,1,1,3.259
1777493487493,-0.069,1.050,-0.272,13.427,-5.679,-6.321,105.273,3.034,1.087,15.890,1,1,3.267
1777493487506,-0.073,1.054,-0.265,16.099,-5.519,-6.649,104.956,3.248,1.090,18.272,1,1,3.265
1777493487519,-0.084,1.068,-0.270,20.832,-4.992,-5.794,104.749,3.545,1.105,22.192,1,1,3.284
1777493487533,-0.144,1.081,-0.291,24.603,-3.603,-3.893,104.828,4.568,1.129,25.168,4,1,3.930
1777493487547,-0.123,1.087,-0.295,29.802,-1.908,-1.603,104.925,5.018,1.133,29.906,4,1,3.276
1777493487560,-0.111,1.084,-0.280,35.397,-0.756,3.344,104.799,5.190,1.125,35.563,4,1,3.274
1777493487574,-0.090,1.083,-0.311,36.779,4.282,0.794,105.131,5.026,1.130,37.036,4,1,3.254
1777493487587,-0.124,1.117,-0.314,37.748,14.565,-12.893,105.288,5.320,1.167,42.465,4,1,3.274
1777493487600,-0.087,1.015,-0.238,33.046,23.527,-126.878,104.715,5.174,1.046,133.205,4,1,3.922
1777493487614,-0.017,1.347,-0.352,38.137,41.519,11.771,104.697,3.963,1.393,57.592,4,1,3.278
1777493487628,0.022,0.908,-0.416,51.519,22.153,-31.244,107.370,2.544,0.999,64.196,4,1,3.273
1777493487641,-0.214,1.225,-0.310,51.603,31.847,-22.832,106.518,4.458,1.282,64.795,4,1,3.269
1777493487655,-0.050,1.066,-0.330,52.237,36.901,-21.183,106.700,3.951,1.117,67.373,4,1,3.269
1777493487668,-0.006,1.090,-0.360,55.046,30.802,-23.473,107.123,2.963,1.147,67.304,4,1,3.916
1777493487682,-0.025,1.023,-0.372,55.473,27.168,-23.092,107.889,2.520,1.089,65.944,4,1,3.293
1777493487695,-0.019,1.026,-0.402,54.038,25.893,-25.458,108.834,2.100,1.102,65.105,4,1,3.263
1777493487710,-0.023,1.035,-0.425,55.634,17.573,-25.420,109.772,1.846,1.119,63.640,4,1,4.178
1777493487723,-0.020,1.000,-0.429,55.183,11.779,-24.702,110.704,1.632,1.088,61.596,4,1,3.267
1777493487736,-0.075,0.913,-0.352,51.496,7.908,-23.756,110.802,2.382,0.982,57.260,4,4,3.945
1777493487750,-0.080,0.862,-0.275,43.557,14.092,-15.595,109.958,3.109,0.908,48.363,4,4,3.271
1777493487764,-0.129,0.859,-0.213,36.275,10.260,-14.649,108.329,4.516,0.895,40.444,4,4,3.262
1777493487778,-0.253,0.703,-0.218,12.779,50.992,-3.191,108.038,8.424,0.778,52.666,4,4,4.541
1777493487792,-0.235,0.431,0.203,-19.687,40.618,12.962,96.361,13.247,0.531,46.962,4,4,3.268
1777493487806,0.218,1.016,0.087,-8.191,30.336,-0.053,93.318,6.404,1.043,31.422,4,4,4.860
1777493487820,-0.038,0.715,0.091,-29.389,45.031,11.191,90.459,5.481,0.721,54.925,4,4,3.273
1777493487834,-0.115,0.740,0.124,-43.878,42.443,12.504,87.761,6.349,0.759,62.314,4,4,3.257
1777493487847,-0.093,0.785,0.064,-53.580,45.397,11.794,87.108,6.447,0.793,71.210,4,4,3.273
1777493487860,-0.044,0.798,0.037,-64.779,40.351,13.282,87.179,5.561,0.800,77.466,4,4,3.261
1777493487874,-0.029,0.869,0.027,-72.076,29.580,10.412,87.463,4.567,0.870,78.603,5,4,4.054
1777493487888,-0.025,0.872,0.021,-77.420,14.061,5.282,87.768,3.770,0.873,78.863,5,4,3.265
1777493487902,-0.032,0.904,0.015,-81.649,-1.122,1.603,88.116,3.295,0.904,81.672,5,4,3.277
1777493487915,-0.063,0.906,-0.001,-85.725,-12.985,-2.557,88.641,3.484,0.908,86.741,5,4,3.264
1777493487929,-0.072,0.930,-0.014,-91.878,-23.840,-6.733,89.244,3.730,0.933,95.159,5,4,3.254
1777493487942,-0.062,1.011,-0.042,-94.649,-31.031,-7.771,90.098,3.677,1.014,99.908,5,4,3.956
1777493487956,-0.017,1.019,-0.074,-100.504,-39.359,-10.351,91.197,2.946,1.022,108.431,5,4,3.261
1777493487969,-0.031,1.050,-0.113,-109.076,-46.412,-9.198,92.533,2.608,1.057,118.896,5,4,3.273
1777493487983,-0.100,1.157,-0.151,-113.023,-49.206,-5.779,93.863,3.228,1.171,123.405,5,4,3.265
1777493487997,-0.150,1.213,-0.229,-109.939,-47.954,-4.092,95.711,4.230,1.243,120.012,5,4,3.740
1777493488010,-0.172,1.193,-0.289,-108.336,-46.481,-6.855,97.847,5.240,1.240,118.085,5,4,3.945
1777493488024,-0.235,1.222,-0.331,-105.679,-46.412,-8.221,99.818,6.663,1.288,115.714,5,4,3.260
1777493488037,-0.251,1.285,-0.385,-93.649,-43.321,-9.504,101.676,7.722,1.365,103.620,5,4,3.293
1777493488051,-0.264,1.332,-0.413,-74.153,-40.099,-8.206,103.179,8.533,1.419,84.699,5,4,3.269
1777493488064,-0.190,1.238,-0.443,-55.557,-35.046,-16.481,104.940,8.452,1.328,67.723,5,4,3.261
1777493488078,-0.145,1.052,-0.472,-53.366,-37.733,-29.008,107.433,8.109,1.162,71.507,5,4,3.931
1777493488092,-0.010,0.895,-0.499,-69.634,-53.504,-32.008,110.594,6.066,1.024,93.466,5,4,3.257
1777493488105,-0.143,1.080,-0.445,-68.405,-55.344,-23.076,111.085,6.307,1.177,90.965,5,4,3.286
1777493488118,-0.190,1.107,-0.479,-55.702,-47.664,-26.969,111.708,7.020,1.221,78.115,5,4,3.263
1777493488132,-0.247,1.034,-0.508,-46.527,-34.374,-16.015,112.904,8.393,1.178,60.023,5,4,3.260
1777493488145,-0.240,1.018,-0.470,-39.649,-19.008,-4.939,113.410,9.384,1.146,44.246,5,5,3.936
1777493488159,-0.269,1.037,-0.445,-28.878,1.160,0.275,113.360,10.470,1.160,28.902,5,5,3.264
1777493488172,-0.167,0.935,-0.436,-24.305,11.489,-4.656,113.810,10.133,1.045,27.284,5,5,3.278
1777493488186,-0.108,0.957,-0.396,-21.321,11.298,-5.053,113.460,9.007,1.041,24.652,5,5,3.256
1777493488200,-0.041,0.974,-0.396,-14.664,1.344,-7.611,113.106,7.173,1.052,16.576,5,5,3.810
1777493488213,-0.093,0.981,-0.406,-4.557,-6.641,-4.847,112.932,6.581,1.065,9.401,1,5,3.935
1777493488227,-0.107,0.949,-0.448,4.519,-12.397,-5.191,113.554,6.375,1.055,14.179,1,5,3.269
1777493488241,-0.164,0.988,-0.446,10.450,-12.611,3.275,113.753,6.974,1.097,16.702,1,5,3.273
1777493488254,-0.165,0.911,-0.495,23.275,-9.626,7.031,115.045,7.534,1.050,26.150,1,5,3.258
1777493488267,-0.228,1.002,-0.538,32.924,0.481,10.885,115.904,8.554,1.160,34.680,1,5,3.306
1777493488281,-0.162,0.876,-0.469,37.481,6.145,15.710,116.520,8.747,1.007,41.102,1,5,3.939
1777493488295,-0.138,0.934,-0.199,31.221,6.061,13.145,112.601,8.612,0.965,34.414,1,5,3.268
1777493488308,-0.261,1.451,0.427,28.321,3.412,17.817,102.062,8.930,1.535,33.632,1,5,3.270
1777493488321,-0.239,1.538,0.634,50.321,1.687,5.275,92.755,8.729,1.681,50.624,1,5,3.262
1777493488335,-0.106,0.920,-0.024,42.634,13.565,17.206,92.413,8.144,0.927,47.934,1,5,3.270
1777493488348,-0.109,0.997,-0.320,39.351,23.733,11.985,96.567,7.556,1.053,47.491,1,5,3.923
1777493488362,-0.100,0.929,-0.303,36.130,29.840,7.198,99.669,7.091,0.982,47.409,1,5,3.274
1777493488376,-0.084,0.978,-0.187,31.160,25.695,9.824,99.978,6.485,0.999,41.566,1,5,3.266
1777493488389,-0.063,0.962,-0.151,26.817,14.489,7.206,99.698,5.733,0.976,31.321,1,5,3.267
1777493488402,-0.154,1.006,-0.121,24.206,8.641,12.176,98.929,6.513,1.024,28.440,1,5,3.281
1777493488416,-0.178,0.983,-0.135,25.511,8.076,13.122,98.626,7.501,1.008,29.804,1,5,3.929
1777493488430,-0.148,0.961,-0.159,20.359,9.969,12.939,98.839,7.806,0.986,26.101,1,5,3.263
1777493488443,-0.084,0.991,-0.176,20.313,9.733,10.504,99.175,6.993,1.010,24.853,1,5,3.266
1777493488457,-0.074,0.997,-0.138,20.489,6.779,7.908,98.821,6.240,1.009,22.984,1,5,3.261
1777493488470,-0.105,1.001,-0.119,21.244,6.527,7.542,98.276,6.168,1.014,23.469,1,5,3.294
1777493488483,-0.124,1.001,-0.144,21.198,7.420,6.939,98.255,6.382,1.019,23.507,1,1,3.948
1777493488497,-0.126,0.994,-0.168,20.130,7.969,6.244,98.613,6.587,1.016,22.532,1,1,3.268
1777493488511,-0.131,0.993,-0.166,19.458,7.748,7.626,98.843,6.808,1.015,22.289,1,1,3.264
1777493488524,-0.131,0.986,-0.169,18.977,7.351,9.733,99.081,6.979,1.009,22.559,1,1,3.259
1777493488537,-0.109,0.994,-0.158,18.321,7.260,10.786,99.071,6.765,1.012,22.465,1,1,3.287
1777493488551,-0.080,1.003,-0.174,19.069,5.893,10.534,99.281,6.146,1.021,22.568,1,1,3.939
1777493488565,-0.087,1.006,-0.168,19.870,6.908,10.412,99.330,5.797,1.024,23.473,1,1,3.274
1777493488578,-0.090,1.012,-0.130,17.115,6.725,8.847,98.782,5.598,1.024,20.406,1,1,3.258
1777493488592,-0.053,1.017,-0.137,19.756,7.786,5.359,98.485,4.888,1.027,21.900,1,1,3.257
1777493488605,-0.032,0.999,-0.188,20.679,7.954,3.237,99.068,4.062,1.017,22.392,1,1,3.275
1777493488618,-0.041,0.989,-0.219,20.267,5.412,0.473,100.000,3.595,1.014,20.983,1,1,3.970
1777493488632,-0.107,0.988,-0.220,16.405,3.557,1.053,100.684,4.256,1.018,16.819,1,1,3.274
1777493488646,-0.104,0.958,-0.166,18.137,7.824,7.832,100.451,4.764,0.977,21.249,1,1,3.266
1777493488659,-0.143,0.990,-0.198,18.168,10.885,11.550,100.691,5.649,1.019,24.124,1,1,3.261
1777493488673,-0.110,0.993,-0.218,13.969,11.466,12.321,101.152,5.785,1.023,21.872,1,1,3.274
1777493488686,-0.130,0.992,-0.206,13.473,14.397,16.504,101.308,6.203,1.022,25.713,1,1,3.920
1777493488700,-0.162,0.975,-0.221,15.992,18.061,22.260,101.708,7.020,1.012,32.824,1,1,3.274
1777493488713,-0.049,0.996,-0.228,18.366,18.649,23.198,102.022,5.859,1.023,34.975,1,1,3.268
1777493488727,-0.031,0.994,-0.241,20.130,16.336,20.038,102.456,4.753,1.023,32.766,1,1,3.254
1777493488740,0.037,0.996,-0.240,21.008,12.847,14.473,102.751,2.905,1.025,28.563,1,1,3.280
1777493488753,0.037,0.999,-0.247,20.924,7.229,3.954,103.064,1.566,1.030,22.488,1,1,3.938
1777493488767,-0.024,0.996,-0.246,20.718,3.580,-2.076,103.287,1.507,1.026,21.127,1,1,3.266
1777493488781,-0.030,1.001,-0.243,19.534,0.534,-5.924,103.387,1.551,1.030,20.420,1,1,3.267
1777493488794,-0.059,0.991,-0.263,19.511,-1.313,-8.420,103.786,2.016,1.027,21.291,1,1,3.258
1777493488808,-0.090,1.002,-0.249,19.481,-1.641,-8.824,103.824,2.811,1.036,21.449,1,1,3.269
1777493488821,-0.086,0.991,-0.264,19.260,-1.809,-9.260,104.116,3.343,1.029,21.446,1,1,3.937
1777493488835,-0.069,1.001,-0.266,18.122,-2.580,-10.053,104.327,3.470,1.038,20.884,1,1,3.269
1777493488848,-0.094,1.000,-0.261,18.435,-2.832,-10.489,104.407,3.940,1.038,21.398,1,1,3.265
1777493488862,-0.087,0.988,-0.273,18.534,-2.275,-9.366,104.694,4.185,1.029,20.891,1,1,3.254
1777493488875,-0.095,0.985,-0.271,18.275,-1.489,-7.550,104.878,4.490,1.026,19.829,1,1,3.277
1777493488888,-0.133,0.973,-0.275,17.374,0.634,-3.679,105.120,5.305,1.020,17.771,1,1,3.929
1777493488902,-0.081,1.002,-0.280,17.115,1.687,-1.519,105.251,5.069,1.043,17.264,1,1,3.275
1777493488916,-0.097,0.994,-0.271,16.634,3.924,2.053,105.244,5.155,1.035,17.213,1,1,3.267
1777493488929,-0.110,0.993,-0.285,16.802,7.366,8.168,105.449,5.409,1.039,20.082,1,1,3.259
1777493488943,-0.153,0.989,-0.281,17.298,13.046,14.130,105.560,6.235,1.040,25.866,1,1,3.288
1777493488956,-0.071,0.972,-0.308,17.427,14.084,17.756,106.107,5.620,1.022,28.589,1,1,3.939
1777493488970,-0.071,0.975,-0.311,16.847,13.573,18.473,106.535,5.178,1.026,28.448,1,1,3.272
1777493488983,-0.056,0.952,-0.310,17.015,12.435,18.290,106.936,4.650,1.002,27.905,1,1,3.273
1777493488997,-0.062,0.972,-0.327,16.840,11.931,19.038,107.387,4.325,1.028,28.078,1,1,3.260
1777493489010,-0.068,0.964,-0.328,15.710,10.954,17.534,107.767,4.183,1.021,25.966,1,1,3.291
1777493489024,-0.021,0.968,-0.336,14.130,7.611,12.023,108.141,3.370,1.025,20.053,1,1,3.933
1777493489038,-0.012,0.972,-0.330,13.221,5.374,8.687,108.306,2.643,1.027,16.708,1,1,3.259
1777493489051,-0.019,0.982,-0.332,12.840,4.160,6.603,108.413,2.214,1.037,15.026,1,1,3.272
1777493489064,-0.042,0.982,-0.327,12.519,4.176,6.160,108.419,2.236,1.036,14.564,1,1,3.270
1777493489078,-0.020,0.975,-0.334,11.916,3.183,5.275,108.547,1.929,1.031,13.414,1,1,3.308
1777493489091,-0.048,0.989,-0.342,11.191,3.183,4.947,108.690,2.122,1.048,12.643,1,1,3.929
1777493489105,-0.047,0.986,-0.338,10.733,3.336,6.023,108.750,2.245,1.043,12.751,1,1,3.268
1777493489119,-0.041,0.979,-0.357,8.718,2.733,5.267,109.101,2.247,1.043,10.545,1,1,3.269
1777493489132,-0.041,0.969,-0.347,6.473,2.511,4.527,109.267,2.260,1.031,8.289,1,1,3.259
1777493489145,-0.022,0.977,-0.339,4.847,1.718,3.534,109.225,1.986,1.035,6.240,1,1,3.274
1777493489159,-0.021,0.984,-0.345,4.176,1.687,2.550,109.252,1.754,1.043,5.175,1,1,3.934
1777493489173,-0.032,0.971,-0.348,3.603,1.168,1.840,109.372,1.763,1.032,4.211,1,1,3.268
1777493489186,-0.047,0.977,-0.350,3.641,1.740,2.076,109.461,1.986,1.039,4.539,1,1,3.271
1777493489199,-0.042,0.977,-0.358,3.740,1.710,2.344,109.638,2.070,1.041,4.734,1,1,3.258
1777493489213,-0.031,0.970,-0.349,3.595,2.176,2.389,109.685,1.976,1.031,4.834,1,1,3.269
1777493489226,-0.024,0.976,-0.355,3.153,1.145,1.687,109.765,1.806,1.039,3.755,1,1,3.928
1777493489240,-0.034,0.973,-0.350,3.573,1.221,1.527,109.773,1.826,1.035,4.073,1,1,3.274
1777493489254,-0.015,0.962,-0.356,3.924,0.977,1.061,109.919,1.565,1.026,4.180,1,1,3.280
1777493489267,0.013,0.980,-0.339,4.580,0.756,0.710,109.691,0.945,1.037,4.696,1,1,3.256
1777493489280,-0.021,0.988,-0.348,5.649,-0.038,1.061,109.618,0.993,1.048,5.748,1,1,3.277
1777493489294,-0.041,0.996,-0.346,7.061,0.260,2.076,109.497,1.330,1.056,7.365,1,1,3.922
1777493489308,-0.025,0.984,-0.362,7.817,0.130,2.718,109.683,1.334,1.049,8.277,1,1,3.257
1777493489321,-0.043,0.965,-0.369,8.168,0.710,3.008,110.019,1.617,1.034,8.733,1,1,3.300
1777493489335,-0.033,0.965,-0.367,8.588,1.107,3.740,110.230,1.670,1.033,9.432,1,1,3.260
1777493489348,-0.040,0.965,-0.356,9.076,1.458,4.229,110.241,1.825,1.030,10.119,1,1,3.269
1777493489361,-0.031,0.964,-0.359,9.580,2.015,4.992,110.288,1.791,1.029,10.989,1,1,3.921
1777493489375,-0.022,0.950,-0.367,9.565,2.366,4.748,110.514,1.649,1.018,10.938,1,1,3.267
1777493489389,-0.021,0.936,-0.366,8.779,2.267,4.366,110.736,1.527,1.005,10.063,1,1,3.265
1777493489402,0.005,0.934,-0.383,7.107,1.679,3.504,111.160,1.036,1.010,8.100,1,1,3.268
1777493489415,0.007,0.988,-0.380,5.015,0.267,3.282,111.127,0.649,1.058,6.000,1,1,3.265
1777493489429,-0.011,1.000,-0.383,4.275,-1.710,3.076,111.080,0.629,1.071,5.537,4,1,3.939
1777493489443,-0.071,0.954,-0.368,4.336,-1.221,3.985,111.090,1.533,1.025,6.014,4,1,3.256
1777493489456,0.037,0.928,-0.370,5.092,-1.328,2.527,111.266,0.548,1.000,5.837,4,1,3.273
1777493489469,0.020,0.921,-0.370,5.519,-1.863,0.786,111.434,0.084,0.992,5.878,4,1,3.270
1777493489483,0.010,0.954,-0.384,5.542,-2.794,0.733,111.565,-0.086,1.029,6.250,4,1,3.259
1777493489496,-0.062,0.990,-0.385,6.771,-1.397,2.832,111.482,0.833,1.064,7.471,4,1,3.960
1777493489510,-0.101,1.013,-0.374,9.939,1.160,8.145,111.146,2.053,1.085,12.902,4,1,3.264
1777493489524,0.100,1.011,-0.408,11.817,1.153,9.473,111.376,0.081,1.095,15.189,4,1,3.771
1777493489538,-0.040,1.018,-0.395,11.939,1.008,11.435,111.334,0.623,1.093,16.562,4,1,3.266
1777493489551,-0.027,1.045,-0.400,13.710,1.740,12.672,111.234,0.823,1.119,18.750,4,1,3.253
1777493489564,-0.040,1.037,-0.391,15.206,2.885,14.015,111.075,1.163,1.109,20.880,4,1,3.949
1777493489578,-0.003,1.035,-0.407,17.061,3.122,14.702,111.179,0.893,1.112,22.737,4,1,3.270
1777493489592,-0.005,1.061,-0.394,19.374,2.634,14.695,110.957,0.725,1.131,24.459,4,1,3.262
1777493489605,-0.055,1.063,-0.404,22.786,3.145,16.191,110.911,1.283,1.139,28.129,4,1,3.268
1777493489618,-0.039,1.057,-0.412,25.802,2.954,18.664,111.017,1.466,1.136,31.981,4,1,3.247
1777493489632,-0.842,-2.377,-0.341,17.244,3.130,-30.985,54.509,6.288,2.545,35.598,4,1,3.896
1777493489646,0.320,0.696,-0.538,34.214,3.733,7.481,74.281,-0.803,0.936,35.220,4,1,3.268
1777493489659,-0.093,1.061,-0.364,33.618,13.588,14.336,83.645,0.687,1.126,38.991,4,1,3.257
1777493489672,0.066,1.019,-0.422,37.321,13.580,15.473,91.433,-0.419,1.105,42.622,4,1,3.272
1777493489686,0.061,1.038,-0.428,40.122,11.336,17.496,97.103,-1.150,1.124,45.215,4,1,3.255
1777493489699,0.107,1.002,-0.427,41.634,10.198,15.542,101.424,-2.356,1.095,45.595,4,4,3.898
1777493489713,0.184,0.979,-0.437,42.527,6.908,16.206,104.834,-4.346,1.087,46.031,4,4,3.265
1777493489727,0.219,0.969,-0.448,42.443,0.916,17.275,107.527,-6.309,1.090,45.833,4,4,3.257
1777493489740,0.172,0.970,-0.448,42.786,-4.573,18.519,109.490,-7.069,1.083,46.846,4,4,3.294
1777493489753,0.141,0.964,-0.472,43.511,-8.107,18.611,111.275,-7.183,1.083,48.014,4,4,3.290
1777493489767,0.111,0.960,-0.482,44.046,-10.901,17.908,112.729,-6.830,1.080,48.781,4,4,3.900
1777493489781,0.118,0.933,-0.490,44.145,-13.611,15.504,114.072,-6.709,1.061,48.728,4,4,3.252
1777493489794,0.089,0.938,-0.501,44.527,-17.809,12.489,115.160,-6.184,1.067,49.556,4,4,3.280
1777493489807,0.070,0.947,-0.509,45.038,-20.305,9.519,115.999,-5.514,1.078,50.313,4,4,3.284
1777493489821,0.049,0.958,-0.520,45.496,-18.939,13.305,116.667,-4.714,1.091,51.045,4,4,3.300
1777493489834,0.007,0.949,-0.534,46.450,-17.748,14.962,117.398,-3.534,1.089,51.928,4,4,3.966
1777493489848,-0.041,0.952,-0.544,47.740,-16.115,14.038,118.038,-1.997,1.097,52.306,4,4,3.278
1777493489862,-0.076,0.962,-0.563,49.092,-13.405,12.015,118.668,-0.408,1.117,52.288,4,4,3.254
1777493489875,-0.091,0.940,-0.567,50.885,-8.748,9.962,119.325,0.980,1.102,52.584,4,4,3.263
1777493489888,-0.056,0.935,-0.571,53.153,-6.115,4.763,119.887,1.511,1.097,53.715,4,4,3.273
1777493489902,-0.030,0.954,-0.570,55.534,-4.122,-1.802,120.145,1.518,1.112,55.716,4,4,3.919
1777493489916,0.002,0.944,-0.569,58.534,-3.939,-9.916,120.395,1.073,1.102,59.499,4,4,3.300
1777493489929,0.030,0.971,-0.570,62.252,-3.550,-16.344,120.396,0.371,1.126,64.459,4,4,3.252
1777493489943,0.059,0.986,-0.588,65.389,-2.466,-16.214,120.509,-0.522,1.149,67.415,4,4,3.258
1777493489956,0.032,1.000,-0.595,68.985,-2.328,-13.718,120.574,-0.813,1.165,70.374,4,4,3.264
1777493489969,-0.027,1.005,-0.607,72.672,0.099,-15.779,120.721,-0.233,1.175,74.365,4,4,3.866
1777493489983,-0.089,1.036,-0.603,77.305,4.305,-17.084,120.581,0.982,1.202,79.288,4,4,3.270
1777493489997,-0.116,1.045,-0.604,82.771,11.687,-16.443,120.433,2.203,1.212,85.194,4,4,3.263
1777493490010,-0.160,1.082,-0.603,89.603,20.679,-12.359,120.076,3.595,1.249,92.785,4,4,3.254
1777493490023,-0.198,1.103,-0.596,97.206,34.176,-11.328,119.627,5.049,1.269,103.660,4,4,3.292
1777493490037,-0.212,1.070,-0.585,106.328,45.947,-10.794,119.369,6.352,1.237,116.333,4,4,3.956
1777493490051,-0.178,1.040,-0.634,117.771,55.855,-14.130,119.907,6.880,1.230,131.108,4,4,3.259
1777493490064,-0.182,1.009,-0.742,130.290,70.145,-23.702,121.644,7.259,1.266,149.859,4,4,3.268
1777493490078,-0.007,0.956,-0.879,140.504,75.939,-34.756,124.602,5.385,1.298,163.450,4,4,3.255
1777493490091,0.074,0.852,-0.879,142.267,69.885,-40.412,127.657,2.999,1.227,163.576,4,4,3.272
1777493490104,0.162,0.923,-0.840,147.305,63.031,-46.656,128.911,0.196,1.259,166.879,4,4,3.919
1777493490118,0.274,0.664,-0.938,107.763,9.290,-66.817,133.175,-3.485,1.181,127.137,4,4,3.263
1777493490132,-0.190,0.687,-0.670,102.649,22.450,-66.336,133.484,0.481,0.978,124.263,4,4,3.319
1777493490145,-0.236,0.413,-0.528,75.183,31.786,-41.664,135.769,5.594,0.710,91.645,4,4,3.262
1777493490159,-0.569,0.050,-0.173,14.489,63.290,-39.092,143.407,23.648,0.597,75.787,4,4,3.258
1777493490172,-0.185,0.494,0.233,-51.939,96.802,-13.305,122.168,22.304,0.577,110.658,4,4,3.925
1777493490186,0.173,0.210,0.209,-74.695,108.000,12.679,101.374,8.092,0.344,131.924,4,4,3.269
1777493490199,-0.317,0.736,0.276,-86.229,124.473,0.466,92.754,11.847,0.847,151.424,4,4,3.282
1777493490213,0.179,0.398,0.158,-98.206,132.359,-3.069,86.159,2.518,0.465,164.841,4,4,3.270
1777493490226,0.152,0.426,0.198,-127.122,121.412,-15.153,80.473,-3.000,0.494,176.439,4,4,3.264
1777493490240,0.273,0.446,0.189,-155.756,100.710,-26.344,76.838,-10.138,0.556,187.340,4,4,4.055
1777493490254,0.247,0.656,0.185,-174.878,73.672,-29.947,76.150,-12.786,0.725,192.111,4,4,3.258
1777493490267,0.211,0.867,0.081,-174.740,52.450,-28.748,78.458,-13.017,0.896,184.694,4,4,3.255
1777493490280,0.141,0.917,-0.016,-171.191,33.695,-34.107,81.840,-11.864,0.928,177.778,4,4,3.260
1777493490294,0.092,0.927,-0.039,-172.817,16.779,-44.038,84.701,-10.190,0.932,179.127,4,4,3.255
1777493490307,0.032,0.978,-0.070,-178.756,7.153,-53.099,87.244,-7.938,0.981,186.613,5,4,3.923
1777493490321,0.095,1.064,-0.122,-185.687,-3.298,-61.840,89.760,-7.166,1.075,195.741,5,4,3.263
1777493490334,0.138,1.193,-0.142,-188.206,-18.191,-64.969,91.660,-7.003,1.209,199.934,5,4,3.277
1777493490348,0.184,1.270,-0.205,-190.267,-31.511,-75.664,93.693,-7.314,1.300,207.171,5,4,3.271
1777493490361,0.239,1.370,-0.285,-192.382,-41.267,-72.916,95.865,-7.956,1.420,209.834,5,4,3.251
1777493490375,0.326,1.447,-0.332,-191.534,-52.611,-67.954,97.770,-9.157,1.520,209.931,5,4,3.892
1777493490389,0.303,1.480,-0.363,-189.916,-64.588,-64.038,99.389,-9.721,1.554,210.572,5,4,3.268
1777493490402,0.213,1.514,-0.386,-185.359,-71.405,-58.481,100.721,-9.191,1.577,207.066,5,4,3.255
1777493490415,0.110,1.552,-0.428,-177.206,-72.061,-54.626,101.989,-7.767,1.614,198.944,5,4,3.271
1777493490429,0.068,1.569,-0.515,-164.756,-72.740,-53.969,103.664,-6.305,1.652,188.012,5,4,3.263
1777493490442,0.013,1.562,-0.581,-152.023,-73.718,-53.847,105.481,-4.724,1.666,177.327,5,4,3.932
1777493490456,0.024,1.492,-0.641,-139.328,-79.221,-52.794,107.580,-3.673,1.624,168.747,5,4,3.269
1777493490469,0.097,1.298,-0.696,-138.267,-94.855,-58.504,110.446,-3.695,1.476,177.589,5,4,3.248
1777493490483,0.036,1.321,-0.669,-142.168,-106.611,-48.550,112.178,-3.070,1.481,184.214,5,4,3.264
1777493490496,0.078,1.409,-0.697,-129.466,-113.527,-46.183,113.295,-3.007,1.574,178.277,5,4,3.265
1777493490510,0.111,1.338,-0.746,-114.336,-116.099,-39.618,114.877,-3.315,1.536,167.694,5,4,3.878
1777493490524,0.118,1.251,-0.784,-102.710,-117.206,-28.733,116.819,-3.653,1.481,158.468,5,4,3.299
1777493490537,0.003,1.222,-0.772,-93.336,-107.153,-20.771,118.296,-2.700,1.445,143.613,5,4,3.264
1777493490550,-0.047,1.215,-0.784,-77.710,-91.435,-14.947,119.521,-1.464,1.447,120.924,5,4,3.267
1777493490564,-0.072,1.170,-0.844,-59.405,-75.282,-12.061,121.223,-0.296,1.445,96.653,5,4,3.267
1777493490577,-0.062,0.949,-0.927,-50.122,-61.137,-16.176,124.764,0.513,1.328,80.695,1,5,3.879
1777493490591,-0.098,0.987,-0.905,-44.260,-45.962,-11.160,126.864,1.507,1.343,64.776,1,5,3.269
1777493490604,-0.060,1.033,-0.930,-24.527,-35.321,-11.206,128.247,1.771,1.391,44.437,1,5,3.265
1777493490618,-0.049,0.940,-0.950,-8.733,-28.595,-16.038,130.153,1.855,1.337,33.929,1,5,3.253
1777493490631,-0.002,0.906,-0.924,2.092,-27.687,-15.718,131.622,1.377,1.294,31.906,1,5,3.314
1777493490645,-0.037,0.925,-0.854,13.618,-27.748,-12.298,131.925,1.461,1.260,33.266,1,5,3.946
1777493490659,-0.037,0.970,-0.816,31.466,-26.550,-11.076,131.422,1.516,1.268,42.634,1,5,3.262
1777493490672,-0.027,0.915,-0.760,43.099,-31.595,-10.145,130.965,1.459,1.190,54.394,1,5,3.274
1777493490685,-0.063,0.897,-0.651,47.954,-41.519,-12.298,129.616,1.950,1.111,64.612,1,5,3.263
1777493490699,-0.101,0.934,-0.583,56.145,-49.702,-10.374,127.552,2.844,1.106,75.698,1,5,3.261
1777493490712,-0.139,0.935,-0.551,65.359,-60.550,-14.183,125.644,4.053,1.094,90.217,1,5,3.926
1777493490726,0.006,-0.042,-0.266,45.725,-55.939,-19.977,45.469,2.635,0.269,74.960,1,5,3.258
1777493490740,-0.163,2.557,1.813,-18.603,-90.954,7.015,47.955,2.726,3.139,93.102,1,5,3.294
1777493490753,-0.848,3.620,2.845,67.107,-82.031,3.702,49.003,4.807,4.682,106.047,1,5,3.258
1777493490766,0.198,0.197,0.133,62.595,-75.962,7.595,50.862,-7.262,0.310,98.722,1,5,3.254
1777493490780,0.131,1.237,-0.751,60.695,-29.489,24.397,69.882,-6.696,1.453,71.754,1,5,3.913
1777493490794,0.069,0.871,-0.885,96.321,-34.519,-27.122,87.605,-5.741,1.244,105.853,1,5,3.273
1777493490807,0.177,0.856,-0.417,79.229,-27.756,-40.359,95.262,-7.028,0.968,93.147,1,5,3.257
1777493490820,-0.123,0.904,0.086,25.092,-5.206,-31.168,92.365,-3.040,0.916,40.350,1,5,3.274
1777493490834,-0.371,1.010,-0.127,23.328,18.931,-20.550,93.657,3.194,1.084,36.399,1,5,3.252
1777493490847,-0.044,0.969,-0.292,25.603,16.855,-26.809,97.201,3.003,1.014,40.723,1,1,4.001
1777493490861,-0.264,0.964,-0.124,18.618,1.710,-16.336,97.237,6.301,1.007,24.828,1,1,3.258
1777493490875,-0.255,0.960,-0.173,17.771,-5.450,2.145,98.048,8.552,1.008,18.711,1,1,3.252
1777493490888,-0.311,0.939,-0.125,17.481,-0.573,16.115,97.925,11.146,0.997,23.782,1,1,3.291
1777493490901,-0.335,0.999,-0.046,20.427,13.145,33.550,96.491,13.137,1.054,41.420,1,1,3.263
1777493490915,-0.255,0.998,-0.073,22.557,20.344,47.351,95.864,13.455,1.033,56.257,1,1,3.912
1777493490929,-0.125,0.996,-0.127,19.115,17.382,48.878,96.249,11.744,1.012,55.286,1,1,3.274
1777493490942,-0.034,0.981,-0.176,10.511,11.908,43.802,97.302,9.106,0.997,46.593,1,1,3.257
1777493490955,0.059,1.000,-0.176,8.695,14.527,24.328,98.031,5.742,1.017,29.639,1,1,3.265
1777493490969,0.113,1.015,-0.166,8.656,13.481,3.832,98.371,2.500,1.034,16.473,1,1,3.260
1777493490982,0.073,1.015,-0.160,6.519,7.412,-7.824,98.529,0.734,1.030,12.596,1,1,3.882
1777493490996,0.000,1.006,-0.161,4.336,5.115,-10.427,98.679,0.528,1.019,12.397,1,1,3.280
1777493491010,-0.083,1.018,-0.139,0.489,4.473,-5.496,98.440,1.629,1.031,7.103,1,1,3.264
1777493491023,-0.111,1.029,-0.116,6.260,5.817,3.145,97.900,2.846,1.042,9.105,1,1,3.287
1777493491036,-0.152,1.010,-0.125,11.443,8.809,11.824,97.679,4.369,1.029,18.664,1,1,3.302
1777493491050,-0.169,1.002,-0.138,15.458,14.031,17.939,97.723,5.748,1.025,27.525,1,1,3.954
1777493491064,-0.169,1.001,-0.133,17.282,18.924,27.656,97.686,6.757,1.024,37.705,1,1,3.258
1777493491077,-0.112,0.976,-0.137,19.328,21.992,32.137,97.771,6.684,0.992,43.475,1,1,3.273
1777493491090,-0.054,0.984,-0.175,19.733,21.573,31.076,98.401,5.717,1.001,42.667,1,1,3.260
1777493491104,0.026,0.979,-0.229,20.206,17.237,22.634,99.686,3.774,1.005,34.895,1,1,3.276
1777493491117,0.051,1.002,-0.214,19.733,13.763,14.931,100.331,1.992,1.026,28.315,1,1,3.939
1777493491131,0.028,1.021,-0.191,20.206,10.908,8.847,100.397,1.039,1.039,24.608,1,1,3.256
1777493491145,0.019,1.008,-0.187,21.466,9.153,6.023,100.427,0.478,1.026,24.100,1,1,3.270
1777493491158,0.070,0.978,-0.197,20.840,5.008,1.519,100.683,-0.732,1.000,21.487,1,1,3.264
1777493491171,0.024,0.991,-0.204,19.840,3.634,-2.710,100.944,-0.904,1.012,20.351,1,1,3.254
1777493491185,-0.006,0.984,-0.221,18.695,2.550,-4.443,101.411,-0.566,1.008,19.384,1,1,3.899
1777493491199,-0.033,0.962,-0.220,16.878,1.534,-4.718,101.811,0.107,0.988,17.592,1,1,3.252
1777493491212,-0.033,0.983,-0.223,14.710,1.260,-5.542,102.068,0.581,1.008,15.770,1,1,3.260
1777493491225,-0.032,0.991,-0.226,13.092,0.023,-7.107,102.272,0.911,1.017,14.896,1,1,3.266
1777493491239,-0.022,0.996,-0.215,11.725,-0.832,-8.038,102.245,1.002,1.019,14.240,1,1,3.258
1777493491253,-0.038,1.002,-0.214,11.702,-1.511,-8.878,102.188,1.303,1.025,14.766,1,1,4.386
1777493491267,-0.030,1.010,-0.208,12.985,-1.260,-9.160,102.046,1.394,1.032,15.941,1,1,3.257
1777493491280,-0.027,0.987,-0.238,13.992,-1.511,-10.542,102.446,1.430,1.016,17.584,1,1,3.270
1777493491293,0.002,0.993,-0.224,14.252,-2.618,-12.969,102.524,1.018,1.018,19.447,1,1,3.271
1777493491307,-0.016,1.000,-0.238,14.389,-4.176,-16.206,102.751,0.989,1.028,22.071,1,1,3.253
1777493491320,-0.040,1.000,-0.243,14.336,-5.336,-17.214,103.000,1.327,1.030,23.028,1,1,3.888
1777493491334,-0.068,0.990,-0.232,13.679,-5.901,-16.603,103.056,2.007,1.020,22.307,1,1,3.267
1777493491347,-0.095,0.991,-0.236,12.603,-4.313,-12.779,103.152,2.907,1.023,18.459,1,1,3.256
1777493491361,-0.131,0.991,-0.236,11.779,-1.878,-6.893,103.221,4.102,1.027,13.776,1,1,3.264
1777493491374,-0.114,1.004,-0.241,11.527,0.672,-3.427,103.295,4.700,1.039,12.044,1,1,3.256
1777493491388,-0.105,0.992,-0.245,11.809,1.763,0.107,103.457,5.018,1.027,11.941,1,1,3.873
1777493491402,-0.090,0.993,-0.252,11.649,3.107,2.305,103.675,5.017,1.028,12.274,1,1,3.268
1777493491415,-0.080,0.994,-0.258,11.611,3.031,3.344,103.906,4.866,1.030,12.457,1,1,3.258
1777493491428,-0.079,1.001,-0.259,11.542,3.282,4.786,104.068,4.737,1.037,12.919,1,1,3.249
1777493491442,-0.092,0.988,-0.259,11.893,3.931,6.107,104.236,4.844,1.026,13.935,1,1,3.270
1777493491455,-0.096,0.988,-0.260,12.863,5.046,7.954,104.380,4.985,1.026,15.943,1,1,3.898
1777493491469,-0.083,1.011,-0.257,14.275,6.687,12.634,104.343,4.875,1.046,20.201,1,1,3.251
1777493491482,-0.078,1.002,-0.262,16.344,8.008,13.519,104.427,4.727,1.038,22.672,1,1,3.263
1777493491496,-0.060,0.980,-0.280,16.336,7.901,15.389,104.830,4.357,1.021,23.793,1,1,3.254
1777493491509,-0.048,0.983,-0.280,16.031,7.405,15.939,105.122,3.900,1.023,23.788,1,1,3.257
1777493491522,-0.030,0.968,-0.282,15.580,6.481,14.344,105.432,3.308,1.009,22.147,1,1,3.888
1777493491536,0.001,0.997,-0.281,15.824,6.000,12.351,105.512,2.396,1.036,20.951,1,1,3.260
1777493491550,-0.017,0.980,-0.282,15.534,5.382,10.313,105.662,2.004,1.020,19.407,1,1,3.263
1777493491563,-0.038,0.976,-0.301,15.176,4.481,8.618,106.065,2.036,1.022,18.018,1,1,3.256
1777493491576,-0.035,0.975,-0.299,13.771,4.260,8.595,106.336,2.012,1.020,16.783,1,1,3.248
1777493491590,-0.020,0.974,-0.317,12.000,3.511,7.099,106.792,1.764,1.024,14.378,1,1,3.894
1777493491604,-0.048,0.973,-0.315,10.809,3.183,6.962,107.099,2.018,1.023,13.245,1,1,3.270
1777493491617,-0.034,0.985,-0.310,9.756,3.656,6.641,107.200,1.982,1.033,12.355,1,1,3.251
1777493491631,-0.018,0.991,-0.319,8.855,3.260,5.145,107.367,1.718,1.041,10.747,1,1,3.265
1777493491644,-0.010,0.985,-0.313,7.771,2.580,3.557,107.440,1.404,1.034,8.927,1,1,3.251
1777493491657,-0.024,0.981,-0.313,6.710,1.756,3.641,107.508,1.384,1.030,7.834,1,1,3.884
1777493491671,-0.015,0.993,-0.309,6.122,1.832,3.107,107.454,1.236,1.040,7.106,1,1,3.266
1777493491685,-0.012,0.984,-0.329,5.527,1.405,2.435,107.726,1.084,1.038,6.201,1,1,3.249
1777493491698,-0.018,0.975,-0.319,4.824,0.679,1.603,107.830,1.056,1.026,5.129,1,1,3.265
1777493491711,-0.036,0.988,-0.319,4.237,0.489,1.427,107.853,1.302,1.039,4.497,1,1,3.256
1777493491725,-0.021,0.999,-0.292,4.580,1.038,1.718,107.424,1.259,1.041,5.001,1,1,3.879
1777493491739,-0.033,0.985,-0.316,4.756,1.298,1.374,107.529,1.412,1.035,5.118,1,1,3.271
1777493491752,-0.020,0.979,-0.319,4.389,1.092,0.634,107.668,1.331,1.030,4.567,1,1,3.486
1777493491766,-0.036,0.979,-0.320,4.634,1.069,0.733,107.787,1.518,1.030,4.811,1,1,3.264
1777493491783,-0.010,0.981,-0.317,4.824,0.908,0.176,107.813,1.266,1.031,4.912,1,1,7.271
1777493491796,-0.002,0.979,-0.318,5.267,0.275,-0.794,107.858,0.949,1.030,5.334,1,1,3.947
1777493491811,-0.022,0.985,-0.333,5.542,-0.023,-0.382,108.085,1.016,1.040,5.555,1,1,3.760
1777493491824,-0.021,0.986,-0.327,6.260,-0.260,-0.122,108.160,1.047,1.039,6.266,1,1,3.262
1777493491838,-0.021,1.003,-0.322,6.962,-0.481,0.496,108.061,1.073,1.053,6.996,1,1,3.261
1777493491851,-0.038,0.983,-0.326,8.176,0.244,1.237,108.141,1.352,1.036,8.272,1,1,3.259
1777493491865,-0.013,0.986,-0.330,8.733,0.244,1.160,108.239,1.183,1.040,8.813,1,1,3.933
1777493491879,-0.026,0.983,-0.324,9.763,0.710,1.924,108.238,1.257,1.036,9.976,1,1,3.247
1777493491892,-0.019,0.983,-0.334,10.718,0.756,1.985,108.378,1.194,1.038,10.926,1,1,3.258
1777493491905,-0.029,0.983,-0.342,11.466,1.198,2.702,108.596,1.296,1.041,11.841,1,1,3.256
1777493491919,-0.041,0.982,-0.344,11.580,1.107,3.511,108.790,1.549,1.042,12.151,1,1,3.255
1777493491932,-0.025,0.965,-0.362,11.527,1.282,4.366,109.272,1.512,1.031,12.393,1,1,3.912
1777493491946,-0.020,0.986,-0.347,11.901,0.977,6.168,109.305,1.392,1.046,13.440,1,1,3.264
1777493491959,-0.029,0.991,-0.344,13.389,1.679,5.282,109.255,1.449,1.049,14.491,1,1,3.251
1777493491973,-0.010,0.992,-0.355,13.855,1.435,5.313,109.377,1.204,1.053,14.908,1,1,3.267
1777493491986,0.028,1.015,-0.354,15.191,0.763,5.405,109.337,0.482,1.075,16.142,1,1,3.254
1777493491999,-0.016,1.020,-0.339,17.618,2.145,4.840,109.080,0.577,1.074,18.396,4,1,3.893
1777493492013,0.098,1.069,-0.349,19.397,2.321,3.336,108.814,-0.920,1.129,19.818,4,1,3.294
1777493492027,0.026,1.051,-0.371,19.183,-1.092,2.244,108.986,-1.027,1.115,19.345,4,1,3.255
1777493492040,-0.150,0.979,-0.365,20.427,0.122,7.863,109.382,1.456,1.055,21.889,4,1,3.269
1777493492054,0.019,1.018,-0.377,21.870,1.229,7.244,109.635,0.798,1.086,23.072,4,1,3.277
1777493492067,0.031,1.017,-0.390,22.969,-0.443,4.145,109.999,0.142,1.090,23.345,4,1,3.924
1777493492081,0.017,1.027,-0.395,23.985,-3.366,0.221,110.285,-0.130,1.100,24.221,4,1,3.269
1777493492094,0.023,1.059,-0.400,25.099,-6.137,-2.672,110.394,-0.408,1.132,25.976,4,1,3.267
1777493492108,0.017,1.125,-0.406,25.275,-8.450,1.412,110.247,-0.519,1.197,26.687,4,1,3.264
1777493492121,-0.155,1.141,-0.455,27.870,-9.084,14.702,110.646,1.565,1.238,32.794,4,1,3.272
1777493492134,-0.104,1.150,-0.431,29.473,-8.901,17.916,110.621,2.444,1.232,35.621,4,1,3.929
1777493492148,-0.075,1.331,-0.498,29.809,-11.176,-6.664,110.586,2.596,1.423,32.525,4,1,3.252
1777493492162,-0.021,1.669,-0.255,30.061,6.489,24.992,107.374,2.085,1.689,39.628,4,1,3.265
1777493492175,-0.048,0.830,-0.485,32.321,-0.290,2.038,110.860,2.296,0.962,32.386,4,1,3.258
1777493492188,-0.034,1.063,-0.384,35.580,1.679,6.282,110.584,2.147,1.131,36.170,4,1,3.248
1777493492202,0.092,0.989,-0.418,36.763,0.183,1.885,111.218,0.243,1.078,36.812,4,1,3.888
1777493492216,0.073,0.988,-0.425,39.198,-1.939,5.481,111.777,-0.868,1.078,39.627,4,1,3.261
1777493492229,0.092,0.968,-0.431,40.107,-3.176,6.359,112.380,-1.975,1.064,40.732,4,1,3.259
1777493492243,0.110,0.961,-0.448,40.855,-6.725,7.275,113.091,-3.040,1.066,42.039,4,1,3.265
1777493492256,0.090,0.954,-0.465,41.382,-10.206,5.519,113.872,-3.529,1.065,42.978,4,1,3.248
1777493492269,0.073,0.932,-0.468,41.794,-12.450,6.069,114.619,-3.654,1.045,44.029,4,4,3.854
1777493492283,0.087,0.920,-0.482,42.527,-14.763,5.176,115.439,-3.955,1.042,45.313,4,4,3.265
1777493492297,0.052,0.912,-0.482,42.779,-17.603,2.679,116.092,-3.674,1.033,46.336,4,4,3.248
1777493492310,0.022,0.913,-0.496,43.634,-19.573,-2.176,116.742,-3.005,1.039,47.872,4,4,3.252
1777493492323,0.002,0.900,-0.503,44.916,-20.863,-7.649,117.406,-2.226,1.031,50.112,4,4,3.252
1777493492337,-0.022,0.942,-0.516,45.702,-19.053,-4.931,117.761,-1.308,1.074,49.760,4,4,3.843
1777493492351,-0.051,0.922,-0.523,45.985,-18.092,-3.153,118.248,-0.214,1.062,49.516,4,4,3.267
1777493492364,-0.119,0.929,-0.536,46.595,-15.641,-2.328,118.716,1.556,1.079,49.206,4,4,3.260
1777493492377,-0.141,0.927,-0.543,47.298,-11.145,-1.260,119.159,3.157,1.084,48.609,4,4,3.255
1777493492391,-0.151,0.933,-0.562,48.580,-6.084,-0.412,119.679,4.438,1.099,48.961,4,4,3.259
1777493492404,-0.150,0.936,-0.554,50.053,-1.779,-0.351,119.942,5.359,1.098,50.086,4,4,3.874
1777493492418,-0.125,0.920,-0.557,52.252,4.122,-0.313,120.281,5.710,1.082,52.415,4,4,3.257
1777493492431,-0.094,0.923,-0.569,54.931,8.214,-1.168,120.647,5.499,1.089,55.554,4,4,3.269
1777493492445,-0.082,0.927,-0.568,58.244,12.786,-0.076,120.878,5.179,1.090,59.631,4,4,3.253
1777493492458,-0.034,0.916,-0.565,61.092,15.092,-0.076,121.094,4.264,1.076,62.928,4,4,3.251
1777493492471,-0.015,0.922,-0.606,63.191,16.282,0.443,121.693,3.328,1.104,65.256,4,4,3.862
1777493492485,0.008,0.895,-0.606,64.740,15.847,0.733,122.348,2.317,1.081,66.656,4,4,3.251
1777493492499,0.021,0.912,-0.623,65.679,13.809,0.137,122.892,1.390,1.105,67.116,4,4,3.245
1777493492512,0.020,0.913,-0.617,67.275,11.908,-1.695,123.199,0.737,1.102,68.342,4,4,3.272
1777493492525,-0.028,0.933,-0.633,68.832,13.977,-2.634,123.461,0.927,1.128,70.286,4,4,3.245
1777493492539,-0.019,0.945,-0.634,72.702,13.427,-2.282,123.574,0.935,1.138,73.967,4,4,3.921
1777493492553,-0.072,0.981,-0.638,77.053,17.595,-2.405,123.434,1.634,1.173,79.073,4,4,3.266
1777493492566,-0.127,1.005,-0.632,82.435,22.191,-0.260,123.096,2.848,1.194,85.370,4,4,3.246
1777493492579,-0.180,0.985,-0.637,88.672,28.748,-0.611,123.044,4.434,1.187,93.218,4,4,3.277
1777493492593,-0.194,0.970,-0.664,93.748,36.718,-5.160,123.403,5.769,1.192,100.814,4,4,3.259
1777493492606,-0.208,0.950,-0.695,100.107,45.481,-13.107,124.154,6.915,1.195,110.733,4,4,3.863
1777493492621,-0.205,0.923,-0.787,104.137,57.702,-30.794,125.855,7.634,1.230,122.973,4,4,4.174
1777493492634,-0.026,0.957,-0.800,108.489,57.679,-35.046,126.942,5.893,1.247,127.769,4,4,3.259
1777493492648,-0.101,0.971,-0.779,117.023,69.427,-34.160,127.429,5.558,1.249,140.291,4,4,3.249
1777493492662,-0.068,1.114,-0.831,138.870,67.176,-28.832,127.239,4.814,1.392,156.936,4,4,4.147
1777493492675,0.180,0.936,-0.826,118.817,44.481,-38.901,128.372,1.298,1.261,132.700,4,4,3.901
1777493492695,-0.274,0.879,-0.620,142.550,67.504,-35.489,127.509,4.806,1.110,161.668,4,4,8.732
1777493492708,0.063,0.707,-0.624,143.557,76.809,-28.588,128.568,2.479,0.944,165.305,4,4,3.266
1777493492722,0.037,0.615,-0.697,141.344,68.435,-31.267,131.281,1.187,0.930,160.122,4,4,3.248
1777493492735,-0.044,0.287,-0.771,110.176,52.458,-37.679,138.917,1.702,0.824,127.712,4,4,3.261
1777493492748,-0.133,0.099,-0.821,55.885,52.252,-43.786,148.156,3.708,0.837,88.152,4,4,3.855
1777493492762,-0.469,-0.664,-0.487,-72.550,99.069,-79.847,74.021,10.716,0.948,146.471,4,4,3.245
1777493492776,-0.345,0.513,0.276,-143.550,113.252,-29.595,70.695,16.085,0.677,185.225,4,4,3.879
1777493492790,0.345,0.344,0.180,-127.756,106.473,4.466,68.433,0.488,0.519,166.367,4,4,3.252
1777493492803,-0.105,0.695,0.096,-130.863,113.962,-8.076,72.140,2.657,0.709,173.717,4,4,3.244
1777493492816,0.239,0.550,-0.044,-130.649,115.962,5.573,78.198,-4.385,0.602,174.778,4,4,3.913
1777493492830,0.089,0.600,0.013,-144.931,114.229,4.252,81.040,-5.487,0.607,184.584,4,4,3.262
1777493492847,0.309,0.650,-0.012,-150.496,106.626,-17.641,83.740,-10.868,0.720,185.282,4,4,6.370
1777493492860,0.501,0.687,-0.064,-161.168,62.450,-33.870,86.869,-17.656,0.852,176.132,4,4,3.282
1777493492874,0.505,0.789,-0.068,-167.053,19.435,-36.023,89.039,-21.678,0.939,171.995,4,4,3.251
1777493492890,0.322,0.872,-0.146,-168.527,-17.924,-48.992,91.863,-21.230,0.941,176.416,4,4,3.914
1777493492904,0.216,0.924,-0.198,-175.420,-32.687,-61.908,94.619,-18.970,0.969,188.874,4,4,3.260
1777493492918,0.154,0.986,-0.277,-182.122,-36.679,-62.298,97.609,-16.153,1.035,195.946,4,4,3.247
1777493492931,0.130,1.060,-0.373,-190.191,-31.145,-60.168,100.792,-13.571,1.131,201.898,4,4,3.283
1777493492944,0.207,1.194,-0.474,-191.382,-27.351,-57.160,103.726,-12.376,1.301,201.599,4,4,3.265
1777493492958,0.267,1.282,-0.544,-187.191,-26.252,-50.618,106.231,-11.965,1.418,195.683,5,4,3.890
1777493492972,0.371,1.299,-0.555,-177.198,-37.092,-47.397,108.100,-12.706,1.461,187.140,5,4,3.278
1777493492985,0.395,1.260,-0.543,-172.359,-55.977,-48.359,109.504,-13.607,1.428,187.562,5,4,3.526
1777493492999,0.298,1.260,-0.506,-168.908,-68.802,-45.771,110.149,-13.275,1.390,188.039,5,4,3.248
1777493493012,0.209,1.257,-0.494,-164.802,-75.916,-46.031,110.504,-12.068,1.367,187.194,5,4,3.267
1777493493025,0.142,1.245,-0.481,-162.595,-77.443,-43.260,110.676,-10.449,1.342,185.219,5,4,3.883
1777493493039,0.078,1.274,-0.469,-158.679,-76.924,-41.603,110.548,-8.519,1.359,181.183,5,4,3.254
1777493493053,0.042,1.303,-0.476,-151.702,-76.351,-40.870,110.423,-6.686,1.388,174.681,5,4,3.267
1777493493066,0.081,1.335,-0.499,-142.107,-80.817,-38.733,110.439,-5.757,1.427,168.006,5,4,3.278
1777493493079,0.139,1.306,-0.544,-134.168,-90.107,-39.198,111.029,-5.714,1.422,166.303,5,4,3.249
1777493493093,0.128,1.242,-0.555,-133.580,-103.237,-39.260,111.850,-5.624,1.367,173.329,5,4,3.880
1777493493107,0.079,1.307,-0.567,-129.786,-114.664,-32.824,112.287,-4.966,1.427,176.266,5,4,3.252
1777493493120,0.077,1.249,-0.616,-122.489,-123.817,-32.588,113.361,-4.478,1.395,177.189,5,4,3.240
1777493493133,0.004,1.215,-0.643,-119.702,-128.893,-27.145,114.585,-3.315,1.375,177.986,5,4,3.254
1777493493147,-0.089,1.266,-0.673,-109.817,-124.931,-23.298,115.505,-1.461,1.436,167.959,5,4,3.245
1777493493160,-0.144,1.237,-0.705,-96.687,-115.954,-23.344,116.635,0.497,1.431,152.770,1,4,3.852
1777493493174,-0.120,1.158,-0.749,-84.748,-105.832,-22.702,118.321,1.705,1.385,137.470,1,4,3.265
1777493493188,-0.117,1.104,-0.784,-76.756,-96.092,-22.466,120.226,2.577,1.359,125.019,1,4,3.256
1777493493201,-0.170,1.136,-0.844,-63.176,-81.756,-20.809,121.955,3.728,1.426,105.395,1,4,3.244
1777493493214,-0.208,1.033,-0.929,-50.015,-63.344,-25.313,124.659,5.022,1.404,84.585,1,4,3.268
1777493493228,-0.205,0.986,-0.966,-41.771,-45.916,-27.115,127.288,5.951,1.395,67.737,1,4,3.853
1777493493242,-0.180,1.045,-0.973,-25.115,-26.000,-24.099,128.822,6.286,1.440,43.445,1,4,3.295
1777493493255,-0.143,1.024,-0.985,-5.679,-9.443,-22.542,130.193,6.141,1.428,25.091,1,4,3.279
1777493493268,-0.127,1.014,-0.954,11.969,1.977,-18.931,131.020,5.892,1.398,22.485,1,4,3.256
1777493493282,-0.095,0.958,-0.880,25.985,7.557,-13.901,131.434,5.434,1.305,30.423,1,4,3.258
1777493493295,-0.087,0.979,-0.781,38.588,11.405,-4.573,130.670,5.038,1.255,40.497,1,4,3.899
1777493493309,-0.057,0.673,-0.535,37.351,15.344,-8.893,130.073,4.696,0.861,41.348,1,4,3.248
1777493493322,0.100,-0.229,0.105,-10.626,17.824,-14.038,77.252,-2.425,0.271,25.054,1,4,3.271
1777493493336,-0.293,1.828,1.835,-12.061,-27.588,-1.305,68.512,-0.028,2.607,30.137,1,4,3.268
1777493493349,-0.507,2.119,1.620,29.504,-24.420,14.969,64.216,2.888,2.715,41.120,1,4,3.245
1777493493362,-0.140,0.852,0.090,42.672,-26.450,24.863,69.560,4.622,0.868,56.024,1,1,3.888
1777493493376,0.188,0.853,-0.484,54.565,-5.878,29.206,83.067,0.443,0.999,62.168,1,1,3.267
1777493493390,0.130,0.887,-0.555,59.008,0.496,10.412,93.592,-1.588,1.054,59.921,1,1,3.431
1777493493403,0.284,0.871,-0.363,30.427,-13.977,-21.137,98.725,-5.686,0.986,39.598,1,1,3.254
1777493493417,-0.066,1.125,-0.072,26.069,-10.092,-33.427,97.357,-3.239,1.129,43.575,1,1,3.263
1777493493430,-0.094,1.016,-0.065,26.702,-3.954,-41.221,96.358,-0.935,1.022,49.273,1,1,3.873
1777493493444,-0.105,0.960,0.004,15.634,4.672,-48.267,94.573,1.000,0.965,50.951,1,1,3.279
1777493493457,-0.196,0.987,0.036,8.061,16.244,-42.427,92.775,3.756,1.007,46.141,1,1,3.258
1777493493471,-0.178,0.977,-0.037,9.580,28.550,-30.679,92.609,5.533,0.994,42.989,1,1,3.255
1777493493484,-0.191,0.979,-0.064,11.229,33.328,-22.374,92.918,7.021,0.999,41.683,1,1,3.264
1777493493497,-0.206,0.964,-0.057,10.023,30.115,-20.282,93.043,8.372,0.987,37.666,1,1,3.894
1777493493511,-0.216,0.990,-0.102,8.496,19.870,-12.542,93.806,9.422,1.019,24.986,1,1,3.248
1777493493525,-0.101,0.993,-0.149,11.282,5.557,-9.641,95.079,8.434,1.009,15.847,1,1,3.257
1777493493538,-0.058,0.982,-0.131,10.664,-10.771,-12.473,95.766,7.062,0.992,19.630,1,1,3.257
1777493493551,-0.113,0.991,-0.130,10.389,-19.832,-15.107,96.233,6.890,1.006,27.009,1,1,3.254
1777493493565,-0.151,0.990,-0.104,11.282,-19.198,-13.168,96.169,7.354,1.007,25.870,1,1,3.906
1777493493579,-0.159,0.981,-0.081,11.321,-12.130,-10.626,95.774,7.844,0.998,19.703,1,1,3.256
1777493493593,-0.177,0.991,-0.077,10.366,-3.504,-8.641,95.413,8.456,1.010,13.943,1,1,3.663
1777493493606,-0.147,0.991,-0.073,10.153,0.756,-10.412,95.089,8.441,1.004,14.562,1,1,3.263
1777493493619,-0.151,0.999,-0.074,10.298,1.588,-12.069,94.855,8.482,1.013,15.944,1,1,3.248
1777493493633,-0.150,0.994,-0.074,12.733,0.809,-12.519,94.689,8.501,1.008,17.875,1,1,3.920
1777493493647,-0.142,0.989,-0.076,14.183,-3.321,-14.740,94.612,8.399,1.002,20.724,1,1,3.294
1777493493660,-0.142,1.001,-0.086,16.023,-9.725,-16.282,94.699,8.309,1.014,24.828,1,1,3.252
1777493493673,-0.192,0.993,-0.092,18.374,-9.298,-15.771,94.860,9.006,1.016,25.938,1,1,3.274
1777493493687,-0.200,0.988,-0.076,18.908,-2.786,-13.542,94.738,9.654,1.011,23.424,1,1,3.250
1777493493700,-0.177,0.999,-0.081,18.954,3.023,-13.275,94.703,9.755,1.018,23.337,1,1,3.943
1777493493714,-0.137,1.002,-0.112,20.855,1.481,-16.504,95.157,9.209,1.017,26.636,1,1,3.264
1777493493727,-0.179,0.988,-0.112,21.672,-1.244,-16.733,95.512,9.478,1.010,27.408,1,1,3.256
1777493493741,-0.223,0.977,-0.135,22.000,1.069,-13.527,96.141,10.363,1.011,25.848,1,1,3.292
1777493493754,-0.229,0.978,-0.106,23.321,3.664,-9.969,96.161,11.098,1.010,25.626,1,1,3.266
1777493493768,-0.255,0.988,-0.103,24.847,3.664,-4.137,96.109,11.995,1.025,25.455,1,1,4.032
1777493493782,-0.262,0.976,-0.106,27.450,5.885,3.069,96.132,12.786,1.016,28.241,1,1,3.274
1777493493795,-0.244,0.970,-0.140,28.519,8.275,8.809,96.689,13.108,1.010,30.974,1,1,3.289
1777493493809,-0.196,0.958,-0.188,26.046,9.015,10.763,97.884,12.629,0.996,29.589,1,1,3.283
1777493493822,-0.154,0.971,-0.181,24.137,6.344,8.626,98.601,11.616,1.000,26.406,1,1,3.254
1777493493835,-0.166,0.987,-0.175,23.947,4.542,7.802,98.995,11.015,1.016,25.592,1,1,3.950
1777493493849,-0.178,0.984,-0.172,24.366,4.611,7.832,99.246,10.765,1.015,26.006,1,1,3.278
1777493493863,-0.210,1.006,-0.154,26.855,6.519,9.595,99.103,11.002,1.039,29.253,1,1,3.264
1777493493876,-0.170,1.006,-0.168,27.725,6.260,13.099,99.206,10.582,1.034,31.296,1,1,3.261
1777493493889,-0.217,0.969,-0.186,28.351,6.397,17.786,99.650,11.071,1.010,34.074,1,1,3.253
1777493493903,-0.204,0.975,-0.196,28.092,9.618,20.718,100.119,11.206,1.015,36.206,4,1,3.953
1777493493917,-0.164,0.983,-0.208,27.168,9.847,20.443,100.620,10.687,1.018,35.397,4,1,3.272
1777493493930,-0.160,0.976,-0.219,26.290,10.931,21.000,101.169,10.258,1.013,35.379,4,1,3.265
1777493493944,-0.125,0.966,-0.239,24.809,11.092,18.099,101.901,9.413,1.003,32.651,4,1,3.271
1777493493957,-0.129,0.979,-0.235,23.817,10.344,15.145,102.328,8.850,1.015,30.060,4,1,3.261
1777493493970,-0.168,0.973,-0.229,23.275,11.779,17.107,102.582,9.038,1.014,31.195,4,1,3.963
1777493493984,-0.204,0.971,-0.246,23.023,12.794,24.687,103.024,9.700,1.022,36.100,4,1,3.269
1777493493998,-0.177,0.996,-0.246,22.527,13.351,30.611,103.251,9.717,1.041,40.283,4,1,3.803
1777493494012,-0.177,0.977,-0.245,22.435,15.076,32.206,103.468,9.787,1.023,42.046,4,1,3.262
1777493494025,-0.184,0.981,-0.252,22.099,19.321,36.229,103.718,9.923,1.029,46.628,4,1,3.254
1777493494038,-0.097,1.013,-0.247,21.260,20.534,34.985,103.714,8.684,1.048,45.799,4,1,3.943
1777493494052,-0.051,0.999,-0.261,20.672,19.573,29.725,103.973,7.102,1.033,41.158,4,1,3.273
1777493494066,-0.031,0.975,-0.305,19.817,14.435,22.756,104.894,5.657,1.022,33.450,4,1,3.268
1777493494079,-0.047,0.976,-0.294,17.893,11.229,16.267,105.403,4.848,1.020,26.662,4,1,3.281
1777493494093,-0.096,0.988,-0.281,16.458,10.573,15.504,105.540,4.984,1.031,24.960,4,1,3.263
1777493494106,-0.075,0.971,-0.302,15.153,10.802,16.809,106.016,4.772,1.020,25.076,4,1,3.925
1777493494120,-0.082,0.966,-0.302,13.519,10.786,17.649,106.380,4.731,1.015,24.710,4,1,3.267
1777493494133,-0.081,0.970,-0.298,12.542,12.015,20.244,106.571,4.687,1.018,26.674,4,1,3.277
1777493494147,-0.106,0.952,-0.305,12.351,14.977,25.267,106.902,5.060,1.005,31.864,4,1,3.265
1777493494160,-0.095,0.964,-0.306,12.351,16.260,27.191,107.095,5.145,1.016,34.004,4,1,3.264
1777493494173,-0.059,0.971,-0.325,12.496,14.244,26.809,107.470,4.651,1.026,32.830,4,4,3.923
1777493494188,-0.043,0.998,-0.306,12.756,11.908,25.550,107.359,4.035,1.044,30.940,4,4,3.264
1777493494202,-0.017,0.979,-0.305,12.954,9.519,22.504,107.343,3.207,1.026,27.656,4,4,3.942
1777493494215,-0.004,0.986,-0.313,12.344,7.626,18.687,107.416,2.402,1.034,23.658,4,4,3.255
1777493494228,0.009,0.982,-0.313,11.641,6.496,15.313,107.490,1.621,1.031,20.303,4,4,3.271
1777493494242,0.017,0.999,-0.313,10.954,6.313,13.794,107.463,0.934,1.047,18.711,1,4,3.925
1777493494256,0.011,0.998,-0.321,9.840,3.122,8.611,107.565,0.516,1.048,13.443,1,4,3.273
1777493494269,-0.013,0.990,-0.313,9.420,2.275,6.817,107.569,0.570,1.038,11.848,1,4,3.286
1777493494282,-0.023,0.984,-0.311,8.916,2.221,6.588,107.555,0.756,1.032,11.306,1,4,3.261
1777493494296,-0.008,0.976,-0.336,7.969,1.489,5.649,107.940,0.676,1.032,9.881,1,4,3.271
1777493494309,0.001,0.988,-0.314,7.885,0.695,4.160,107.861,0.479,1.036,8.943,1,4,3.924
1777493494323,-0.006,0.976,-0.331,7.145,0.008,3.298,108.103,0.445,1.030,7.869,1,4,3.264
1777493494337,-0.015,0.967,-0.343,6.153,-0.237,1.817,108.481,0.553,1.026,6.420,1,4,3.284
1777493494350,0.004,0.977,-0.340,5.069,-1.267,-0.481,108.669,0.342,1.034,5.247,1,4,3.261
1777493494363,0.017,0.984,-0.336,4.458,-2.405,-3.046,108.714,-0.005,1.040,5.910,1,4,3.268
1777493494377,-0.012,0.989,-0.331,4.198,-2.351,-3.962,108.653,0.174,1.042,6.233,1,4,3.926
1777493494391,-0.050,0.973,-0.334,4.130,-1.840,-2.611,108.729,0.876,1.030,5.221,1,4,3.260
1777493494405,-0.033,0.973,-0.340,4.038,-1.634,-1.725,108.872,1.141,1.032,4.685,1,4,3.781
1777493494418,-0.012,0.983,-0.336,4.023,-1.702,-1.840,108.880,1.011,1.039,4.740,1,4,3.259
1777493494431,-0.032,0.981,-0.329,3.779,-1.504,-1.031,108.787,1.224,1.035,4.195,1,4,3.278
1777493494445,-0.027,0.969,-0.334,3.595,-1.473,-0.809,108.848,1.306,1.026,3.969,1,4,3.925
1777493494459,-0.022,0.964,-0.352,3.427,-1.626,-1.092,109.170,1.288,1.026,3.948,1,4,3.281
1777493494472,-0.009,0.995,-0.330,5.198,-1.244,-1.107,108.947,1.070,1.048,5.459,1,4,3.268
1777493494485,-0.015,0.988,-0.336,5.863,-1.527,-1.939,108.906,1.002,1.044,6.361,1,4,3.262
1777493494499,-0.068,0.952,-0.331,6.779,-1.176,-1.481,108.984,1.768,1.010,7.037,1,4,3.274
1777493494512,-0.009,0.965,-0.343,5.679,-2.435,-3.191,109.146,1.420,1.024,6.955,1,1,3.928
1777493494526,-0.023,0.986,-0.341,6.695,-1.786,-3.282,109.133,1.384,1.044,7.667,1,1,3.271
1777493494540,-0.023,0.979,-0.344,7.534,-1.359,-3.099,109.193,1.356,1.038,8.259,1,1,3.275
1777493494553,-0.038,0.990,-0.348,8.656,-0.931,-2.374,109.234,1.544,1.050,9.024,1,1,3.260
1777493494566,-0.047,0.995,-0.346,13.565,0.649,-7.710,109.216,1.815,1.054,15.616,1,1,3.279
1777493494580,-0.027,0.993,-0.345,11.908,0.008,-1.893,109.203,1.717,1.052,12.058,1,1,3.926
1777493494594,-0.030,1.000,-0.350,13.351,-0.130,-2.786,109.232,1.695,1.060,13.639,1,1,3.271
1777493494608,-0.004,1.007,-0.354,15.198,-1.069,-4.718,109.268,1.297,1.067,15.950,1,1,3.732
1777493494621,0.028,1.021,-0.353,16.786,-1.595,-6.756,109.214,0.541,1.080,18.165,1,1,3.255
1777493494634,0.014,1.035,-0.360,18.092,-3.412,-10.168,109.203,0.198,1.096,21.032,1,1,3.281
1777493494648,-0.013,1.045,-0.366,18.832,-4.710,-11.977,109.230,0.326,1.107,22.810,4,1,3.918
1777493494662,-0.107,1.006,-0.386,20.489,-4.412,-6.466,109.710,1.765,1.083,21.933,4,1,3.286
1777493494675,-0.081,1.007,-0.399,22.084,-3.107,-1.053,110.221,2.438,1.086,22.326,4,1,3.269
1777493494688,-0.082,1.018,-0.383,23.626,-2.786,2.817,110.334,2.941,1.090,23.956,4,1,3.259
1777493494702,-0.072,1.062,-0.402,25.557,-3.344,5.885,110.443,3.127,1.138,26.438,4,1,3.280
1777493494715,-0.069,1.072,-0.427,26.931,-4.359,9.153,110.790,3.208,1.156,28.776,4,1,3.917
1777493494729,-0.119,1.096,-0.421,30.802,-5.397,15.771,110.847,3.910,1.180,35.023,4,1,3.263
1777493494743,-0.071,1.059,-0.416,32.832,-4.908,15.435,111.007,3.812,1.140,36.610,4,1,3.267
1777493494756,0.025,1.100,-0.438,35.244,-8.763,15.603,111.201,2.450,1.184,39.527,4,1,3.258
1777493494769,0.018,1.297,-0.427,38.931,-14.405,14.763,110.395,1.581,1.365,44.058,4,1,3.281
1777493494783,-0.104,-0.290,-0.396,32.115,-14.603,-2.840,41.720,4.396,0.501,35.393,4,1,3.932
1777493494797,0.116,0.984,-0.480,37.939,-15.740,1.344,61.787,1.575,1.101,41.097,4,1,3.287
1777493494810,0.025,1.032,-0.412,39.183,-14.901,6.176,75.290,0.806,1.111,42.373,4,1,3.620
1777493494824,0.002,1.052,-0.445,41.008,-15.481,8.527,85.459,0.555,1.142,44.654,4,1,3.255
1777493494837,-0.045,1.029,-0.448,42.832,-15.321,9.687,93.046,1.021,1.124,46.510,4,1,3.266
1777493494851,-0.075,1.009,-0.454,44.863,-14.359,10.069,98.765,1.792,1.109,48.169,4,1,3.927
1777493494865,-0.076,0.977,-0.457,46.511,-12.588,10.344,103.171,2.399,1.081,49.282,4,1,3.283
1777493494878,-0.091,0.959,-0.470,48.191,-10.542,9.634,106.671,3.071,1.072,50.262,4,1,3.267
1777493494891,-0.068,0.927,-0.485,49.015,-9.985,8.145,109.626,3.240,1.049,50.681,4,1,3.272
1777493494905,-0.053,0.919,-0.492,50.198,-9.565,5.534,111.940,3.151,1.044,51.400,4,1,3.272
1777493494918,-0.039,0.922,-0.492,51.405,-9.344,3.863,113.597,2.878,1.046,52.389,4,4,3.924
1777493494932,-0.052,0.921,-0.514,53.038,-8.260,2.832,115.099,2.856,1.056,53.752,4,4,3.272
1777493494945,-0.052,0.920,-0.527,54.573,-9.267,1.084,116.368,2.836,1.061,55.364,4,4,3.265
1777493494959,-0.095,0.932,-0.526,55.977,-5.649,0.305,117.197,3.436,1.075,56.262,4,4,3.265
1777493494972,-0.111,0.933,-0.521,56.992,-1.718,-0.168,117.732,4.105,1.074,57.018,4,4,3.269
1777493494986,-0.118,0.930,-0.555,57.718,2.595,0.756,118.564,4.677,1.090,57.781,4,4,3.937
1777493495000,-0.111,0.902,-0.566,57.160,9.511,0.573,119.521,5.026,1.071,57.949,4,4,3.279
1777493495013,-0.060,0.894,-0.574,58.038,10.588,1.466,120.384,4.539,1.064,59.014,4,4,3.675
1777493495027,-0.033,0.882,-0.586,57.931,11.641,1.008,121.252,3.801,1.060,59.098,4,4,3.267
1777493495040,-0.013,0.873,-0.600,57.504,13.817,0.733,122.125,2.960,1.059,59.145,4,4,3.272
1777493495054,0.005,0.887,-0.583,58.015,12.374,-0.626,122.444,2.085,1.061,59.324,4,4,3.935
1777493495068,-0.015,0.906,-0.604,59.313,12.603,3.786,122.784,1.737,1.089,60.755,4,4,3.266
1777493495081,0.012,0.869,-0.623,59.847,8.817,1.481,123.561,1.088,1.069,60.511,4,4,3.259
1777493495094,-0.024,0.893,-0.622,60.664,9.023,-0.374,123.914,1.131,1.088,61.333,4,4,3.273
1777493495108,-0.053,0.908,-0.630,62.947,9.756,-1.649,124.139,1.563,1.107,63.719,4,4,3.257
1777493495121,-0.098,0.928,-0.642,66.092,13.611,-1.153,124.285,2.487,1.133,67.488,4,4,3.942
1777493495135,-0.147,0.981,-0.633,70.351,18.855,-3.176,123.885,3.750,1.177,72.903,4,4,3.269
1777493495148,-0.207,0.997,-0.635,74.840,26.939,-4.649,123.505,5.422,1.200,79.676,4,4,3.256
1777493495162,-0.211,0.967,-0.642,79.901,36.771,-8.809,123.522,6.747,1.179,88.396,4,4,3.274
1777493495175,-0.122,0.951,-0.631,88.053,44.511,-4.626,123.526,6.573,1.148,98.773,4,4,3.252
1777493495188,-0.151,0.943,-0.635,99.275,52.214,-1.687,123.642,6.845,1.147,112.181,4,4,3.893
1777493495203,-0.096,0.938,-0.717,112.611,60.840,-4.618,124.656,6.255,1.184,128.078,4,4,3.265
1777493495216,-0.024,0.911,-0.827,124.130,67.588,-14.267,126.703,4.863,1.230,142.056,4,4,3.260
1777493495230,0.026,0.843,-0.902,127.511,70.061,-22.107,129.468,3.225,1.235,147.161,4,4,3.276
1777493495243,0.071,0.837,-1.126,130.176,69.252,-28.344,133.229,1.573,1.405,150.149,4,4,3.257
1777493495256,0.065,0.465,-0.967,98.725,34.130,-33.649,138.926,0.206,1.075,109.744,4,4,3.908
1777493495270,0.036,0.603,-0.604,82.122,2.588,-38.580,137.884,-0.496,0.854,90.770,4,4,3.267
1777493495284,-0.723,0.437,-0.483,49.611,45.672,-48.710,137.876,12.602,0.974,83.185,4,4,3.264
1777493495297,-0.505,0.175,-0.362,-23.328,153.153,-28.290,142.306,23.100,0.645,157.481,4,4,3.274
1777493495311,-0.223,0.608,0.200,-54.794,154.397,3.008,123.246,22.057,0.678,163.859,4,4,3.262
1777493495324,0.101,0.555,0.101,-74.443,180.969,-3.137,111.484,13.355,0.573,195.708,4,4,3.937
1777493495338,0.111,0.771,0.053,-73.168,195.794,5.313,104.608,7.532,0.780,209.086,4,4,3.269
1777493495351,0.329,0.562,0.026,-85.832,165.809,-0.206,99.942,-2.686,0.652,186.708,4,4,3.270
1777493495365,0.366,0.583,0.084,-104.954,136.656,-13.244,95.048,-10.561,0.693,172.817,4,4,3.283
1777493495378,0.268,0.705,0.098,-112.282,100.969,-17.008,91.537,-13.281,0.760,151.959,4,4,3.265
1777493495391,0.221,0.725,-0.015,-116.198,75.168,-27.122,91.439,-14.269,0.758,141.025,4,4,3.957
1777493495405,0.146,0.773,-0.101,-124.191,51.397,-36.840,93.067,-13.283,0.794,139.363,4,4,3.268
1777493495419,0.097,0.862,-0.140,-130.458,34.664,-39.931,94.725,-11.414,0.878,140.767,4,4,3.387
1777493495432,0.097,0.957,-0.175,-132.359,23.115,-44.550,96.244,-9.867,0.978,141.555,4,4,3.276
1777493495446,0.154,0.950,-0.215,-133.229,7.557,-53.573,98.006,-9.628,0.987,143.795,4,4,3.261
1777493495459,0.193,0.971,-0.215,-141.153,-10.992,-61.969,99.222,-9.997,1.013,154.548,5,4,3.950
1777493495473,0.170,1.053,-0.239,-145.115,-26.947,-64.557,100.186,-9.709,1.093,161.096,5,4,3.267
1777493495487,0.210,1.095,-0.291,-146.901,-36.313,-68.366,101.453,-9.918,1.153,166.049,5,4,3.267
1777493495500,0.197,1.123,-0.326,-149.328,-41.298,-66.573,102.729,-9.826,1.186,168.631,5,4,3.268
1777493495513,0.190,1.115,-0.365,-156.595,-41.137,-68.214,104.190,-9.659,1.189,175.692,5,4,3.263
1777493495527,0.155,1.215,-0.408,-160.733,-33.496,-62.153,105.369,-8.910,1.291,175.556,5,4,3.965
1777493495541,0.195,1.239,-0.462,-159.244,-27.870,-58.237,106.746,-8.765,1.336,171.834,5,4,3.269
1777493495554,0.166,1.261,-0.470,-158.313,-26.618,-57.580,107.749,-8.297,1.356,170.549,5,4,3.269
1777493495567,0.095,1.280,-0.479,-155.015,-25.725,-56.351,108.503,-7.127,1.370,166.934,5,4,3.284
1777493495581,0.083,1.293,-0.499,-150.046,-26.901,-58.092,109.202,-6.130,1.389,163.132,5,4,3.263
1777493495594,0.135,1.316,-0.514,-140.931,-33.198,-58.084,109.778,-5.946,1.420,156.005,5,4,3.959
1777493495608,0.159,1.302,-0.512,-133.870,-48.198,-60.191,110.238,-6.087,1.408,154.490,5,4,3.269
1777493495622,0.197,1.301,-0.502,-126.450,-66.534,-59.290,110.473,-6.610,1.408,154.699,5,4,3.274
1777493495635,0.201,1.261,-0.497,-121.008,-85.710,-57.153,110.751,-7.108,1.370,158.920,5,4,3.270
1777493495649,0.180,1.216,-0.487,-119.595,-101.954,-53.901,111.041,-7.298,1.322,166.142,5,4,3.261
1777493495662,0.159,1.201,-0.491,-120.145,-114.527,-50.481,111.363,-7.216,1.307,173.492,5,4,3.932
1777493495676,0.138,1.232,-0.528,-118.130,-123.053,-41.198,111.855,-6.854,1.347,175.482,5,4,3.266
1777493495689,0.104,1.234,-0.568,-110.573,-129.893,-34.534,112.626,-6.186,1.362,174.043,5,4,3.266
1777493495703,0.045,1.177,-0.636,-105.969,-134.420,-31.802,114.185,-5.040,1.339,174.096,5,4,3.269
1777493495716,-0.039,1.180,-0.665,-97.313,-134.496,-27.832,115.593,-3.232,1.355,168.326,5,4,3.255
1777493495729,-0.095,1.195,-0.731,-84.939,-129.664,-27.053,117.173,-1.308,1.404,157.351,1,4,3.932
1777493495743,-0.034,1.125,-0.769,-73.847,-127.992,-30.702,119.108,-0.567,1.363,150.924,1,4,3.270
1777493495757,-0.011,1.096,-0.775,-63.435,-125.382,-27.290,120.765,-0.287,1.343,143.141,1,4,3.299
1777493495770,-0.040,1.140,-0.839,-47.771,-118.244,-25.382,122.280,0.223,1.416,130.031,1,4,3.266
1777493495784,-0.067,1.051,-0.884,-31.763,-105.565,-23.985,124.385,0.919,1.374,112.819,1,4,3.267
1777493495797,-0.078,0.981,-0.903,-21.664,-91.420,-23.443,126.607,1.580,1.336,96.832,1,5,3.932
1777493495811,-0.110,1.002,-0.891,-7.023,-77.061,-21.427,127.965,2.421,1.345,80.292,1,5,3.267
1777493495825,-0.126,0.997,-0.876,8.794,-61.756,-12.939,128.871,3.229,1.333,63.707,1,5,4.131
1777493495839,-0.095,0.971,-0.856,21.748,-48.573,-5.733,129.556,3.493,1.298,53.527,1,5,3.257
1777493495854,-0.078,0.999,-0.811,36.099,-36.397,8.481,129.429,3.491,1.289,51.960,1,5,3.284
1777493495867,-0.094,1.034,-0.761,50.183,-27.069,18.649,128.597,3.682,1.287,59.990,1,5,3.932
1777493495883,-0.099,1.012,-0.730,63.992,-21.710,22.267,127.839,3.908,1.252,71.149,1,5,5.228
1777493495896,-0.126,0.626,-0.653,63.641,-4.695,15.962,130.098,4.995,0.913,65.780,1,5,3.278
1777493495910,0.122,-0.603,-0.208,37.008,27.122,-13.916,65.492,0.711,0.649,47.946,1,5,3.263
1777493495923,-0.503,2.478,2.213,-10.710,-3.374,19.504,60.830,2.845,3.360,22.505,1,5,3.272
1777493495936,-0.571,2.570,2.010,45.748,0.237,41.916,58.436,4.757,3.313,62.048,1,1,3.927
1777493495950,-0.089,0.758,0.167,47.542,-28.893,31.687,63.612,5.237,0.781,64.024,1,1,3.262
1777493495964,0.449,0.677,-0.492,49.649,-9.321,20.084,80.477,-3.799,0.950,54.362,1,1,3.270
1777493495977,0.321,1.054,-0.676,61.947,-23.977,-6.687,91.876,-6.652,1.293,66.761,1,1,3.263
1777493495991,0.224,0.884,-0.550,56.290,-27.718,-27.168,99.980,-8.131,1.064,68.373,1,1,3.279
1777493496004,0.029,1.026,-0.165,49.206,-21.473,-43.458,99.749,-6.371,1.040,69.072,1,1,3.942
1777493496018,-0.255,0.971,0.045,35.359,7.603,-41.947,96.403,-0.673,1.005,55.386,1,1,3.271
1777493496031,-0.235,1.029,0.002,24.176,24.160,-31.550,94.648,2.978,1.056,46.514,1,1,3.265
1777493496045,-0.123,0.964,-0.161,24.107,23.344,-25.481,95.956,4.108,0.985,42.135,1,1,3.253
1777493496058,-0.091,0.958,-0.260,19.954,5.908,-18.573,98.448,4.415,0.996,27.893,1,1,3.268
1777493496071,-0.164,0.995,-0.154,21.565,-4.550,-6.824,98.540,5.723,1.020,23.072,1,1,3.937
1777493496086,-0.273,0.993,-0.114,22.901,-4.168,7.748,97.994,8.303,1.036,24.533,1,1,3.274
1777493496099,-0.258,0.972,-0.138,23.321,4.893,20.779,98.021,10.031,1.015,31.616,1,1,3.269
1777493496112,-0.194,0.994,-0.113,20.534,11.046,28.733,97.603,10.284,1.019,37.003,1,1,3.263
1777493496126,-0.116,0.996,-0.116,21.336,16.168,32.374,97.351,9.295,1.009,42.008,1,1,3.289
1777493496139,-0.047,0.986,-0.164,18.443,16.122,31.160,97.920,7.513,1.001,39.636,1,1,3.932
1777493496153,0.046,0.994,-0.164,16.565,12.710,20.840,98.305,4.778,1.008,29.500,1,1,3.264
1777493496166,0.034,1.004,-0.167,16.008,12.489,11.374,98.608,2.976,1.019,23.272,1,1,3.271
1777493496180,0.028,1.000,-0.164,15.443,11.840,3.664,98.799,1.747,1.014,19.801,1,1,3.263
1777493496193,0.028,1.001,-0.169,15.748,9.069,-2.855,99.014,0.851,1.016,18.396,1,1,3.276
1777493496207,-0.023,1.003,-0.162,15.351,8.504,-4.702,99.052,0.967,1.016,18.168,1,1,3.937
1777493496221,-0.041,0.992,-0.174,14.725,7.237,-6.389,99.287,1.335,1.008,17.607,1,1,3.283
1777493496234,-0.062,0.994,-0.172,14.290,5.779,-5.687,99.427,1.932,1.011,16.430,1,1,3.265
1777493496247,-0.092,0.999,-0.193,13.824,5.351,-3.794,99.839,2.802,1.022,15.302,1,1,3.262
1777493496261,-0.103,0.997,-0.187,13.366,6.076,-1.359,100.047,3.604,1.020,14.745,1,1,3.271
1777493496274,-0.110,0.993,-0.184,12.626,7.359,1.336,100.163,4.315,1.016,14.675,1,1,3.937
1777493496288,-0.082,0.998,-0.185,9.740,7.534,3.168,100.258,4.401,1.019,12.715,1,1,3.278
1777493496302,-0.066,1.005,-0.170,9.260,8.702,3.031,100.080,4.219,1.021,13.063,1,1,3.264
1777493496315,-0.057,1.011,-0.155,9.863,10.069,3.641,99.715,3.943,1.025,14.557,1,1,3.268
1777493496328,-0.038,1.005,-0.189,11.733,9.893,2.832,99.974,3.454,1.024,15.606,1,1,3.270
1777493496342,-0.029,1.001,-0.204,11.656,7.618,0.817,100.397,2.954,1.022,13.949,1,1,3.932
1777493496356,-0.038,0.998,-0.205,12.046,5.641,-1.863,100.730,2.738,1.019,13.431,1,1,3.273
1777493496369,-0.043,0.994,-0.203,12.931,4.725,-3.000,100.954,2.653,1.016,14.091,1,1,3.268
1777493496382,-0.055,0.994,-0.201,13.145,4.031,-3.244,101.083,2.782,1.016,14.127,1,1,3.268
1777493496396,-0.053,0.999,-0.199,12.496,3.298,-3.947,101.132,2.842,1.020,13.513,1,1,3.283
1777493496409,-0.052,0.999,-0.206,13.092,2.710,-4.977,101.269,2.855,1.022,14.266,1,1,3.933
1777493496423,-0.068,1.002,-0.209,13.969,2.313,-5.908,101.405,3.105,1.025,15.343,1,1,3.275
1777493496437,-0.059,0.987,-0.229,14.053,2.252,-6.580,101.848,3.160,1.015,15.680,1,1,3.264
1777493496450,-0.074,0.993,-0.223,13.771,2.290,-6.183,102.073,3.426,1.020,15.268,1,1,3.286
1777493496463,-0.081,0.984,-0.222,13.382,2.992,-3.916,102.240,3.745,1.012,14.260,1,1,3.268
1777493496477,-0.079,0.994,-0.212,13.992,3.450,-2.954,102.193,3.932,1.019,14.711,1,1,3.937
1777493496491,-0.050,0.994,-0.230,14.443,3.130,-3.053,102.415,3.632,1.021,15.090,1,1,3.273
1777493496504,-0.041,1.007,-0.230,14.748,1.786,-5.565,102.540,3.258,1.034,15.864,1,1,3.259
1777493496518,-0.066,0.993,-0.241,14.656,0.939,-7.160,102.834,3.371,1.024,16.339,1,1,3.280
1777493496531,-0.070,0.987,-0.238,14.397,0.481,-7.962,103.030,3.527,1.018,16.459,1,1,3.266
1777493496544,-0.065,0.987,-0.240,13.466,-0.153,-8.527,103.196,3.563,1.018,15.939,1,1,3.994
1777493496558,-0.070,0.996,-0.245,13.672,-0.656,-9.374,103.369,3.649,1.028,16.590,1,1,3.269
1777493496572,-0.092,0.995,-0.247,13.550,-0.542,-8.878,103.522,4.042,1.029,16.208,1,1,3.269
1777493496585,-0.100,0.989,-0.249,12.847,0.359,-7.084,103.684,4.468,1.025,14.675,1,1,3.276
1777493496599,-0.121,0.980,-0.248,12.305,1.847,-3.733,103.824,5.102,1.018,12.991,1,1,3.262
1777493496612,-0.097,0.995,-0.254,12.183,2.366,-1.023,103.953,5.177,1.031,12.453,1,1,3.946
1777493496626,-0.098,0.993,-0.252,12.489,3.656,1.282,104.028,5.256,1.030,13.076,1,1,3.273
1777493496639,-0.131,0.985,-0.257,12.405,4.908,4.534,104.192,5.816,1.026,14.090,1,1,3.262
1777493496653,-0.065,1.007,-0.253,13.725,4.511,3.863,104.174,5.219,1.041,14.955,1,1,3.276
1777493496666,-0.068,0.986,-0.271,13.786,3.344,0.573,104.489,4.831,1.025,14.197,1,1,3.261
1777493496679,-0.024,1.005,-0.252,13.733,0.863,-6.466,104.378,3.883,1.036,15.203,4,1,3.992
1777493496694,-0.034,1.006,-0.271,12.550,-1.595,-13.534,104.566,3.335,1.043,18.526,4,1,3.269
1777493496707,-0.049,0.993,-0.276,11.405,-4.443,-17.748,104.831,3.170,1.032,21.559,4,1,3.264
1777493496720,-0.072,0.984,-0.286,10.023,-5.458,-20.863,105.200,3.396,1.027,23.780,4,1,3.272
1777493496734,-0.091,0.967,-0.292,8.053,-6.481,-22.008,105.633,3.867,1.014,24.315,4,1,3.265
1777493496747,-0.107,0.970,-0.297,6.580,-7.405,-22.527,106.001,4.443,1.020,24.609,4,1,3.941
1777493496761,-0.120,0.962,-0.283,5.290,-7.786,-20.336,106.108,5.091,1.010,22.409,4,1,3.264
1777493496774,-0.139,0.968,-0.289,4.641,-7.908,-18.840,106.250,5.836,1.019,20.953,4,1,3.261
1777493496788,-0.114,0.972,-0.283,4.519,-7.847,-18.168,106.243,5.988,1.018,20.300,4,1,3.265
1777493496801,-0.127,0.986,-0.283,4.916,-7.885,-17.748,106.176,6.272,1.034,20.034,4,1,3.268
1777493496814,-0.130,0.984,-0.275,5.344,-7.664,-17.641,106.019,6.543,1.030,19.963,4,1,3.930
1777493496828,-0.152,0.971,-0.281,5.725,-7.023,-16.023,106.055,7.090,1.023,18.407,4,1,3.263
1777493496842,-0.175,0.963,-0.298,5.840,-5.824,-12.725,106.366,7.829,1.023,15.164,4,1,3.274
1777493496855,-0.168,0.966,-0.298,5.931,-4.427,-10.092,106.575,8.260,1.025,12.515,4,1,3.265
1777493496869,-0.164,0.965,-0.292,5.748,-2.687,-6.817,106.645,8.521,1.022,9.313,4,1,3.267
1777493496882,-0.145,0.964,-0.299,5.626,-1.832,-4.725,106.809,8.425,1.020,7.572,1,1,3.926
1777493496896,-0.172,0.962,-0.282,5.679,-0.092,-1.504,106.683,8.783,1.018,5.876,1,1,3.269
1777493496909,-0.164,0.970,-0.291,5.725,1.267,1.573,106.688,8.896,1.026,6.071,1,1,3.265
1777493496923,-0.153,0.969,-0.289,6.191,1.832,2.740,106.661,8.816,1.022,7.014,1,1,3.265
1777493496936,-0.154,0.987,-0.286,7.031,2.031,3.458,106.524,8.741,1.039,8.094,1,1,3.267
1777493496949,-0.153,0.973,-0.300,7.534,3.046,5.092,106.682,8.689,1.030,9.590,1,1,3.963
1777493496963,-0.159,0.963,-0.306,7.687,3.809,6.611,106.939,8.764,1.023,10.831,1,1,3.264
1777493496977,-0.155,0.973,-0.295,8.298,4.809,8.557,106.915,8.739,1.028,12.853,1,1,3.269
1777493496990,-0.152,0.978,-0.304,9.107,5.817,10.511,107.019,8.664,1.035,15.075,1,1,3.266
1777493497003,-0.141,0.966,-0.303,9.710,6.832,12.115,107.127,8.468,1.022,16.962,1,1,3.263
1777493497017,-0.115,0.970,-0.320,9.977,5.832,11.031,107.435,7.923,1.028,15.976,4,1,3.917
1777493497031,-0.121,0.983,-0.314,10.282,4.847,8.885,107.512,7.583,1.039,14.428,4,1,3.262
1777493497044,-0.102,0.995,-0.313,11.122,3.397,6.084,107.505,7.047,1.048,13.125,4,1,3.270
1777493497058,-0.118,0.985,-0.314,11.504,3.069,4.870,107.561,6.905,1.040,12.864,4,1,3.268
1777493497071,-0.119,0.974,-0.326,11.405,2.878,3.832,107.820,6.826,1.034,12.371,4,1,3.258
1777493497084,-0.118,0.965,-0.320,11.321,2.573,3.359,107.963,6.773,1.024,12.085,4,4,3.931
1777493497098,-0.120,0.969,-0.330,10.924,2.832,4.015,108.193,6.744,1.030,11.978,4,4,3.261
1777493497112,-0.119,0.949,-0.323,10.405,4.137,6.611,108.353,6.746,1.009,13.003,4,4,3.276
1777493497125,-0.149,0.943,-0.340,9.985,6.412,9.931,108.743,7.210,1.014,15.474,4,4,3.266
1777493497138,-0.138,0.942,-0.346,9.779,7.832,13.160,109.129,7.385,1.013,18.170,4,4,3.261
1777493497152,-0.132,0.948,-0.352,9.687,9.374,15.450,109.471,7.404,1.020,20.504,1,4,3.920
1777493497166,-0.122,0.950,-0.354,9.924,9.969,16.397,109.726,7.263,1.021,21.604,1,4,3.261
1777493497179,-0.086,0.959,-0.350,9.611,9.740,16.595,109.809,6.608,1.025,21.509,1,4,3.273
1777493497192,-0.101,0.958,-0.354,9.580,9.870,16.565,109.946,6.342,1.026,21.531,1,4,3.258
1777493497206,-0.040,0.957,-0.347,9.466,7.580,13.069,109.939,5.238,1.018,17.828,1,4,3.266
1777493497219,-0.031,1.001,-0.349,9.229,3.244,6.458,109.748,4.272,1.060,11.722,4,4,3.909
1777493497233,-0.051,0.988,-0.354,9.374,1.771,3.786,109.737,3.866,1.051,10.264,4,4,3.269
1777493497246,-0.072,0.985,-0.352,9.435,-0.298,1.176,109.711,3.879,1.048,9.513,4,4,3.282
1777493497260,-0.079,0.986,-0.357,9.046,-0.924,0.947,109.768,3.996,1.051,9.142,4,4,3.254
1777493497273,-0.107,0.989,-0.359,10.122,-0.878,1.122,109.821,4.492,1.057,10.222,4,4,3.256
1777493497287,-0.116,1.013,-0.432,11.092,-0.664,-0.397,110.705,4.909,1.108,11.119,4,4,3.926
1777493497301,-0.170,1.012,-0.337,11.847,-0.282,1.519,110.089,6.034,1.080,11.948,4,4,3.267
1777493497314,-0.108,0.984,-0.372,12.618,-0.198,2.008,110.261,5.986,1.057,12.779,4,4,3.268
1777493497327,-0.103,0.981,-0.370,12.603,-0.473,3.611,110.367,5.885,1.054,13.119,4,4,3.258
1777493497341,-0.107,0.977,-0.363,13.977,0.565,5.534,110.378,5.885,1.047,15.044,4,4,3.264
1777493497354,-0.124,0.971,-0.376,15.260,2.237,7.718,110.588,6.123,1.049,17.246,4,4,3.928
1777493497368,-0.101,0.995,-0.368,16.015,3.282,9.336,110.508,5.932,1.066,18.826,4,4,3.254
1777493497381,-0.074,1.050,-0.374,16.931,3.885,10.107,110.266,5.358,1.117,20.098,4,4,3.263
1777493497395,-0.123,1.035,-0.393,18.603,3.221,11.084,110.410,5.617,1.114,21.893,4,4,3.259
1777493497408,-0.154,0.998,-0.397,20.115,5.115,15.756,110.751,6.301,1.085,26.058,4,4,3.281
1777493497421,-0.034,1.021,-0.397,21.359,4.489,14.802,110.889,5.078,1.096,26.371,4,4,3.917
1777493497435,-0.043,1.018,-0.412,23.130,2.237,13.725,111.202,4.318,1.099,26.988,4,4,3.266
1777493497449,-0.052,1.043,-0.409,25.527,0.702,13.290,111.260,3.869,1.122,28.788,4,4,3.272
1777493497463,-0.058,1.012,-0.416,27.412,0.061,13.237,111.545,3.642,1.096,30.441,4,4,3.251
1777493497476,-0.059,1.053,-0.434,31.382,-2.252,13.260,111.770,3.457,1.140,34.142,4,4,3.266
1777493497489,-0.104,1.148,-0.441,35.534,-4.092,13.069,111.564,3.832,1.234,38.082,4,4,3.913
1777493497503,-0.908,-0.240,-0.372,27.305,10.450,-3.969,41.649,20.093,1.010,29.505,4,4,3.264
1777493497517,0.199,1.025,-0.501,38.954,-5.725,11.137,61.746,11.990,1.158,40.918,4,4,3.270
1777493497530,-0.129,1.061,-0.408,35.397,1.779,2.962,75.063,10.495,1.144,35.565,4,4,3.258
1777493497543,0.000,1.013,-0.446,37.740,0.115,6.527,85.523,7.653,1.107,38.301,4,4,3.278
1777493497557,-0.017,1.038,-0.456,39.344,-2.725,5.260,93.137,5.815,1.134,39.787,4,4,3.923
1777493497571,-0.023,1.010,-0.453,41.183,-4.878,1.000,98.809,4.568,1.107,41.483,4,4,3.266
1777493497584,0.027,1.016,-0.461,43.023,-8.618,-0.397,103.020,2.958,1.116,43.879,4,4,3.265
1777493497597,0.030,1.008,-0.467,45.008,-11.916,-2.977,106.212,1.744,1.111,46.653,4,4,3.259
1777493497611,0.010,0.994,-0.471,46.405,-14.634,-4.603,108.682,1.125,1.100,48.874,4,4,3.279
1777493497624,0.000,0.986,-0.491,47.725,-16.313,-2.366,110.787,0.818,1.102,50.492,4,4,3.907
1777493497638,-0.043,0.955,-0.496,48.901,-17.603,-2.244,112.582,1.218,1.077,52.021,4,4,3.268
1777493497652,-0.078,0.929,-0.498,50.359,-16.229,-2.252,114.097,2.034,1.057,52.957,4,4,3.273
1777493497665,-0.081,0.908,-0.515,51.038,-16.649,-2.611,115.574,2.684,1.047,53.748,4,4,3.251
1777493497679,-0.085,0.889,-0.539,51.206,-17.481,-4.183,117.097,3.218,1.043,54.269,4,4,3.275
1777493497692,-0.073,0.918,-0.533,51.824,-19.015,-7.221,117.923,3.415,1.064,55.673,4,4,3.918
1777493497706,-0.077,0.911,-0.550,51.840,-18.084,-7.779,118.781,3.613,1.067,55.452,4,4,3.273
1777493497719,-0.100,0.913,-0.557,52.679,-18.786,-7.664,119.484,4.074,1.074,56.452,4,4,3.266
1777493497733,-0.176,0.916,-0.567,52.504,-15.824,-4.053,120.098,5.477,1.092,54.986,4,4,3.265
1777493497746,-0.138,0.899,-0.573,53.527,-13.198,-4.634,120.743,5.989,1.075,55.324,4,4,3.273
1777493497759,-0.146,0.893,-0.586,53.855,-9.672,-3.611,121.424,6.471,1.078,54.836,4,4,3.913
1777493497773,-0.137,0.888,-0.578,54.832,-7.763,-1.718,121.867,6.715,1.069,55.406,4,4,3.271
1777493497787,-0.152,0.874,-0.602,55.588,-4.122,-1.092,122.595,7.097,1.072,55.751,4,4,3.266
1777493497800,-0.142,0.871,-0.607,56.672,-1.336,-0.656,123.213,7.240,1.071,56.691,4,4,3.260
1777493497813,-0.134,0.872,-0.620,58.618,0.870,0.779,123.808,7.209,1.078,58.630,4,4,3.266
1777493497827,-0.162,0.883,-0.627,59.840,5.687,1.740,124.232,7.561,1.095,60.135,4,4,3.912
1777493497841,-0.157,0.871,-0.627,61.282,7.107,0.977,124.648,7.770,1.085,61.701,4,4,3.284
1777493497854,-0.143,0.883,-0.634,62.534,9.931,-0.542,124.925,7.694,1.096,63.320,4,4,3.285
1777493497868,-0.146,0.887,-0.651,63.725,11.130,-2.504,125.294,7.664,1.110,64.738,4,4,3.256
1777493497881,-0.108,0.878,-0.647,65.351,14.611,-5.176,125.593,7.116,1.096,67.164,4,4,3.270
1777493497894,-0.072,0.886,-0.661,68.565,12.588,-5.649,125.893,6.197,1.108,69.939,4,4,3.921
1777493497908,-0.078,0.899,-0.667,71.580,12.069,-8.496,126.080,5.601,1.122,73.086,4,4,3.288
1777493497922,-0.080,0.893,-0.667,74.656,10.992,-12.382,126.259,5.195,1.117,76.470,4,4,3.257
1777493497935,-0.079,0.927,-0.676,78.756,11.290,-12.550,126.217,4.860,1.150,80.545,4,4,3.265
1777493497948,-0.106,0.936,-0.689,83.695,14.160,-11.557,126.257,4.961,1.167,85.667,4,4,3.272
1777493497962,-0.135,0.936,-0.716,89.969,18.053,-13.366,126.570,5.392,1.187,92.731,4,4,3.926
1777493497976,-0.139,0.926,-0.781,96.046,25.435,-10.031,127.539,5.699,1.220,99.862,4,4,3.272
1777493497989,-0.101,0.873,-0.802,103.458,28.901,-5.084,128.905,5.473,1.190,107.539,4,4,3.263
1777493498003,-0.012,0.874,-0.718,112.847,25.527,-5.336,129.035,4.158,1.131,115.821,4,4,3.282
1777493498016,-0.134,0.827,-0.794,121.603,28.947,-10.405,130.334,4.829,1.155,125.433,4,4,3.267
1777493498029,-0.096,0.934,-1.007,127.794,27.458,-15.267,132.180,4.607,1.377,131.599,4,4,3.922
1777493498043,-0.118,0.576,-0.960,130.229,35.252,-18.168,136.735,4.983,1.126,136.134,4,4,3.273
1777493498057,-0.119,0.762,-0.938,137.137,39.267,-30.130,137.862,5.154,1.215,145.796,4,4,3.267
1777493498071,-0.369,0.677,-0.833,137.588,71.901,-26.427,138.683,8.886,1.135,157.475,4,4,3.280
1777493498084,-0.142,0.663,-0.841,140.023,84.702,-24.053,139.511,8.530,1.080,165.407,4,4,3.263
1777493498097,-0.059,0.613,-0.820,141.802,82.412,-28.740,140.519,7.114,1.025,166.510,4,4,3.986
1777493498111,0.045,0.523,-0.932,148.817,73.053,-26.534,143.268,4.546,1.070,167.891,4,4,3.271
1777493498125,-0.060,0.061,-0.942,102.481,26.916,-22.122,152.186,4.297,0.946,108.241,4,4,3.259
1777493498138,-0.656,-0.433,-0.815,-3.176,55.229,-28.328,69.998,12.693,1.132,62.152,4,4,3.273
1777493498151,-0.002,0.283,-0.957,-52.420,42.336,-2.885,95.263,9.295,0.998,67.443,4,4,3.263
1777493498165,-0.298,0.476,-0.354,-79.893,38.916,-14.489,103.742,13.983,0.664,90.040,4,4,3.944
1777493498179,-0.984,-0.440,0.331,-170.794,146.031,-34.534,61.391,26.626,1.128,227.350,4,4,3.260
1777493498192,-0.348,0.851,0.258,-191.137,194.641,11.198,64.568,25.200,0.955,273.028,4,4,3.264
1777493498206,0.354,0.727,0.024,-159.733,176.756,25.237,70.919,11.390,0.809,239.571,4,4,3.288
1777493498219,0.303,0.516,0.095,-177.153,164.931,24.015,73.256,0.205,0.606,243.233,4,4,3.261
1777493498232,0.435,0.816,0.119,-170.466,126.641,32.710,75.545,-7.367,0.933,214.864,4,4,3.948
1777493498246,0.368,0.640,0.100,-169.817,83.000,9.405,77.061,-13.372,0.745,189.249,4,4,3.272
1777493498260,0.312,0.761,0.052,-172.687,51.695,-12.565,79.491,-15.768,0.824,180.696,4,4,3.267
1777493498273,0.322,0.857,-0.059,-167.763,21.397,-23.725,83.399,-17.054,0.918,170.778,4,4,3.273
1777493498287,0.245,0.826,-0.136,-168.893,-4.160,-27.069,87.708,-16.855,0.872,171.099,4,4,3.260
1777493498300,0.073,0.810,-0.134,-181.977,-14.733,-37.244,90.860,-13.669,0.824,186.333,4,4,3.957
1777493498314,-0.034,0.933,-0.185,-197.672,-11.855,-50.466,93.659,-9.428,0.952,204.356,4,4,3.271
1777493498327,0.016,1.122,-0.278,-204.511,-6.237,-50.595,96.425,-7.094,1.156,210.769,4,4,3.260
1777493498341,0.135,1.236,-0.371,-202.267,-6.168,-50.023,99.204,-6.794,1.298,208.452,4,4,3.274
1777493498354,0.237,1.277,-0.413,-198.176,-15.840,-55.046,101.554,-7.664,1.363,206.287,4,4,3.260
1777493498368,0.286,1.306,-0.418,-194.145,-30.855,-59.076,103.227,-8.772,1.401,205.266,5,4,3.964
1777493498382,0.330,1.314,-0.450,-194.366,-47.038,-64.137,104.756,-10.016,1.428,210.011,5,4,3.262
1777493498395,0.325,1.396,-0.471,-192.679,-59.031,-57.168,105.803,-10.675,1.509,209.471,5,4,3.259
1777493498408,0.272,1.411,-0.486,-188.076,-64.687,-53.092,106.669,-10.584,1.517,205.854,5,4,3.280
1777493498422,0.155,1.401,-0.516,-183.588,-64.359,-49.924,107.632,-9.326,1.501,200.845,5,4,3.261
1777493498435,0.078,1.404,-0.529,-180.000,-60.511,-49.061,108.449,-7.609,1.503,196.134,5,4,3.939
1777493498449,0.037,1.466,-0.591,-170.832,-56.931,-44.786,109.401,-5.912,1.581,185.555,5,4,3.265
1777493498462,0.019,1.450,-0.658,-157.992,-54.908,-42.458,110.756,-4.498,1.593,172.567,5,4,3.266
1777493498476,0.039,1.397,-0.698,-147.084,-61.374,-45.328,112.324,-3.670,1.562,165.696,5,4,3.262
1777493498489,0.054,1.354,-0.709,-138.573,-73.672,-45.344,113.765,-3.229,1.529,163.358,5,4,3.254
1777493498503,0.056,1.322,-0.711,-130.489,-88.802,-45.695,114.980,-2.931,1.502,164.320,1,4,3.959
1777493498517,0.031,1.296,-0.714,-120.427,-101.290,-43.519,116.023,-2.468,1.480,163.268,1,4,3.267
1777493498530,0.029,1.253,-0.733,-109.809,-109.366,-42.580,117.185,-2.114,1.452,160.724,1,4,3.269
1777493498543,-0.017,1.228,-0.753,-98.992,-112.511,-38.740,118.354,-1.364,1.440,154.787,1,4,3.268
1777493498557,-0.050,1.136,-0.795,-90.656,-109.069,-37.962,120.143,-0.437,1.388,146.819,1,4,3.262
1777493498570,-0.098,1.093,-0.825,-83.878,-99.084,-36.611,122.003,0.783,1.373,134.883,1,4,3.943
1777493498584,-0.124,1.079,-0.852,-72.748,-87.160,-33.901,123.705,1.961,1.381,118.484,1,4,3.259
1777493498597,-0.204,1.060,-0.895,-60.008,-73.176,-33.160,125.449,3.695,1.402,100.276,1,4,3.262
1777493498611,-0.232,1.031,-0.920,-46.351,-58.076,-36.229,127.145,5.267,1.401,82.667,1,4,3.261
1777493498624,-0.204,1.000,-0.918,-31.855,-46.458,-35.206,128.602,6.148,1.373,66.427,1,4,3.262
1777493498638,-0.135,0.974,-0.928,-15.435,-36.153,-31.740,129.957,6.038,1.353,50.524,1,4,3.938
1777493498652,-0.115,0.905,-0.946,-4.496,-27.618,-27.901,131.660,5.757,1.314,39.515,1,4,3.263
1777493498665,-0.067,0.929,-0.906,6.931,-21.992,-22.519,132.373,5.005,1.300,32.231,1,4,3.311
1777493498678,-0.080,0.977,-0.898,24.298,-19.779,-16.794,132.432,4.586,1.329,35.547,1,4,3.262
1777493498692,0.067,0.849,-0.866,44.466,-30.718,7.382,133.278,2.497,1.215,54.546,1,4,3.259
1777493498705,0.210,0.171,-0.504,24.473,-25.206,27.977,140.823,-3.989,0.572,44.911,1,1,3.929
1777493498719,0.362,1.647,1.041,-12.947,-46.244,34.863,118.373,-5.753,1.982,59.343,1,1,3.262
1777493498733,-0.489,3.007,2.269,45.779,-58.809,18.328,100.702,-2.203,3.799,76.747,1,1,3.282
1777493498746,-0.153,0.698,0.253,74.420,-34.710,38.916,92.428,1.545,0.758,90.871,1,1,3.266
1777493498759,0.115,0.785,-0.434,60.214,0.771,47.153,99.597,-0.842,0.904,76.483,1,1,3.271
1777493498773,0.257,1.024,-0.647,67.412,8.450,-1.450,105.728,-3.845,1.238,67.955,1,1,3.921
1777493498787,-0.005,0.858,-0.516,37.992,21.290,-12.176,109.861,-2.727,1.001,45.221,1,1,3.256
1777493498800,0.053,1.066,-0.251,31.000,30.229,-33.878,108.071,-2.742,1.096,54.977,1,1,3.277
1777493498813,0.031,1.008,-0.111,25.481,24.557,-55.534,104.881,-2.474,1.015,65.851,1,1,3.267
1777493498827,-0.184,1.014,-0.018,13.344,14.626,-51.420,101.140,0.965,1.031,55.100,1,1,3.267
1777493498840,-0.217,0.998,-0.084,17.099,3.618,-35.282,99.430,4.003,1.025,39.374,1,1,3.932
1777493498854,-0.263,0.966,-0.078,21.435,-4.817,-16.725,98.123,7.022,1.004,27.612,1,1,3.266
1777493498868,-0.269,0.955,-0.038,22.740,-2.183,-2.008,96.546,9.375,0.993,22.933,1,1,3.380
1777493498881,-0.277,0.966,-0.042,23.137,8.427,12.321,95.458,11.167,1.006,27.535,1,1,3.267
1777493498894,-0.246,0.985,-0.085,24.756,17.855,24.099,95.316,11.920,1.018,38.890,1,1,3.253
1777493498908,-0.164,1.004,-0.076,26.321,22.649,31.870,95.055,11.197,1.020,47.132,1,1,3.890
1777493498922,-0.091,1.004,-0.096,28.710,22.611,35.550,95.161,9.569,1.013,50.983,1,1,3.256
1777493498935,-0.036,0.998,-0.154,28.809,22.931,31.939,96.137,7.538,1.010,48.743,1,1,3.268
1777493498948,0.012,0.985,-0.171,28.260,23.076,24.496,97.135,5.312,1.000,43.945,1,1,3.255
1777493498962,-0.014,1.012,-0.146,27.145,21.603,18.267,97.422,4.088,1.022,39.208,1,1,3.259
1777493498975,0.036,1.021,-0.150,25.168,16.137,12.916,97.676,2.449,1.033,32.568,1,1,3.891
1777493498989,0.019,1.005,-0.179,22.099,7.878,5.824,98.333,1.503,1.021,24.174,1,1,3.255
1777493499003,-0.012,0.994,-0.177,18.634,6.405,-1.885,98.805,1.276,1.010,19.794,1,1,3.256
1777493499016,-0.015,0.987,-0.193,15.985,2.901,-9.695,99.415,1.168,1.005,18.919,1,1,3.246
1777493499029,-0.050,0.992,-0.188,14.122,-0.565,-13.000,99.762,1.615,1.011,19.203,1,1,3.276
1777493499043,-0.094,0.984,-0.191,13.229,-0.107,-12.710,100.091,2.626,1.007,18.346,1,1,3.892
1777493499057,-0.129,0.979,-0.187,13.069,-0.107,-9.695,100.290,3.903,1.005,16.272,1,1,3.262
1777493499070,-0.140,0.986,-0.191,10.885,0.450,-4.969,100.470,4.995,1.014,11.975,1,1,3.333
1777493499083,-0.118,0.993,-0.170,5.214,1.763,0.076,100.267,5.456,1.015,5.504,1,1,3.252
1777493499097,-0.175,0.977,-0.145,6.916,4.985,5.954,99.768,6.702,1.003,10.399,1,1,3.270
1777493499110,-0.101,1.014,-0.163,9.908,6.702,7.901,99.598,6.414,1.032,14.336,1,1,3.924
1777493499124,-0.047,1.009,-0.170,12.252,7.863,6.427,99.591,5.386,1.024,15.914,1,1,3.273
1777493499138,-0.024,0.999,-0.193,13.015,5.832,0.550,99.958,4.295,1.018,14.273,1,1,3.269
1777493499151,-0.029,1.003,-0.204,13.855,3.305,-5.542,100.373,3.566,1.024,15.284,1,1,3.262
1777493499164,-0.054,1.001,-0.195,14.412,2.267,-9.076,100.552,3.424,1.022,17.182,1,1,3.284
1777493499178,-0.058,0.998,-0.197,14.496,0.458,-15.214,100.714,3.386,1.019,21.019,1,1,3.919
1777493499192,-0.114,1.004,-0.193,14.885,0.687,-14.931,100.759,4.184,1.028,21.095,1,1,3.263
1777493499205,-0.126,0.981,-0.206,15.191,1.496,-12.344,101.054,4.985,1.010,19.631,1,1,3.263
1777493499218,-0.081,0.995,-0.207,14.855,1.534,-11.916,101.247,4.863,1.019,19.105,1,1,3.252
1777493499232,-0.104,0.988,-0.208,14.534,1.489,-10.580,101.418,5.146,1.015,18.039,1,1,3.283
1777493499245,-0.107,0.998,-0.202,14.412,2.122,-8.534,101.419,5.372,1.024,16.883,1,1,3.925
1777493499259,-0.116,0.993,-0.213,14.023,2.382,-6.351,101.611,5.681,1.022,15.577,1,1,3.268
1777493499272,-0.109,0.998,-0.206,13.336,2.321,-5.000,101.618,5.790,1.025,14.430,1,1,3.272
1777493499286,-0.118,0.989,-0.221,13.649,3.366,-2.817,101.888,6.014,1.021,14.337,1,1,3.257
1777493499299,-0.105,0.987,-0.219,13.305,3.298,-0.565,102.061,5.999,1.016,13.720,1,1,3.266
1777493499313,-0.123,0.986,-0.226,13.038,4.130,2.069,102.296,6.256,1.019,13.832,1,1,3.926
1777493499327,-0.080,1.016,-0.213,12.580,3.038,0.824,102.174,5.754,1.042,12.968,1,1,3.280
1777493499340,-0.095,0.995,-0.232,12.695,3.305,-0.527,102.438,5.630,1.026,13.128,1,1,3.269
1777493499353,-0.052,0.997,-0.241,11.695,0.519,-5.267,102.752,4.886,1.027,12.837,1,1,3.263
1777493499367,-0.081,0.985,-0.240,11.023,-0.794,-8.870,103.015,4.794,1.017,14.171,1,1,3.265
1777493499380,-0.100,0.988,-0.236,10.298,-1.366,-9.985,103.132,5.011,1.021,14.408,1,1,3.936
1777493499394,-0.122,0.987,-0.250,9.885,-1.611,-9.244,103.418,5.505,1.025,13.630,1,1,3.268
1777493499407,-0.122,0.984,-0.244,9.649,-1.107,-7.687,103.551,5.877,1.021,12.386,1,1,3.266
1777493499421,-0.135,0.977,-0.240,9.740,1.015,-4.115,103.613,6.359,1.015,10.622,1,1,3.266
1777493499434,-0.159,0.968,-0.247,10.160,3.763,2.031,103.796,7.080,1.011,11.024,1,1,3.277
1777493499448,-0.128,0.985,-0.253,10.718,5.290,6.435,103.960,7.101,1.025,13.574,1,1,3.919
1777493499462,-0.122,0.974,-0.253,10.840,6.336,8.344,104.125,7.043,1.014,15.075,1,1,3.280
1777493499475,-0.097,0.976,-0.254,10.802,5.076,7.008,104.253,6.628,1.013,13.840,1,1,3.344
1777493499488,-0.101,0.994,-0.257,11.076,5.130,7.153,104.314,6.353,1.031,14.148,1,1,3.265
1777493499502,-0.122,0.977,-0.265,11.802,5.412,8.359,104.550,6.487,1.019,15.441,1,1,3.259
1777493499515,-0.140,0.980,-0.271,11.931,6.191,11.084,104.787,6.858,1.027,17.422,1,1,3.924
1777493499529,-0.135,0.979,-0.268,12.626,7.779,15.015,104.927,7.053,1.024,21.104,1,1,3.279
1777493499542,-0.132,0.976,-0.277,12.802,9.519,18.076,105.176,7.155,1.023,24.109,1,1,3.259
1777493499556,-0.080,0.978,-0.273,13.115,9.985,18.626,105.285,6.433,1.018,24.872,1,1,3.277
1777493499569,-0.034,1.000,-0.281,12.069,6.931,13.229,105.401,5.204,1.039,19.202,1,1,3.266
1777493499583,-0.054,1.002,-0.277,11.626,5.076,8.542,105.412,4.597,1.041,15.294,1,1,3.943
1777493499597,-0.031,0.992,-0.292,11.176,2.611,3.290,105.681,3.815,1.035,11.939,1,1,3.268
1777493499610,-0.064,0.991,-0.294,10.985,1.496,0.595,105.914,3.744,1.036,11.102,1,1,3.252
1777493499623,-0.077,0.984,-0.290,10.748,0.947,0.382,106.045,3.899,1.029,10.796,1,1,3.275
1777493499637,-0.112,0.974,-0.295,10.832,1.863,2.237,106.258,4.547,1.024,11.216,1,1,3.264
1777493499650,-0.118,0.976,-0.292,11.053,3.855,5.023,106.364,5.105,1.026,12.738,1,1,3.983
1777493499664,-0.097,0.977,-0.305,10.847,4.641,6.863,106.628,5.185,1.028,13.649,1,1,3.274
1777493499678,-0.077,0.981,-0.301,10.168,5.069,7.863,106.740,4.949,1.029,13.817,1,1,3.280
1777493499691,-0.058,0.981,-0.301,9.298,4.710,7.489,106.820,4.484,1.027,12.834,1,1,3.276
1777493499704,-0.057,0.977,-0.304,8.504,3.733,6.908,106.940,4.136,1.025,11.575,1,1,3.255
1777493499718,-0.061,0.979,-0.305,8.176,3.374,6.611,107.044,3.931,1.027,11.042,4,1,3.916
1777493499732,-0.074,0.975,-0.312,7.634,2.901,6.748,107.229,3.983,1.026,10.594,4,1,3.274
1777493499745,-0.072,0.980,-0.313,7.534,2.962,6.992,107.365,3.981,1.032,10.697,4,1,3.264
1777493499758,-0.072,0.985,-0.318,7.649,2.695,6.733,107.511,3.977,1.038,10.540,4,1,3.273
1777493499772,-0.061,0.983,-0.315,7.305,2.481,5.725,107.575,3.809,1.034,9.607,4,1,3.262
1777493499785,0.005,0.992,-0.321,7.221,0.977,3.427,107.670,2.708,1.042,8.053,1,1,3.938
1777493499799,-0.056,0.980,-0.314,7.137,2.130,4.214,107.693,2.813,1.030,8.558,1,1,3.272
1777493499813,-0.054,0.988,-0.320,8.053,2.084,3.466,107.760,2.860,1.040,9.012,1,1,3.256
1777493499826,-0.048,0.979,-0.321,8.511,1.847,2.206,107.865,2.806,1.032,8.985,1,1,3.263
1777493499839,-0.056,0.980,-0.319,8.672,1.595,2.183,107.909,2.887,1.032,9.084,1,1,3.264
1777493499853,-0.059,0.978,-0.331,9.000,1.534,2.130,108.128,2.985,1.034,9.375,4,1,3.937
1777493499867,-0.055,0.979,-0.332,8.649,1.092,1.565,108.297,3.004,1.035,8.857,4,1,3.268
1777493499880,-0.042,0.980,-0.333,8.397,0.336,0.290,108.424,2.816,1.036,8.409,4,1,3.269
1777493499893,-0.053,0.983,-0.330,8.702,0.267,-0.168,108.454,2.853,1.038,8.708,4,1,3.266
1777493499907,-0.068,0.985,-0.324,9.145,0.427,0.137,108.391,3.098,1.039,9.156,4,1,3.251
1777493499920,-0.074,0.985,-0.331,10.290,0.992,0.763,108.435,3.357,1.041,10.366,1,1,3.925
1777493499934,-0.053,0.979,-0.340,11.267,1.145,1.122,108.622,3.241,1.038,11.381,1,1,3.267
1777493499948,-0.047,0.991,-0.345,11.756,0.550,0.053,108.772,3.053,1.050,11.769,1,1,3.265
1777493499961,-0.054,0.983,-0.342,11.489,0.092,-0.649,108.886,3.037,1.042,11.507,1,1,3.272
1777493499974,-0.051,0.981,-0.342,11.847,-0.298,-1.115,108.978,2.968,1.041,11.903,1,1,3.263
1777493499988,-0.052,0.992,-0.353,11.702,-0.809,-1.466,109.145,2.930,1.054,11.821,4,1,3.940
1777493500002,-0.064,0.986,-0.350,12.237,-0.985,-1.947,109.251,3.084,1.048,12.430,4,1,3.260
1777493500015,-0.080,0.979,-0.350,13.168,-0.794,-1.427,109.365,3.440,1.043,13.269,4,1,3.263
1777493500028,-0.080,0.972,-0.358,14.481,-0.053,-0.084,109.590,3.698,1.039,14.481,4,1,3.273
1777493500042,-0.082,0.979,-0.360,15.679,0.916,1.198,109.755,3.907,1.046,15.752,4,1,3.265
1777493500055,-0.062,0.982,-0.369,16.931,0.672,1.244,109.985,3.765,1.051,16.990,4,1,3.937
1777493500069,-0.060,0.989,-0.365,18.145,0.740,1.015,110.059,3.625,1.056,18.188,4,1,3.270
1777493500083,-0.046,1.019,-0.372,19.298,0.939,0.893,110.064,3.301,1.085,19.341,4,1,3.269
1777493500096,-0.023,1.042,-0.383,19.885,-0.802,-0.565,110.099,2.736,1.111,19.910,4,1,3.273
1777493500109,-0.110,1.026,-0.385,20.939,-0.985,1.504,110.227,3.551,1.101,21.016,4,1,3.256
1777493500123,-0.083,1.039,-0.389,22.435,1.015,5.969,110.313,3.747,1.113,23.238,4,4,3.923
1777493500137,-0.066,1.020,-0.406,22.847,0.198,8.000,110.692,3.663,1.100,24.208,4,4,3.266
1777493500150,-0.089,0.999,-0.411,22.824,-0.084,9.382,111.141,3.941,1.083,24.677,4,4,3.265
1777493500163,-0.067,1.043,-0.411,23.710,-0.221,10.534,111.241,3.802,1.123,25.946,4,4,3.273
1777493500177,-0.058,1.062,-0.429,24.969,-2.244,11.031,111.441,3.563,1.147,27.389,4,4,3.260
1777493500190,-0.089,1.098,-0.420,25.626,-1.786,12.802,111.304,3.771,1.179,28.701,4,4,3.942
1777493500204,-0.093,1.189,-0.420,28.878,-2.076,10.527,110.807,3.889,1.264,30.807,4,4,3.255
1777493500218,-0.037,1.107,-0.452,30.992,-7.527,-6.221,111.189,3.319,1.196,32.494,4,4,3.277
1777493500231,-0.033,1.424,-0.318,27.634,2.656,17.031,108.862,2.772,1.459,32.569,4,4,3.261
1777493500244,0.005,0.847,-0.443,30.153,-7.176,-6.015,111.224,1.940,0.956,31.573,4,4,3.265
1777493500258,0.038,1.059,-0.411,32.809,-8.168,-2.092,111.219,0.894,1.137,33.875,4,4,3.925
1777493500272,0.091,1.005,-0.428,34.038,-12.802,-7.924,111.717,-0.628,1.096,37.219,4,4,3.261
1777493500285,0.026,0.984,-0.433,36.252,-15.214,-5.908,112.263,-0.838,1.076,39.756,4,4,3.276
1777493500298,-0.011,0.986,-0.449,37.794,-16.069,-4.496,112.867,-0.458,1.084,41.313,4,4,3.263
1777493500312,-0.062,0.972,-0.457,39.611,-16.229,-2.374,113.487,0.552,1.076,42.872,4,4,3.258
1777493500325,-0.114,0.959,-0.469,40.878,-13.443,-0.695,114.179,2.049,1.074,43.037,4,4,3.917
1777493500339,-0.141,0.951,-0.482,42.229,-10.924,1.954,114.916,3.532,1.075,43.663,4,4,3.266
1777493500353,-0.147,0.939,-0.480,43.305,-8.382,2.450,115.496,4.722,1.065,44.177,4,4,3.279
1777493500366,-0.151,0.932,-0.491,44.115,-6.122,1.740,116.110,5.644,1.064,44.571,4,4,3.266
1777493500379,-0.138,0.926,-0.494,44.695,-3.832,1.855,116.649,6.142,1.059,44.897,4,4,3.268
1777493500393,-0.109,0.935,-0.505,45.450,-2.595,2.366,117.111,6.063,1.068,45.586,4,4,3.935
1777493500407,-0.093,0.919,-0.523,46.687,-1.931,2.916,117.800,5.779,1.062,46.818,4,4,3.255
1777493500420,-0.055,0.911,-0.524,47.908,-1.252,4.817,118.370,5.022,1.053,48.166,4,4,3.271
1777493500433,-0.027,0.912,-0.540,48.840,-3.504,4.649,118.981,4.054,1.060,49.185,4,4,3.254
1777493500447,-0.030,0.900,-0.540,49.107,-3.176,5.107,119.516,3.402,1.050,49.474,4,4,3.265
1777493500460,-0.011,0.885,-0.561,49.977,-4.977,4.168,120.286,2.645,1.048,50.397,4,4,3.920
1777493500474,-0.019,0.879,-0.571,50.443,-4.397,5.092,121.022,2.208,1.049,50.889,4,4,3.274
1777493500488,-0.041,0.894,-0.579,50.641,-3.099,5.725,121.538,2.211,1.066,51.058,4,4,3.268
1777493500501,-0.063,0.919,-0.586,50.977,-3.672,5.779,121.799,2.504,1.092,51.435,4,4,3.264
1777493500514,-0.107,0.933,-0.588,51.389,-2.076,4.214,121.912,3.327,1.108,51.604,4,4,3.266
1777493500528,-0.170,0.901,-0.605,52.015,0.053,2.183,122.442,4.829,1.099,52.061,4,4,3.911
1777493500542,-0.142,0.940,-0.606,54.718,1.908,-1.420,122.538,5.483,1.128,54.769,4,4,3.266
1777493500555,-0.155,0.979,-0.601,57.359,4.336,-3.954,122.273,6.081,1.159,57.658,4,4,3.267
1777493500568,-0.198,0.998,-0.598,61.015,9.557,-5.481,121.912,7.042,1.180,62.002,4,4,3.263
1777493500582,-0.206,1.002,-0.595,65.672,14.084,-8.412,121.583,7.849,1.183,67.690,4,4,3.268
1777493500595,-0.226,1.035,-0.595,71.038,19.840,-11.672,121.125,8.630,1.215,74.674,4,4,4.021
1777493500609,-0.246,1.053,-0.593,76.802,27.985,-14.206,120.647,9.401,1.233,82.966,4,4,3.259
1777493500623,-0.364,1.087,-0.615,80.908,47.229,-12.237,120.340,11.249,1.301,94.480,4,4,3.254
1777493500636,-0.125,1.018,-0.529,87.878,42.893,-22.504,119.556,9.884,1.154,100.343,4,4,3.304
1777493500649,-0.085,1.050,-0.582,95.427,46.366,-22.832,119.404,8.313,1.204,108.524,4,4,3.269
1777493500663,-0.040,1.025,-0.636,104.969,50.061,-21.817,120.054,6.584,1.207,118.324,4,4,3.880
1777493500677,-0.037,1.004,-0.667,113.870,53.603,-11.366,121.008,5.278,1.206,126.368,4,4,3.265
1777493500690,-0.027,0.978,-0.791,127.046,60.176,-5.275,123.158,4.180,1.258,140.675,4,4,3.257
1777493500703,0.038,0.939,-0.906,136.511,58.656,-2.901,126.083,2.605,1.305,148.608,4,4,3.255
1777493500717,-0.083,0.905,-1.014,146.366,59.092,3.809,129.369,2.851,1.362,157.891,4,4,3.256
1777493500730,-0.011,0.699,-1.067,133.366,47.718,0.969,134.074,2.214,1.276,141.649,4,4,3.865
1777493500744,-0.171,0.775,-0.808,141.916,44.931,-12.053,134.639,3.960,1.133,149.346,4,4,3.254
1777493500757,-0.348,0.616,-0.650,141.420,74.649,-20.794,135.145,8.630,0.961,161.259,4,4,3.254
1777493500771,-0.047,0.534,-0.633,132.061,78.420,-2.954,136.415,7.175,0.829,153.618,4,4,3.245
1777493500784,-0.016,0.412,-0.703,117.168,67.794,3.626,139.988,5.542,0.815,135.416,4,4,3.266
1777493500797,0.037,0.087,-0.792,62.389,44.702,1.229,149.100,3.334,0.797,76.761,4,4,3.885
1777493500811,-0.227,-0.097,-0.644,-21.420,49.817,-25.389,62.510,7.630,0.690,59.876,4,4,3.260
1777493500825,-0.429,-0.067,-0.266,-103.160,81.237,-36.802,0.823,21.079,0.509,136.366,4,4,3.253
1777493500838,-0.658,0.260,0.210,-154.557,157.038,-18.504,14.423,32.419,0.738,221.114,4,4,3.247
1777493500851,0.208,0.379,0.191,-171.260,161.947,32.145,27.604,16.604,0.472,237.886,4,4,3.265
1777493500865,-0.027,0.830,0.148,-147.366,184.908,28.634,41.722,12.607,0.844,238.176,4,4,3.878
1777493500879,0.279,0.419,0.105,-153.282,179.557,9.046,50.960,0.343,0.514,236.259,4,4,3.264
1777493500892,0.365,0.693,0.135,-155.870,144.626,16.718,58.530,-7.136,0.795,213.288,4,4,3.258
1777493500906,0.448,0.670,0.068,-156.260,102.366,-0.069,65.458,-14.303,0.809,186.805,4,4,3.256
1777493500919,0.429,0.785,0.012,-157.305,56.840,-16.855,71.857,-18.180,0.895,168.107,4,4,3.266
1777493500932,0.326,0.851,-0.042,-153.000,11.099,-26.267,77.522,-18.924,0.912,155.635,4,4,3.873
1777493500946,0.103,0.815,-0.087,-156.489,-14.840,-46.130,82.532,-15.752,0.826,163.820,4,4,3.263
1777493500960,-0.021,0.870,-0.150,-165.336,-26.115,-59.901,87.186,-11.124,0.883,177.781,4,4,3.249
1777493500973,0.051,0.995,-0.226,-172.756,-31.969,-62.435,91.399,-8.892,1.021,186.453,4,4,3.265
1777493500986,0.112,1.105,-0.282,-175.809,-39.878,-63.168,94.887,-7.999,1.146,191.022,4,4,3.260
1777493501000,0.177,1.162,-0.314,-176.924,-53.580,-70.366,97.658,-8.098,1.217,197.798,5,4,3.928
1777493501014,0.148,1.210,-0.351,-178.496,-65.244,-71.015,99.958,-7.726,1.268,202.881,5,4,3.268
1777493501027,0.181,1.244,-0.363,-180.176,-75.763,-71.000,101.659,-7.791,1.309,207.953,5,4,3.249
1777493501040,0.164,1.286,-0.369,-180.313,-82.183,-69.725,102.838,-7.575,1.348,210.068,5,4,3.255
1777493501054,0.123,1.302,-0.368,-180.450,-85.947,-68.313,103.635,-6.926,1.359,211.225,5,4,3.251
1777493501067,0.057,1.340,-0.361,-179.992,-85.374,-65.664,104.019,-5.692,1.389,209.756,5,4,3.887
1777493501081,0.016,1.377,-0.383,-178.649,-82.130,-63.198,104.428,-4.331,1.430,206.530,5,4,3.266
1777493501094,-0.041,1.425,-0.396,-175.916,-77.534,-61.099,104.729,-2.732,1.479,201.720,5,4,3.257
1777493501108,-0.093,1.463,-0.417,-171.374,-74.573,-62.221,105.047,-1.054,1.524,196.981,5,4,3.273
1777493501121,-0.097,1.471,-0.445,-166.756,-74.374,-66.305,105.524,0.203,1.540,194.256,5,4,3.251
1777493501135,-0.057,1.450,-0.485,-165.763,-80.809,-69.473,106.324,0.727,1.530,197.064,5,4,3.893
1777493501149,-0.004,1.483,-0.516,-162.649,-92.237,-67.237,107.096,0.571,1.570,198.703,5,4,3.259
1777493501162,0.108,1.491,-0.562,-154.450,-107.519,-63.023,108.052,-0.632,1.597,198.462,5,4,3.258
1777493501175,0.159,1.412,-0.623,-140.718,-123.824,-59.084,109.608,-2.055,1.551,196.532,5,4,3.268
1777493501189,0.082,1.530,-0.652,-126.695,-134.908,-54.336,110.551,-2.260,1.665,192.884,5,4,3.258
1777493501202,0.019,1.372,-0.728,-103.214,-145.282,-44.840,112.549,-1.835,1.554,183.768,5,4,4.077
1777493501216,-0.094,1.313,-0.789,-80.573,-143.183,-41.115,114.835,-0.385,1.535,169.363,5,4,3.256
1777493501230,-0.149,1.139,-0.870,-64.740,-132.695,-41.649,118.220,1.319,1.441,153.407,5,4,3.249
1777493501243,-0.216,0.991,-0.905,-58.863,-114.733,-47.878,122.046,3.433,1.360,137.553,5,4,3.260
1777493501256,-0.198,0.895,-0.960,-54.191,-94.565,-46.656,126.090,4.818,1.327,118.558,5,4,3.254
1777493501270,-0.174,1.025,-0.963,-41.481,-72.504,-35.229,128.018,5.417,1.417,90.656,1,4,3.913
1777493501284,-0.094,1.027,-0.983,-17.962,-55.298,-26.626,129.568,4.976,1.424,63.948,1,4,3.262
1777493501297,-0.084,1.031,-0.975,2.611,-47.809,-17.519,130.604,4.547,1.422,50.985,1,4,3.255
1777493501310,-0.146,0.984,-0.934,21.626,-41.893,-3.885,131.386,4.983,1.365,47.306,1,4,3.260
1777493501324,-0.198,0.985,-0.875,39.351,-35.687,12.779,131.451,5.945,1.333,54.639,1,4,3.252
1777493501337,-0.193,0.966,-0.791,54.992,-30.053,14.206,130.870,6.712,1.263,64.259,1,5,3.945
1777493501351,-0.189,0.968,-0.702,69.191,-24.908,15.046,129.549,7.328,1.210,75.061,1,5,3.255
1777493501364,-0.146,0.978,-0.602,79.893,-26.718,15.763,127.404,7.309,1.157,85.704,1,5,3.260
1777493501378,-0.152,0.820,-0.472,87.679,-31.122,18.450,125.390,7.795,0.958,94.851,1,5,3.257
1777493501391,0.077,-0.267,0.001,52.038,-17.527,32.198,67.243,1.355,0.277,63.655,1,5,3.258
1777493501405,-0.073,2.273,1.965,-11.489,-38.099,52.985,62.359,1.365,3.005,66.264,1,5,4.039
1777493501419,-0.513,2.931,2.146,67.855,-36.985,48.252,60.045,3.168,3.668,91.107,1,5,3.257
1777493501433,-0.013,0.182,0.147,60.931,-9.046,44.504,57.605,3.183,0.234,75.994,1,5,4.052
1777493501446,0.393,1.409,-0.715,70.015,18.847,40.183,73.626,-1.450,1.629,82.898,1,5,3.258
1777493501460,0.241,0.767,-0.960,78.183,13.252,-13.771,91.924,-4.055,1.252,80.485,1,5,3.259
1777493501473,0.071,0.875,-0.533,57.435,34.695,-25.893,99.871,-4.024,1.027,71.923,1,1,3.902
1777493501487,0.165,0.965,0.014,36.725,41.863,-53.099,96.973,-5.556,0.979,76.946,1,1,3.257
1777493501501,-0.185,1.034,-0.035,16.366,40.939,-47.954,95.615,-1.314,1.051,65.142,1,1,4.086
1777493501515,-0.040,1.004,-0.304,12.137,3.061,-42.237,98.657,-0.365,1.050,44.052,1,1,3.269
1777493501528,-0.150,0.949,-0.229,12.534,-20.565,-30.168,99.978,2.091,0.988,38.602,1,1,3.257
1777493501541,-0.323,0.968,-0.081,11.672,-17.710,-14.519,98.575,6.502,1.024,25.704,1,1,3.992
1777493501555,-0.333,0.975,-0.064,14.015,-1.191,0.595,97.269,9.825,1.033,14.078,1,1,3.264
1777493501571,-0.229,0.988,-0.058,17.000,6.901,11.748,96.218,10.697,1.016,21.786,1,1,5.499
1777493501584,-0.132,1.014,-0.071,16.267,7.069,17.969,95.617,9.811,1.025,25.249,1,1,3.269
1777493501598,-0.076,1.024,-0.092,18.885,4.641,15.214,95.484,8.302,1.031,24.691,1,1,3.268
1777493501611,-0.083,1.003,-0.103,19.412,8.107,11.351,95.586,7.334,1.012,23.904,1,1,4.240
1777493501625,-0.020,1.008,-0.126,19.130,13.809,2.450,96.010,5.661,1.016,23.720,1,1,3.254
1777493501642,0.030,1.007,-0.111,13.931,10.115,-9.084,96.083,3.673,1.014,19.465,1,1,3.267
1777493501656,0.035,1.045,-0.085,13.885,5.130,-16.870,95.699,2.162,1.049,22.444,1,1,3.262
1777493501673,-0.023,1.013,-0.131,16.603,3.725,-23.550,96.149,1.922,1.021,29.054,1,1,7.238
1777493501686,-0.084,0.978,-0.199,14.084,1.855,-26.229,97.594,2.706,1.002,29.829,1,1,3.966
1777493501700,-0.091,0.989,-0.184,10.351,-1.802,-27.031,98.391,3.376,1.010,29.001,1,1,3.275
1777493501714,-0.159,0.996,-0.160,11.481,-3.450,-23.550,98.595,4.890,1.021,26.425,1,1,3.271
1777493501728,-0.210,0.985,-0.167,13.389,-0.977,-14.282,98.879,6.774,1.021,19.601,1,1,4.193
1777493501741,-0.245,0.966,-0.167,14.435,2.336,-5.443,99.126,8.729,1.010,15.603,1,1,3.279
1777493501755,-0.215,0.963,-0.167,14.718,5.443,2.634,99.326,9.724,1.001,15.911,1,1,3.949
1777493501769,-0.150,0.983,-0.173,15.282,6.290,6.023,99.508,9.400,1.009,17.590,1,1,3.553
1777493501783,-0.074,1.000,-0.169,14.779,5.481,4.573,99.531,7.992,1.016,16.412,1,1,3.267
1777493501796,-0.058,1.005,-0.178,15.206,4.046,-1.198,99.668,6.713,1.023,15.781,1,1,3.263
1777493501809,-0.073,1.008,-0.175,16.450,3.099,-5.221,99.718,6.005,1.026,17.535,1,1,3.274
1777493501823,-0.073,1.006,-0.176,17.237,1.763,-7.870,99.770,5.491,1.024,19.030,1,1,3.950
1777493501837,-0.118,0.999,-0.179,17.786,0.359,-8.122,99.875,5.806,1.022,19.556,1,1,3.266
1777493501850,-0.170,0.988,-0.170,18.183,1.366,-4.496,99.841,6.834,1.016,18.781,1,1,3.251
1777493501863,-0.202,0.974,-0.178,18.000,3.565,0.305,99.975,8.097,1.011,18.352,1,1,3.275
1777493501877,-0.196,0.964,-0.195,16.824,4.901,4.725,100.362,8.947,1.003,18.150,1,1,3.258
1777493501890,-0.159,0.974,-0.208,15.992,5.496,6.695,100.823,8.975,1.008,18.187,1,1,3.907
1777493501904,-0.112,0.985,-0.204,15.275,5.679,6.191,101.067,8.265,1.012,17.433,1,1,3.263
1777493501918,-0.101,0.986,-0.219,14.443,4.115,2.649,101.469,7.576,1.015,15.249,1,1,3.651
1777493501935,-0.068,1.000,-0.211,14.336,2.000,-4.427,101.593,6.563,1.024,15.137,1,1,7.067
1777493501949,-0.098,1.007,-0.214,15.336,0.053,-7.214,101.700,6.261,1.034,16.948,1,1,3.264
1777493501962,-0.101,1.007,-0.206,17.321,0.344,-8.115,101.666,6.087,1.033,19.130,1,1,3.944
1777493501976,-0.127,0.989,-0.215,18.443,-0.321,-7.206,101.829,6.377,1.020,19.803,1,1,3.276
1777493501989,-0.171,0.978,-0.215,18.092,0.603,-5.053,101.982,7.272,1.015,18.794,1,1,3.262
1777493502003,-0.165,0.979,-0.227,17.183,1.267,-2.061,102.272,7.830,1.019,17.353,1,1,3.307
1777493502016,-0.208,0.970,-0.229,16.389,4.298,3.099,102.537,8.906,1.018,17.225,1,1,3.263
1777493502029,-0.187,0.973,-0.234,15.649,6.168,8.290,102.808,9.356,1.018,18.752,1,1,4.022
1777493502044,-0.176,0.975,-0.239,15.252,8.916,14.038,103.072,9.518,1.020,22.565,1,1,3.263
1777493502058,-0.155,0.980,-0.255,15.641,10.504,19.351,103.474,9.301,1.025,27.008,1,1,3.266
1777493502071,-0.094,0.996,-0.247,16.336,10.336,18.336,103.599,8.206,1.030,26.644,1,1,3.301
1777493502084,-0.066,1.008,-0.270,16.313,6.763,13.366,103.975,6.963,1.045,22.148,1,1,3.260
1777493502098,-0.092,1.000,-0.257,16.389,5.473,8.679,104.089,6.451,1.036,19.336,1,1,3.933
1777493502112,-0.062,1.016,-0.253,16.855,3.145,3.221,104.058,5.617,1.049,17.446,1,1,3.253
1777493502125,-0.103,0.991,-0.260,17.534,2.366,0.267,104.228,5.654,1.030,17.695,1,1,3.260
1777493502139,-0.112,0.991,-0.260,17.718,2.702,0.489,104.357,5.813,1.030,17.929,1,1,3.314
1777493502152,-0.151,0.977,-0.261,17.733,4.786,5.321,104.528,6.532,1.022,19.123,1,1,3.264
1777493502165,-0.143,0.971,-0.284,16.748,7.046,10.496,105.011,6.946,1.022,20.984,4,1,3.968
1777493502179,-0.126,0.960,-0.284,16.405,7.252,11.924,105.412,7.006,1.010,21.538,4,1,3.275
1777493502193,-0.114,0.977,-0.291,15.695,6.405,11.809,105.732,6.833,1.026,20.659,4,1,3.274
1777493502206,-0.085,0.985,-0.292,15.870,5.992,11.481,105.950,6.264,1.031,20.484,4,1,3.279
1777493502220,-0.100,0.987,-0.292,16.603,6.527,9.931,106.101,6.069,1.034,20.418,4,1,3.313
1777493502233,-0.114,0.971,-0.298,17.153,6.733,12.137,106.356,6.153,1.022,22.065,4,1,4.038
1777493502247,-0.112,0.975,-0.304,17.641,7.534,13.237,106.617,6.176,1.027,23.306,4,1,3.260
1777493502261,-0.129,0.954,-0.316,17.947,8.305,14.695,107.080,6.485,1.014,24.637,4,1,3.283
1777493502274,-0.125,0.967,-0.319,17.863,9.397,17.748,107.394,6.628,1.025,26.877,4,1,3.278
1777493502287,-0.131,0.959,-0.322,17.328,9.718,19.962,107.701,6.825,1.020,28.163,4,1,3.253
1777493502301,-0.098,0.957,-0.334,16.321,9.611,21.420,108.121,6.479,1.018,28.593,4,1,3.945
1777493502315,-0.066,0.973,-0.332,15.702,9.603,20.542,108.312,5.724,1.030,27.582,4,1,3.260
1777493502328,-0.047,0.973,-0.327,14.702,8.176,18.702,108.380,4.883,1.028,25.155,4,1,3.285
1777493502341,-0.032,0.987,-0.318,14.214,7.229,16.557,108.232,4.041,1.038,22.988,4,1,3.267
1777493502355,-0.034,0.976,-0.333,13.221,6.092,13.649,108.396,3.459,1.032,19.955,4,1,3.258
1777493502368,-0.038,0.976,-0.338,11.748,4.763,12.115,108.592,3.098,1.034,17.535,4,1,3.948
1777493502382,-0.047,0.976,-0.343,10.740,3.397,10.405,108.795,2.966,1.035,15.335,4,1,3.262
1777493502396,-0.052,0.976,-0.337,10.214,3.206,8.611,108.872,2.937,1.034,13.738,4,1,3.292
1777493502409,-0.037,0.980,-0.339,9.794,3.145,7.107,108.931,2.700,1.038,12.503,4,1,3.259
1777493502422,-0.025,0.976,-0.347,9.511,2.809,5.527,109.105,2.350,1.037,11.354,4,1,3.265
1777493502436,-0.033,0.978,-0.341,9.267,2.107,3.824,109.134,2.204,1.036,10.244,4,4,3.958
1777493502450,-0.045,0.967,-0.348,8.840,2.443,3.992,109.309,2.285,1.028,10.002,4,4,3.262
1777493502463,0.002,0.979,-0.350,7.740,0.634,2.931,109.401,1.639,1.040,8.301,4,4,3.270
1777493502477,-0.044,0.960,-0.354,7.313,2.198,3.863,109.628,1.868,1.024,8.558,4,4,3.258
1777493502490,-0.027,0.980,-0.353,12.328,2.947,-8.115,109.674,1.759,1.042,15.050,4,4,3.272
1777493502503,-0.040,0.968,-0.356,5.519,1.130,2.511,109.819,1.884,1.033,6.168,4,4,3.991
1777493502517,-0.032,0.972,-0.351,5.084,0.511,4.542,109.828,1.854,1.034,6.837,4,4,3.258
1777493502531,-0.040,0.968,-0.360,5.550,0.611,0.595,109.987,1.953,1.034,5.615,4,4,3.273
1777493502544,-0.031,0.982,-0.359,5.580,-0.099,-0.504,110.012,1.888,1.046,5.604,4,4,3.247
1777493502558,-0.047,0.982,-0.366,6.183,-0.534,-0.794,110.123,2.066,1.049,6.257,4,4,3.276
1777493502571,-0.040,0.983,-0.365,7.069,-0.481,-0.817,110.188,2.095,1.050,7.132,4,4,3.893
1777493502585,-0.049,0.983,-0.362,7.809,-0.679,-0.069,110.198,2.250,1.049,7.839,4,4,3.267
1777493502598,-0.034,1.000,-0.368,10.137,-0.901,-2.290,110.198,2.131,1.066,10.432,4,4,3.259
1777493502612,-0.027,0.997,-0.367,13.038,-1.076,-2.695,110.207,1.943,1.063,13.357,4,4,3.250
1777493502625,-0.025,1.008,-0.365,16.183,-1.252,-3.550,110.131,1.774,1.072,16.615,4,4,3.264
1777493502638,-0.044,1.009,-0.375,18.748,-0.908,-2.275,110.201,1.934,1.077,18.907,4,4,3.875
1777493502652,-0.045,1.009,-0.388,20.985,-1.137,-1.687,110.423,2.054,1.082,21.083,4,4,3.312
1777493502666,-0.054,1.030,-0.387,23.176,-1.214,-0.824,110.470,2.261,1.102,23.222,4,4,3.256
1777493502679,-0.050,1.026,-0.397,25.366,-1.244,0.573,110.659,2.347,1.102,25.403,4,4,3.264
1777493502692,-0.065,1.032,-0.408,27.038,-1.710,2.626,110.901,2.621,1.112,27.219,4,4,3.288
1777493502706,-0.068,1.055,-0.413,29.267,-2.122,7.130,111.027,2.845,1.135,30.198,4,4,3.887
1777493502720,-0.042,1.091,-0.424,32.542,-3.817,8.542,111.078,2.635,1.171,33.860,4,4,3.270
1777493502733,-0.024,1.091,-0.427,34.038,-5.267,10.260,111.158,2.239,1.171,35.939,4,4,3.267
1777493502746,0.031,1.129,-0.424,36.427,-7.885,10.000,111.002,1.230,1.206,38.589,4,4,3.285
1777493502760,-0.122,1.173,-0.451,40.786,-11.947,17.275,111.007,2.397,1.262,45.877,4,4,3.283
1777493502773,-0.112,1.055,-0.436,43.786,-10.847,15.099,111.402,3.264,1.147,47.570,4,4,3.876
1777493502787,0.096,0.439,-0.373,34.771,-15.412,8.954,116.513,-0.180,0.584,39.073,4,4,3.257
1777493502801,0.064,1.016,-0.461,39.260,-12.977,7.466,115.947,-1.014,1.118,42.017,4,4,3.275
1777493502814,0.109,0.991,-0.433,40.046,-18.656,7.237,115.314,-2.290,1.087,44.767,4,4,3.264
1777493502827,0.024,1.021,-0.458,39.947,-22.076,8.893,115.005,-1.999,1.119,46.499,4,4,3.267
1777493502841,-0.042,0.970,-0.462,39.481,-23.267,6.748,115.128,-0.850,1.075,46.321,4,4,3.887
1777493502855,-0.075,0.949,-0.467,39.618,-22.779,4.153,115.422,0.482,1.060,45.888,4,4,3.324
1777493502868,-0.091,0.935,-0.474,39.053,-19.756,5.198,115.813,1.697,1.052,44.074,4,4,3.262
1777493502882,-0.137,0.896,-0.493,38.260,-17.466,3.305,116.619,3.299,1.032,42.187,4,4,3.251
1777493502895,-0.124,0.888,-0.506,36.817,-14.534,3.183,117.444,4.273,1.029,39.710,4,4,3.263
1777493502908,-0.143,0.881,-0.508,36.840,-12.260,1.542,118.129,5.276,1.027,38.857,4,4,3.883
1777493502922,-0.126,0.878,-0.527,36.947,-7.901,-0.527,118.898,5.746,1.031,37.786,4,4,3.276
1777493502936,-0.121,0.899,-0.517,37.947,-5.557,-1.336,119.166,5.996,1.044,38.375,4,4,3.266
1777493502949,-0.123,0.905,-0.528,39.366,-3.344,-3.298,119.463,6.182,1.055,39.646,4,4,3.243
1777493502962,-0.102,0.913,-0.534,40.679,-1.611,-6.443,119.703,6.005,1.063,41.218,4,4,3.260
1777493502976,-0.086,0.922,-0.547,42.695,0.863,-7.687,119.968,5.625,1.075,43.390,4,4,3.890
1777493502990,-0.089,0.948,-0.547,45.145,3.412,-5.000,119.970,5.359,1.098,45.549,4,4,3.275
1777493503003,-0.111,0.957,-0.550,48.489,7.672,-3.527,119.943,5.457,1.109,49.218,4,4,3.260
1777493503016,-0.110,0.949,-0.555,51.863,10.504,-2.779,120.047,5.528,1.105,52.988,4,4,3.255
1777493503030,-0.178,0.996,-0.562,55.107,18.855,-3.565,119.887,6.430,1.158,58.352,4,4,3.268
1777493503043,-0.170,0.980,-0.554,59.901,22.237,-2.840,119.780,7.018,1.139,63.958,4,4,3.885
1777493503057,-0.176,0.983,-0.560,64.565,30.802,-1.359,119.751,7.508,1.145,71.549,4,4,3.302
1777493503070,-0.139,0.962,-0.568,67.634,37.206,-0.321,119.965,7.391,1.126,77.193,4,4,3.262
1777493503084,-0.082,0.908,-0.579,69.076,39.237,-2.321,120.650,6.575,1.080,79.476,4,4,3.257
1777493503097,-0.071,0.924,-0.601,69.863,40.756,-6.092,121.297,5.788,1.104,81.111,4,4,3.307
1777493503111,-0.028,0.893,-0.597,71.580,42.412,-9.420,121.960,4.622,1.075,83.733,4,4,3.883
1777493503125,0.003,0.929,-0.597,73.954,38.634,-12.718,122.164,3.329,1.104,84.401,4,4,3.275
1777493503138,0.007,0.917,-0.595,76.313,37.405,-17.924,122.383,2.333,1.093,86.856,4,4,3.287
1777493503151,0.022,0.973,-0.600,80.573,35.855,-21.885,122.181,1.402,1.143,90.865,4,4,3.280
1777493503165,-0.005,0.957,-0.601,85.031,35.084,-24.649,122.170,1.087,1.130,95.229,4,4,3.259
1777493503178,-0.000,0.971,-0.615,90.260,36.664,-28.137,122.220,0.800,1.149,101.404,4,4,3.874
1777493503192,0.000,0.986,-0.632,97.527,43.191,-25.374,122.341,0.577,1.171,109.639,4,4,3.262
1777493503205,-0.007,1.011,-0.686,110.412,46.282,-22.427,122.832,0.508,1.221,121.803,4,4,3.272
1777493503219,-0.041,1.001,-0.801,122.290,53.374,-19.458,124.411,0.869,1.283,134.842,4,4,3.265
1777493503232,-0.043,0.998,-0.940,141.885,58.008,-16.122,126.815,1.122,1.372,154.131,4,4,3.256
1777493503245,-0.218,1.049,-1.081,164.771,64.290,-24.290,129.262,3.039,1.522,178.529,4,4,3.904
1777493503259,0.278,0.859,-1.039,169.160,30.214,-53.824,132.280,-0.934,1.376,180.070,4,4,3.275
1777493503273,-0.374,0.467,-0.710,139.153,53.656,-61.237,136.161,5.735,0.929,161.222,4,4,3.262
1777493503286,-0.311,0.904,-0.592,140.748,107.733,-40.092,132.660,8.523,1.125,181.724,4,4,3.281
1777493503300,0.045,0.893,-0.613,176.832,95.267,-51.969,130.451,5.579,1.084,207.476,4,4,3.279
1777493503313,0.039,0.554,-0.670,179.229,93.656,-60.573,133.136,3.377,0.870,211.101,4,4,3.884
1777493503327,0.235,0.297,-0.853,142.664,81.557,-40.229,140.605,-1.480,0.934,169.183,4,4,3.265
1777493503340,0.225,0.247,-0.848,97.473,24.725,-26.977,146.857,-4.944,0.911,104.116,4,4,3.259
1777493503354,-0.214,0.001,-0.652,33.611,18.130,-58.672,155.794,1.307,0.686,70.005,4,4,3.280
1777493503367,-0.786,-0.925,-0.286,-146.939,99.603,-101.595,84.744,11.507,1.247,204.532,4,4,3.259
1777493503380,-0.398,0.443,0.192,-213.344,111.519,-31.115,79.848,19.061,0.626,242.735,4,4,4.008
1777493503394,0.080,0.530,0.206,-207.458,132.634,11.267,76.852,11.746,0.574,246.490,4,4,3.254
1777493503408,0.099,0.641,0.332,-207.282,139.527,23.336,73.007,6.459,0.728,250.955,4,4,3.256
1777493503421,0.001,0.833,0.220,-181.183,156.328,22.870,73.606,4.692,0.862,240.393,4,4,3.262
1777493503435,0.361,0.522,0.217,-189.344,137.435,11.099,71.932,-5.370,0.671,234.228,4,4,3.248
1777493503448,0.307,0.784,0.260,-187.336,98.076,2.969,71.861,-9.421,0.881,211.477,4,4,3.936
1777493503462,0.367,0.807,0.250,-185.527,59.534,-18.198,72.114,-13.216,0.921,195.693,4,4,3.271
1777493503475,0.357,0.899,0.178,-183.389,12.321,-34.916,73.923,-15.393,0.983,187.090,4,4,3.253
1777493503489,0.147,0.893,0.106,-186.687,-18.351,-53.664,76.435,-13.745,0.912,195.112,4,4,3.260
1777493503502,0.027,0.947,0.014,-198.336,-28.664,-67.870,79.864,-10.475,0.947,211.578,4,4,3.254
1777493503515,0.000,1.083,-0.066,-212.099,-27.237,-69.000,83.547,-7.645,1.085,224.697,5,4,3.940
1777493503529,0.020,1.289,-0.152,-217.313,-17.031,-61.198,87.102,-5.818,1.298,226.407,5,4,3.267
1777493503543,0.092,1.336,-0.227,-216.901,-13.351,-64.771,90.491,-5.296,1.358,226.759,5,4,3.264
1777493503556,0.169,1.388,-0.263,-219.443,-17.832,-69.359,93.258,-5.710,1.423,230.833,5,4,3.275
1777493503570,0.191,1.483,-0.287,-216.634,-32.115,-68.786,95.340,-6.111,1.522,229.550,5,4,3.245
1777493503583,0.223,1.515,-0.322,-212.145,-52.649,-75.412,97.142,-6.675,1.565,231.224,5,4,3.921
1777493503597,0.174,1.558,-0.324,-208.412,-74.473,-76.863,98.383,-6.553,1.601,234.286,5,4,3.260
1777493503610,0.101,1.576,-0.337,-206.244,-89.244,-74.122,99.375,-5.752,1.615,236.633,5,4,3.245
1777493503624,-0.000,1.637,-0.385,-202.534,-93.718,-71.099,100.420,-4.194,1.682,234.218,5,4,3.252
1777493503637,-0.074,1.739,-0.485,-190.962,-92.275,-65.023,101.814,-2.425,1.807,221.831,5,4,3.282
1777493503650,-0.046,1.712,-0.570,-177.603,-92.489,-66.214,103.595,-1.374,1.805,210.906,5,4,3.942
1777493503664,0.021,1.639,-0.642,-166.809,-100.183,-67.947,105.696,-1.183,1.761,206.104,5,4,3.253
1777493503678,0.128,1.731,-0.699,-153.328,-114.748,-61.130,107.394,-1.921,1.871,201.031,5,4,3.300
1777493503691,0.122,1.616,-0.700,-146.412,-123.733,-59.702,109.027,-2.471,1.765,200.775,5,4,3.326
1777493503705,0.143,1.419,-0.754,-131.412,-138.206,-49.962,111.444,-3.180,1.613,197.145,5,4,3.244
1777493503718,0.077,1.413,-0.771,-117.489,-140.282,-44.244,113.387,-3.060,1.612,188.256,5,4,3.917
1777493503732,-0.041,1.348,-0.841,-94.977,-132.374,-36.885,115.700,-1.831,1.589,167.045,5,4,3.252
1777493503746,-0.071,1.173,-0.905,-78.901,-117.832,-37.015,118.932,-0.598,1.483,146.560,5,4,3.298
1777493503759,-0.092,1.118,-0.898,-68.802,-101.489,-33.954,121.591,0.559,1.437,127.226,5,4,3.267
1777493503772,-0.073,1.135,-0.891,-50.802,-81.069,-28.145,123.358,1.196,1.445,99.725,5,4,3.247
1777493503786,-0.058,1.080,-0.895,-32.389,-61.282,-23.412,125.056,1.508,1.404,73.162,1,4,3.917
1777493503800,-0.017,1.004,-0.859,-18.344,-43.679,-18.053,126.538,1.295,1.321,50.698,1,4,3.250
1777493503813,-0.027,1.010,-0.755,-7.099,-30.748,-6.779,126.606,1.281,1.261,32.277,1,4,3.263
1777493503826,-0.021,0.970,-0.617,2.908,-20.611,0.885,125.481,1.214,1.150,20.834,1,4,3.268
1777493503840,-0.029,0.901,-0.480,7.832,-14.863,-0.901,123.476,1.327,1.021,16.824,1,4,3.247
1777493503853,-0.008,0.870,-0.333,6.374,-14.939,-2.084,120.085,1.102,0.931,16.375,1,5,3.925
1777493503867,-0.074,0.844,-0.268,4.176,-17.794,-0.611,116.711,2.099,0.888,18.287,1,5,3.249
1777493503880,-0.115,0.876,-0.251,4.099,-16.344,-3.740,113.809,3.479,0.919,17.260,1,5,3.284
1777493503894,-0.082,0.889,-0.281,6.588,-15.916,-7.824,112.121,3.902,0.936,18.919,1,5,3.260
1777493503907,-0.048,0.912,-0.322,10.351,-20.901,-8.176,111.397,3.609,0.968,24.715,1,5,3.252
1777493503921,-0.062,0.932,-0.357,15.947,-25.908,-9.672,111.280,3.588,1.000,31.923,1,5,3.890
1777493503935,-0.090,0.941,-0.405,22.092,-30.038,-11.023,111.820,3.969,1.028,38.882,1,5,3.250
1777493503948,-0.085,0.961,-0.438,29.542,-33.290,-13.985,112.540,4.140,1.059,46.653,1,5,3.325
1777493503961,-0.129,0.977,-0.485,38.756,-33.145,-16.511,113.579,4.839,1.099,53.602,1,5,3.264
1777493503975,-0.127,0.982,-0.537,49.237,-31.580,-19.092,114.958,5.282,1.127,61.531,1,5,3.257
1777493503988,-0.116,0.960,-0.565,57.481,-31.481,-19.534,116.452,5.464,1.120,68.386,1,1,3.877
1777493504002,0.055,0.040,-0.368,45.130,-27.962,-7.435,131.942,1.717,0.374,53.608,1,1,3.264
1777493504015,-0.041,2.338,1.698,-38.435,-32.275,24.092,110.885,1.474,2.890,55.672,1,1,3.280
1777493504029,-0.807,4.000,3.242,50.031,-36.679,10.809,94.700,3.482,5.212,62.970,1,1,3.263
1777493504042,-0.024,0.145,0.081,54.252,-26.786,11.176,85.519,4.783,0.167,61.528,1,1,3.273
1777493504056,0.280,0.890,-0.662,40.534,31.939,23.137,96.632,-0.336,1.144,56.555,1,1,3.928
1777493504070,0.222,0.991,-0.738,72.626,27.893,-16.901,104.745,-2.995,1.256,79.613,1,1,3.271
1777493504083,0.245,0.957,-0.353,69.130,21.809,-26.580,106.229,-5.841,1.049,77.208,1,1,3.259
1777493504096,0.294,1.048,0.008,68.099,-4.321,-66.382,101.730,-8.492,1.088,95.198,1,1,3.259
1777493504110,-0.110,0.985,0.093,48.237,-9.748,-74.939,97.103,-4.485,0.995,89.653,1,1,3.280
1777493504123,-0.373,0.997,0.029,25.336,-10.359,-46.305,94.729,2.263,1.065,53.790,1,1,3.903
1777493504137,-0.448,0.961,-0.122,35.275,3.244,-20.290,95.404,8.352,1.067,40.823,1,1,3.256
1777493504151,-0.301,0.906,-0.152,34.137,7.817,-6.130,96.519,10.994,0.966,35.553,1,1,3.308
1777493504164,-0.317,0.949,-0.088,32.611,4.176,9.756,96.187,12.992,1.005,34.294,1,1,3.248
1777493504177,-0.379,0.956,-0.066,35.130,10.183,29.069,95.577,15.314,1.031,46.720,1,1,3.281
1777493504191,-0.333,0.959,-0.047,37.656,22.878,47.107,94.834,16.343,1.016,64.502,5,1,3.888
1777493504205,-0.277,1.001,-0.052,40.511,33.855,58.802,94.324,16.105,1.040,79.025,5,1,3.252
1777493504218,-0.216,0.970,-0.105,40.679,40.031,64.458,94.831,15.126,1.000,86.094,5,1,3.260
1777493504231,-0.049,0.982,-0.164,38.878,42.924,62.893,96.091,11.802,0.997,85.495,5,1,3.255
1777493504245,0.151,0.987,-0.211,36.405,36.115,48.076,97.700,6.310,1.021,70.291,5,1,3.282
1777493504258,0.138,0.998,-0.183,30.740,26.649,30.824,98.431,2.518,1.024,51.042,5,1,3.898
1777493504272,0.131,1.018,-0.182,26.748,16.656,13.115,98.887,-0.118,1.042,34.130,5,1,3.277
1777493504285,0.088,0.991,-0.205,23.794,10.611,-1.076,99.644,-1.427,1.016,26.075,5,1,3.286
1777493504299,0.015,1.001,-0.185,22.427,6.832,-9.374,99.864,-1.264,1.018,25.250,5,1,3.238
1777493504312,-0.026,0.997,-0.196,22.122,3.206,-13.885,100.198,-0.532,1.016,26.315,5,1,3.263
1777493504326,-0.049,0.981,-0.195,19.824,0.885,-14.527,100.484,0.363,1.002,24.593,1,1,3.877
1777493504340,-0.096,0.984,-0.202,16.076,-0.221,-12.260,100.787,1.746,1.009,20.219,1,1,3.273
1777493504353,-0.113,0.974,-0.192,8.664,-1.214,-6.450,100.892,3.029,0.999,10.870,1,1,3.285
1777493504366,-0.146,0.991,-0.170,7.053,0.779,-1.725,100.584,4.442,1.017,7.303,1,1,3.246
1777493504380,-0.130,0.994,-0.179,5.282,4.046,4.168,100.481,5.224,1.019,7.851,1,1,3.258
1777493504393,-0.127,1.025,-0.157,9.061,6.038,8.924,100.002,5.699,1.045,14.078,1,1,3.881
1777493504407,-0.063,1.001,-0.186,10.649,8.557,7.885,100.147,5.119,1.021,15.774,1,1,3.291
1777493504420,-0.067,1.003,-0.187,12.985,9.771,8.321,100.258,4.753,1.023,18.257,1,1,3.282
