timestamp,ax,ay,az,gx,gy,gz,roll,pitch_k,acc_norm,gyro_norm,classe_prevista_raw,classe_prevista,delay_ms
1777496550626,-0.00854492,0.957031,-0.504395,-0.00557252,-0.0841221,0.0187786,107.179,0.411782,1.08185,0.0863726,0,0,3.277
1777496550639,-0.026,0.927,-0.493,-0.005,-0.081,0.037,112.617,0.908,1.050,0.090,0,0,3.332
1777496550652,-0.031,0.922,-0.489,-0.006,-0.065,0.034,114.606,1.216,1.044,0.074,0,0,3.263
1777496550666,-0.049,0.933,-0.482,-0.004,-0.049,0.032,115.485,1.686,1.052,0.058,0,0,3.303
1777496550679,-0.047,0.936,-0.490,-0.009,-0.029,0.025,116.126,1.948,1.057,0.039,0,0,3.257
1777496550693,-0.047,0.949,-0.483,-0.004,-0.008,0.016,116.359,2.111,1.066,0.019,0,0,3.290
1777496550706,-0.026,0.945,-0.486,0.006,0.003,0.020,116.590,1.908,1.063,0.021,0,0,3.302
1777496550719,0.005,0.946,-0.497,0.014,0.006,0.024,116.894,1.310,1.069,0.028,0,0,3.292
1777496550733,0.017,0.931,-0.490,0.017,0.004,0.020,117.128,0.707,1.052,0.026,0,0,3.272
1777496550746,0.021,0.942,-0.501,0.017,-0.001,0.011,117.373,0.203,1.067,0.020,0,0,3.296
1777496550760,0.033,0.933,-0.502,0.019,-0.013,-0.001,117.625,-0.342,1.060,0.023,0,0,3.269
1777496550773,0.042,0.957,-0.512,0.027,-0.025,0.005,117.768,-0.842,1.086,0.037,0,0,3.423
1777496550786,0.095,0.941,-0.514,0.040,-0.059,0.045,118.008,-1.982,1.077,0.084,0,0,3.270
1777496550800,0.097,0.930,-0.511,0.041,-0.094,0.078,118.222,-2.857,1.066,0.129,0,0,3.278
1777496550813,0.098,0.921,-0.510,0.038,-0.130,0.093,118.432,-3.524,1.057,0.164,0,0,3.394
1777496550827,0.101,0.922,-0.510,0.032,-0.167,0.116,118.578,-4.045,1.059,0.206,0,0,3.244
1777496550840,0.091,0.905,-0.517,0.028,-0.204,0.135,118.889,-4.294,1.046,0.246,0,0,3.255
1777496550853,0.071,0.900,-0.519,0.017,-0.229,0.134,119.178,-4.184,1.041,0.266,0,0,3.240
1777496550867,0.061,0.892,-0.511,-0.002,-0.245,0.120,119.352,-3.964,1.030,0.273,0,0,3.272
1777496550880,0.051,0.893,-0.523,-0.017,-0.256,0.112,119.620,-3.656,1.036,0.280,0,0,3.252
1777496550894,0.009,0.915,-0.548,-0.009,-0.231,0.120,119.972,-2.796,1.066,0.261,0,0,3.792
1777496550907,-0.034,0.874,-0.576,-0.003,-0.177,0.091,120.898,-1.539,1.047,0.199,0,0,3.285
1777496550921,-0.024,0.882,-0.573,-0.007,-0.133,0.069,121.472,-0.768,1.053,0.150,0,0,3.257
1777496550934,0.005,0.871,-0.569,-0.012,-0.110,0.082,121.925,-0.629,1.040,0.138,0,0,3.355
1777496550948,-0.005,0.893,-0.584,-0.011,-0.094,0.092,122.262,-0.388,1.067,0.132,0,0,3.308
1777496550961,-0.019,0.895,-0.590,-0.008,-0.073,0.084,122.571,-0.016,1.072,0.112,0,0,3.296
1777496550975,-0.027,0.902,-0.585,-0.011,-0.060,0.057,122.680,0.372,1.076,0.083,0,0,3.271
1777496550988,0.012,0.908,-0.579,-0.006,-0.071,0.046,122.641,0.103,1.077,0.084,0,0,3.291
1777496551001,0.045,0.921,-0.576,0.005,-0.109,0.063,122.469,-0.561,1.087,0.126,0,0,3.260
1777496551015,0.069,0.921,-0.573,0.016,-0.169,0.093,122.303,-1.391,1.087,0.194,4,4,4.006
1777496551029,0.084,0.895,-0.560,0.012,-0.234,0.123,122.233,-2.244,1.059,0.264,4,4,3.281
1777496551042,0.078,0.931,-0.544,0.026,-0.292,0.149,121.718,-2.750,1.081,0.328,4,4,3.252
1777496551056,0.065,0.897,-0.515,0.015,-0.341,0.194,121.215,-2.985,1.036,0.392,4,4,3.285
1777496551069,0.079,0.896,-0.518,0.011,-0.386,0.155,120.896,-3.364,1.038,0.416,4,4,3.259
1777496551082,0.054,0.939,-0.501,0.009,-0.397,0.188,120.142,-3.246,1.066,0.439,4,4,3.949
1777496551097,0.056,0.925,-0.477,0.018,-0.416,0.188,119.374,-3.203,1.042,0.457,4,4,3.650
1777496551110,0.060,0.908,-0.434,0.017,-0.428,0.214,118.343,-3.253,1.008,0.479,4,4,3.249
1777496551123,0.057,0.928,-0.375,-0.002,-0.439,0.228,116.628,-3.261,1.002,0.495,4,4,3.295
1777496551137,0.014,0.898,-0.267,-0.042,-0.437,0.218,113.914,-2.614,0.937,0.490,4,4,3.255
1777496551150,-0.036,0.874,-0.175,-0.129,-0.418,0.150,110.517,-1.289,0.892,0.463,4,4,3.953
1777496551164,-0.164,0.918,-0.103,-0.221,-0.338,0.015,106.704,1.776,0.938,0.404,4,4,3.263
1777496551178,-0.316,1.138,-0.352,-0.167,-0.154,-0.135,106.834,5.310,1.232,0.264,4,4,3.279
1777496551191,-0.241,0.869,-0.520,-0.149,-0.021,-0.067,110.631,7.496,1.041,0.165,4,4,3.300
1777496551204,-0.108,0.884,-0.504,-0.202,0.006,0.038,113.083,7.106,1.024,0.205,4,4,3.260
1777496551218,-0.179,1.336,-0.387,-0.098,0.050,0.191,111.213,7.164,1.403,0.220,5,5,3.993
1777496551232,0.174,1.642,-0.468,-0.041,0.052,0.164,109.782,3.660,1.716,0.177,5,5,3.260
1777496551245,0.124,1.007,-0.463,0.019,0.032,0.110,111.111,0.950,1.115,0.116,5,5,3.290
1777496551258,0.080,0.945,-0.490,0.015,0.014,0.067,112.810,-0.462,1.067,0.070,5,5,3.260
1777496551272,0.066,0.948,-0.480,0.009,0.004,0.040,113.906,-1.303,1.065,0.041,5,5,3.490
1777496551286,0.067,0.921,-0.492,-0.003,-0.009,0.011,115.038,-1.945,1.047,0.014,1,1,4.188
1777496551300,0.035,0.931,-0.471,-0.011,-0.010,-0.003,115.527,-1.944,1.044,0.015,1,1,3.514
1777496551314,0.012,0.937,-0.484,-0.015,-0.007,0.005,116.016,-1.591,1.055,0.018,1,1,3.430
1777496551327,0.020,0.943,-0.469,-0.015,0.002,0.016,116.132,-1.455,1.053,0.022,1,1,3.261
1777496551340,0.029,0.933,-0.464,-0.015,0.002,0.021,116.220,-1.490,1.042,0.026,1,1,3.285
1777496551354,0.027,0.942,-0.479,-0.012,0.006,0.025,116.423,-1.484,1.057,0.029,1,1,3.890
1777496551369,0.011,0.948,-0.474,-0.008,0.010,0.040,116.457,-1.247,1.060,0.042,1,1,4.581
1777496551382,0.011,0.943,-0.467,0.002,0.017,0.048,116.430,-1.076,1.052,0.051,1,1,3.270
1777496551396,0.046,0.951,-0.474,0.005,0.016,0.046,116.450,-1.457,1.064,0.050,1,1,3.259
1777496551409,0.039,0.938,-0.484,0.005,0.011,0.035,116.682,-1.632,1.056,0.037,1,1,3.281
1777496551422,0.061,0.936,-0.460,0.002,0.001,0.018,116.548,-2.089,1.045,0.018,1,1,3.954
1777496551437,0.060,0.925,-0.474,-0.002,-0.011,-0.009,116.714,-2.415,1.041,0.015,1,1,3.450
1777496551450,0.037,0.936,-0.468,-0.002,-0.017,-0.023,116.667,-2.311,1.047,0.029,1,1,3.275
1777496551465,0.037,0.921,-0.474,-0.008,-0.023,-0.027,116.817,-2.234,1.037,0.036,1,1,4.781
1777496551479,0.025,0.928,-0.475,-0.006,-0.022,-0.024,116.898,-2.007,1.043,0.033,1,1,3.457
1777496551492,0.034,0.931,-0.471,-0.005,-0.025,-0.033,116.880,-1.976,1.043,0.042,1,1,3.937
1777496551506,0.015,0.944,-0.461,-0.005,-0.024,-0.029,116.648,-1.661,1.051,0.038,1,1,3.317
1777496551520,0.007,0.934,-0.459,-0.005,-0.020,-0.017,116.515,-1.314,1.041,0.027,1,1,3.253
1777496551533,0.020,0.937,-0.469,-0.003,-0.018,-0.006,116.535,-1.251,1.047,0.020,1,1,3.256
1777496551546,0.021,0.936,-0.470,-0.006,-0.016,0.003,116.567,-1.216,1.048,0.017,1,1,3.263
1777496551560,0.029,0.949,-0.467,-0.007,-0.022,0.002,116.463,-1.306,1.058,0.023,1,1,3.959
1777496551574,0.026,0.947,-0.475,-0.009,-0.024,-0.008,116.510,-1.327,1.059,0.027,1,1,3.265
1777496551587,0.003,0.967,-0.476,-0.008,-0.013,0.014,116.426,-1.007,1.078,0.021,1,1,3.257
1777496551603,-0.008,0.993,-0.465,0.005,0.011,0.055,116.072,-0.625,1.096,0.056,1,1,6.237
1777496551617,-0.011,1.007,-0.462,0.019,0.028,0.088,115.692,-0.306,1.108,0.095,1,1,3.262
1777496551630,0.009,0.989,-0.474,0.033,0.039,0.107,115.668,-0.354,1.097,0.119,1,1,3.949
1777496551644,0.024,0.969,-0.468,0.033,0.045,0.116,115.698,-0.606,1.076,0.129,1,1,3.271
1777496551658,0.040,0.960,-0.473,0.039,0.041,0.112,115.842,-1.021,1.071,0.125,1,1,3.259
1777496551671,0.062,0.958,-0.470,0.047,0.033,0.082,115.920,-1.641,1.068,0.100,1,1,3.269
1777496551684,0.053,0.947,-0.476,0.052,0.028,0.065,116.130,-1.977,1.062,0.088,1,1,3.262
1777496551701,0.054,0.938,-0.487,0.059,0.024,0.047,116.474,-2.229,1.058,0.079,2,2,6.842
1777496551715,0.044,0.930,-0.471,0.066,0.023,0.041,116.572,-2.282,1.044,0.081,2,2,3.262
1777496551730,0.026,0.938,-0.476,0.068,0.027,0.041,116.666,-2.054,1.052,0.084,2,2,4.758
1777496551743,0.025,0.938,-0.486,0.072,0.029,0.058,116.863,-1.867,1.056,0.097,2,2,3.267
1777496551757,0.053,0.931,-0.478,0.077,0.034,0.054,116.951,-2.153,1.048,0.100,2,2,3.944
1777496551770,0.066,0.927,-0.481,0.081,0.031,0.045,117.081,-2.547,1.047,0.098,4,4,3.967
1777496551784,0.047,0.941,-0.471,0.078,0.027,0.038,116.945,-2.548,1.053,0.091,4,4,3.261
1777496551798,0.039,0.929,-0.505,0.069,0.030,0.045,117.371,-2.431,1.059,0.088,4,4,3.375
1777496551811,0.068,0.921,-0.500,0.064,0.023,0.037,117.679,-2.771,1.051,0.078,4,4,3.278
1777496551825,0.053,0.936,-0.485,0.060,0.019,0.029,117.598,-2.800,1.055,0.070,4,4,3.282
1777496551838,0.067,0.926,-0.496,0.062,0.013,-0.001,117.748,-3.032,1.052,0.063,4,4,3.957
1777496551852,0.063,0.924,-0.492,0.058,0.002,-0.031,117.824,-3.147,1.048,0.066,4,4,3.269
1777496551866,0.027,0.924,-0.533,0.054,0.015,0.021,118.411,-2.690,1.067,0.060,4,4,3.273
1777496551879,0.043,0.902,-0.504,0.047,0.017,0.017,118.618,-2.607,1.034,0.053,4,4,3.261
1777496551892,0.038,0.959,-0.479,0.061,0.018,0.038,118.055,-2.449,1.072,0.074,4,4,3.285
1777496551906,0.096,0.912,-0.486,0.055,0.013,0.035,118.058,-3.220,1.038,0.066,4,4,3.920
1777496551920,0.093,0.902,-0.496,0.046,0.004,0.012,118.256,-3.737,1.034,0.048,4,4,3.268
1777496551933,0.126,0.901,-0.510,0.034,-0.017,-0.030,118.602,-4.602,1.043,0.049,4,4,3.262
1777496551947,0.111,0.908,-0.513,0.017,-0.041,-0.076,118.838,-4.994,1.049,0.088,4,4,3.255
1777496551963,0.124,0.908,-0.510,0.004,-0.065,-0.133,118.977,-5.479,1.049,0.148,4,4,6.234
1777496551976,0.085,0.923,-0.491,0.017,-0.090,-0.150,118.714,-5.251,1.049,0.176,4,4,3.890
1777496551990,0.093,0.910,-0.502,0.018,-0.115,-0.179,118.761,-5.218,1.043,0.213,4,4,3.286
1777496552004,0.053,0.966,-0.485,0.033,-0.134,-0.188,118.195,-4.567,1.082,0.233,4,4,3.277
1777496552017,0.036,0.942,-0.507,0.057,-0.137,-0.176,118.214,-3.849,1.070,0.230,4,4,3.264
1777496552031,0.016,0.971,-0.502,0.091,-0.135,-0.147,117.979,-3.030,1.093,0.219,4,4,3.264
1777496552044,-0.002,0.976,-0.491,0.133,-0.131,-0.096,117.642,-2.177,1.093,0.210,4,4,3.923
1777496552058,-0.036,1.024,-0.504,0.163,-0.110,-0.006,117.253,-1.105,1.142,0.197,4,4,3.290
1777496552072,-0.039,1.030,-0.506,0.198,-0.097,0.077,116.960,-0.277,1.148,0.234,4,4,3.262
1777496552085,-0.086,1.099,-0.520,0.247,-0.072,0.168,116.518,0.893,1.219,0.307,4,4,3.277
1777496552098,-0.069,1.302,-0.474,0.390,-0.017,0.113,114.753,1.420,1.388,0.406,4,4,3.276
1777496552112,-0.076,1.053,-0.527,0.439,0.015,0.212,115.244,2.033,1.180,0.488,4,4,4.318
1777496552126,-0.099,1.209,-0.567,0.555,0.090,0.241,115.217,2.631,1.339,0.612,4,4,3.281
1777496552140,0.021,1.060,-0.538,0.615,0.067,0.266,115.672,1.650,1.189,0.673,4,4,3.263
1777496552153,0.009,1.271,-0.533,0.708,0.098,0.306,114.882,1.106,1.378,0.777,4,4,3.277
1777496552167,0.104,1.361,-0.578,0.854,0.104,0.247,114.374,-0.282,1.483,0.895,4,4,3.265
1777496552180,0.128,1.550,-0.495,1.093,0.043,0.176,112.572,-1.421,1.632,1.108,4,4,3.933
1777496552194,0.067,1.413,-0.538,1.278,0.014,0.162,112.103,-1.719,1.513,1.289,4,4,3.269
1777496552208,0.031,1.489,-0.485,1.496,-0.015,0.177,111.006,-1.561,1.566,1.506,4,4,3.260
1777496552221,0.070,1.541,-0.502,1.742,-0.015,0.172,110.210,-1.808,1.622,1.750,4,4,3.285
1777496552234,0.175,1.617,-0.427,2.029,-0.054,0.138,108.746,-2.934,1.682,2.034,4,4,3.256
1777496552248,0.123,1.735,-0.408,2.358,-0.137,0.107,107.259,-3.208,1.786,2.364,4,4,3.919
1777496552262,0.149,1.748,-0.402,2.501,-0.189,0.029,106.091,-3.622,1.800,2.509,4,4,3.260
1777496552275,0.169,1.920,-0.495,2.501,-0.205,-0.072,105.649,-3.959,1.990,2.511,4,4,3.253
1777496552289,0.191,2.003,-0.685,2.501,-0.207,-0.250,106.521,-4.284,2.125,2.522,4,4,3.272
1777496552303,0.271,2.087,-0.779,2.501,-0.239,-0.461,107.587,-5.000,2.244,2.555,4,4,4.030
1777496552317,0.402,2.022,-1.033,2.501,-0.238,-0.052,110.148,-6.364,2.306,2.513,4,4,6.118
1777496552332,0.115,1.695,-0.913,2.501,-0.318,0.274,112.349,-5.568,1.929,2.536,4,4,3.305
1777496552346,0.398,1.799,-0.445,2.501,-0.277,1.089,110.067,-7.342,1.895,2.742,4,4,3.255
1777496552359,0.295,1.602,0.140,2.501,-0.330,1.946,103.295,-8.167,1.635,3.186,4,4,3.294
1777496552373,0.636,-0.345,0.001,2.501,-0.662,1.952,51.119,-22.584,0.724,3.241,4,4,3.276
1777496552387,-0.571,-0.548,-0.260,0.827,-0.489,0.926,6.144,-4.792,0.832,1.334,4,4,4.815
1777496552401,-0.249,0.695,-0.259,0.004,-0.253,-0.359,34.319,1.506,0.783,0.439,4,4,3.266
1777496552415,-0.173,0.875,-0.220,-0.113,-0.233,-0.931,53.168,4.028,0.919,0.966,4,4,3.278
1777496552428,0.034,0.644,-0.272,-0.128,-0.291,-0.966,69.318,2.194,0.700,1.017,4,4,3.262
1777496552441,0.077,0.326,-0.198,-0.277,-0.355,-0.751,83.343,-1.482,0.389,0.876,4,4,3.251
1777496552455,0.052,0.201,-0.104,-0.534,-0.383,-0.523,92.565,-4.607,0.232,0.839,4,4,3.946
1777496552473,0.042,0.139,0.016,-0.936,-0.403,-0.442,90.054,-7.835,0.146,1.111,4,4,7.053
1777496552487,0.021,0.113,0.048,-1.250,-0.408,-0.522,83.817,-8.290,0.124,1.415,4,4,3.714
1777496552500,0.008,0.103,0.027,-1.565,-0.385,-0.583,81.557,-7.154,0.106,1.713,4,4,3.270
1777496552515,0.012,0.119,-0.011,-1.886,-0.329,-0.579,85.296,-6.829,0.120,2.000,4,4,4.642
1777496552528,0.032,0.219,-0.062,-2.193,-0.237,-0.527,90.806,-7.130,0.230,2.268,4,4,3.958
1777496552543,0.120,0.353,-0.094,-2.410,-0.181,-0.435,94.633,-10.098,0.385,2.456,4,4,3.255
1777496552556,0.178,0.400,-0.179,-2.501,-0.137,-0.341,99.888,-13.352,0.473,2.528,4,4,3.285
1777496552569,0.272,0.483,-0.225,-2.501,-0.133,-0.204,103.977,-17.046,0.598,2.513,4,4,3.276
1777496552584,0.263,0.575,-0.320,-2.501,-0.139,-0.008,108.054,-18.332,0.708,2.505,4,4,4.662
1777496552597,0.290,0.674,-0.437,-2.501,-0.134,0.205,112.069,-18.747,0.854,2.513,5,5,3.953
1777496552611,0.236,0.786,-0.539,-2.501,-0.109,0.418,115.405,-17.438,0.982,2.538,5,5,3.264
1777496552627,0.200,0.889,-0.617,-2.501,-0.066,0.531,117.926,-15.558,1.101,2.558,5,5,5.404
1777496552640,0.131,1.006,-0.715,-2.501,0.021,0.555,119.943,-12.997,1.241,2.562,5,5,3.261
1777496552654,0.061,1.108,-0.799,-2.501,0.148,0.593,121.518,-10.171,1.367,2.575,5,5,3.271
1777496552668,-0.003,1.222,-0.893,-2.501,0.340,0.630,122.772,-7.388,1.513,2.602,5,5,3.948
1777496552682,-0.053,1.313,-0.986,-2.501,0.566,0.657,123.887,-4.893,1.642,2.647,5,5,3.257
1777496552696,-0.083,1.375,-1.145,-2.501,0.796,0.701,125.480,-2.858,1.791,2.717,5,5,3.281
1777496552709,-0.048,1.492,-1.333,-2.501,0.965,0.786,127.184,-1.714,2.001,2.794,5,5,3.259
1777496552723,0.084,1.671,-1.567,-2.501,0.986,0.903,128.799,-1.818,2.292,2.836,5,5,4.052
1777496552736,0.102,1.794,-1.772,-2.501,0.850,0.877,130.382,-1.950,2.524,2.784,5,5,3.940
1777496552750,0.043,1.656,-1.967,-2.501,0.626,0.623,132.957,-1.685,2.571,2.653,5,5,3.256
1777496552766,-0.032,1.437,-2.118,-2.501,0.404,0.192,136.438,-1.038,2.560,2.541,5,5,5.135
1777496552779,0.190,1.251,-2.158,-2.072,0.195,-0.086,140.077,-1.935,2.502,2.083,5,5,3.266
1777496552792,0.152,0.958,-2.303,-1.558,-0.048,0.227,144.761,-2.355,2.499,1.575,5,5,3.306
1777496552806,-0.099,0.900,-2.343,-0.964,-0.202,0.713,148.604,-1.108,2.512,1.216,5,5,3.941
1777496552820,-0.552,0.856,-2.330,-0.283,-0.239,0.763,151.633,2.576,2.543,0.848,5,5,3.813
1777496552834,-0.846,0.761,-2.254,0.294,-0.062,-0.243,154.255,7.168,2.525,0.386,5,5,3.708
1777496552848,2.472,-0.693,1.444,2.030,-0.853,-1.329,105.655,-10.184,2.945,2.572,5,5,3.266
1777496552862,-0.553,1.609,0.563,2.501,-0.490,-0.970,96.213,-2.577,1.792,2.727,5,5,3.922
1777496552875,0.013,1.114,-0.209,2.501,-0.181,-1.081,97.405,-2.054,1.134,2.731,5,5,3.938
1777496552889,0.010,0.755,-0.546,2.501,-0.153,-1.028,105.105,-1.661,0.932,2.709,5,5,3.272
1777496552904,-0.276,0.781,-0.642,2.097,-0.017,-0.628,111.675,2.909,1.048,2.190,5,5,3.296
1777496552917,-0.144,0.815,-0.709,1.724,-0.118,-0.448,116.905,4.168,1.090,1.785,5,5,3.248
1777496552931,-0.010,0.683,-0.714,1.194,-0.205,-0.266,122.137,3.191,0.988,1.240,5,5,3.280
1777496552944,-0.130,0.755,-0.697,0.848,-0.072,-0.212,124.996,4.282,1.036,0.877,1,1,3.912
1777496552960,0.152,0.395,-0.783,0.366,-0.166,-0.091,132.619,0.471,0.890,0.412,1,1,5.068
1777496552973,-0.225,0.696,-0.703,0.182,-0.040,0.067,133.343,3.806,1.015,0.198,1,1,3.264
1777496552987,-0.111,0.955,-0.489,0.153,-0.024,0.096,128.957,4.372,1.078,0.182,1,1,3.253
1777496553001,0.049,0.872,-0.544,0.106,0.003,0.111,127.069,2.452,1.029,0.154,1,1,3.737
1777496553014,0.078,0.927,-0.501,0.074,-0.030,0.036,124.728,0.644,1.057,0.088,1,1,3.906
1777496553028,0.019,0.933,-0.496,0.058,-0.045,-0.008,122.910,0.191,1.056,0.074,1,1,3.269
1777496553041,0.003,0.948,-0.479,0.060,-0.049,-0.014,121.252,0.090,1.062,0.079,1,1,3.261
1777496553055,-0.041,0.983,-0.475,0.078,-0.042,-0.012,119.781,0.647,1.093,0.089,1,1,3.258
1777496553068,-0.101,0.963,-0.488,0.096,-0.011,0.039,118.992,1.911,1.084,0.104,1,1,3.270
1777496553081,-0.063,0.971,-0.487,0.102,0.016,0.083,118.361,2.298,1.088,0.133,1,1,3.901
1777496553095,-0.051,0.947,-0.492,0.100,0.044,0.114,118.114,2.421,1.068,0.157,1,1,3.260
1777496553109,-0.000,0.955,-0.489,0.095,0.054,0.117,117.842,1.774,1.073,0.160,1,1,3.279
1777496553122,-0.010,0.921,-0.507,0.091,0.051,0.105,118.109,1.449,1.052,0.148,1,1,3.262
1777496553136,0.018,0.921,-0.500,0.085,0.049,0.087,118.209,0.798,1.048,0.131,1,1,3.312
1777496553149,-0.004,0.905,-0.499,0.073,0.047,0.080,118.393,0.637,1.033,0.118,1,1,4.113
1777496553163,0.002,0.907,-0.500,0.065,0.046,0.071,118.526,0.436,1.036,0.106,1,1,3.282
1777496553177,0.025,0.907,-0.493,0.060,0.039,0.061,118.533,-0.052,1.033,0.094,1,1,3.273
1777496553190,0.062,0.917,-0.508,0.060,0.027,0.040,118.653,-0.956,1.050,0.076,1,1,3.265
1777496553204,0.027,0.871,-0.520,0.035,0.011,0.005,119.247,-1.104,1.014,0.036,1,1,3.296
1777496553217,0.051,0.915,-0.495,0.035,-0.011,-0.015,119.023,-1.564,1.042,0.039,1,1,3.892
1777496553231,0.044,0.901,-0.492,0.056,-0.033,-0.035,118.920,-1.808,1.027,0.074,1,1,3.254
1777496553244,0.043,0.939,-0.511,0.066,-0.058,-0.061,118.819,-1.948,1.070,0.107,1,1,3.276
1777496553258,0.055,0.955,-0.494,0.073,-0.088,-0.094,118.421,-2.212,1.076,0.148,1,1,3.262
1777496553271,0.095,0.994,-0.515,0.123,-0.094,-0.188,118.147,-2.928,1.124,0.243,1,1,3.261
1777496553284,0.014,0.965,-0.508,0.157,-0.095,-0.168,118.039,-2.338,1.090,0.249,1,1,3.889
1777496553298,-0.063,1.023,-0.506,0.198,-0.087,-0.119,117.573,-0.847,1.144,0.247,1,1,3.257
1777496553312,-0.124,1.020,-0.514,0.266,-0.047,-0.072,117.355,1.060,1.149,0.279,1,1,3.279
1777496553325,-0.083,0.994,-0.531,0.287,-0.026,0.006,117.560,1.908,1.130,0.288,1,1,3.262
1777496553342,-0.113,1.013,-0.537,0.333,0.014,0.109,117.660,2.914,1.152,0.350,1,1,3.285
1777496553356,-0.071,1.014,-0.556,0.377,0.041,0.141,117.958,3.080,1.159,0.405,1,1,3.945
1777496553370,-0.013,0.993,-0.542,0.416,0.048,0.139,118.139,2.428,1.132,0.442,1,1,3.262
1777496553383,0.018,1.079,-0.543,0.472,0.036,0.104,117.753,1.547,1.208,0.485,1,1,3.289
1777496553396,0.034,1.115,-0.559,0.533,0.019,0.013,117.444,0.702,1.248,0.533,1,1,3.257
1777496553410,0.030,1.127,-0.575,0.623,0.016,-0.035,117.339,0.142,1.266,0.624,1,1,3.262
1777496553423,-0.034,1.195,-0.594,0.718,0.008,-0.035,117.087,0.500,1.335,0.719,4,4,3.879
1777496553437,-0.125,1.293,-0.555,0.844,0.010,-0.015,116.040,1.731,1.413,0.844,4,4,3.257
1777496553451,0.010,1.348,-0.579,1.003,0.043,-0.018,115.287,1.163,1.467,1.004,4,4,3.261
1777496553464,0.054,1.352,-0.604,1.166,0.018,-0.035,114.963,0.287,1.481,1.167,4,4,3.252
1777496553477,0.001,1.364,-0.601,1.319,-0.026,-0.018,114.644,0.202,1.490,1.319,4,4,3.260
1777496553491,0.091,1.511,-0.527,1.540,-0.072,-0.025,113.178,-0.735,1.603,1.542,4,4,3.888
1777496553505,0.175,1.557,-0.520,1.780,-0.153,-0.046,111.901,-2.178,1.651,1.787,4,4,3.311
1777496553518,0.152,1.643,-0.446,2.105,-0.169,-0.092,110.087,-2.972,1.709,2.114,4,4,3.280
1777496553532,0.208,1.665,-0.416,2.437,-0.285,-0.155,108.447,-4.038,1.729,2.459,4,4,3.458
1777496553545,0.182,1.922,-0.433,2.501,-0.368,-0.226,106.892,-4.376,1.979,2.538,4,4,3.258
1777496553558,-0.085,2.127,-0.526,2.501,-0.356,-0.345,106.079,-2.595,2.193,2.550,4,4,3.889
1777496553572,0.021,2.277,-0.689,2.501,-0.286,-0.430,106.284,-2.031,2.379,2.554,4,4,3.261
1777496553586,0.100,2.171,-0.892,2.501,-0.236,-0.506,107.918,-2.140,2.349,2.563,4,4,3.270
1777496553599,0.147,1.947,-1.148,2.501,-0.327,-0.269,111.327,-2.569,2.265,2.537,4,4,3.256
1777496553612,0.207,1.752,-1.055,2.501,-0.284,0.013,113.955,-3.433,2.055,2.517,4,4,3.249
1777496553626,0.506,1.714,-0.714,2.501,-0.381,0.482,113.591,-6.626,1.924,2.576,4,4,3.883
1777496553640,0.900,-0.129,0.545,2.501,-0.568,0.646,79.316,-20.534,1.060,2.645,4,4,3.257
1777496553653,0.372,-0.249,-0.134,1.970,-0.812,0.694,25.949,-29.242,0.467,2.241,4,4,3.294
1777496553667,-0.419,0.328,-0.362,0.768,-0.462,0.735,56.165,-10.364,0.644,1.159,4,4,3.274
1777496553680,-0.125,0.122,0.117,-0.110,-0.200,0.145,53.464,2.298,0.211,0.271,4,4,3.250
1777496553693,-0.189,0.887,-0.135,-0.338,-0.062,-0.332,65.669,4.895,0.917,0.477,4,4,3.898
1777496553707,-0.001,0.576,-0.055,-0.382,-0.005,-0.621,73.706,3.592,0.579,0.729,4,4,3.264
1777496553721,0.077,0.400,-0.083,-0.510,-0.004,-0.581,81.278,-0.279,0.415,0.773,4,4,3.253
1777496553734,0.120,0.267,-0.032,-0.717,-0.010,-0.359,85.479,-6.704,0.295,0.802,4,4,3.293
1777496553747,0.136,0.089,0.031,-1.060,-0.037,-0.147,81.542,-19.868,0.166,1.070,4,4,3.268
1777496553761,0.134,0.038,0.058,-1.492,-0.056,-0.061,68.599,-31.449,0.151,1.495,4,4,3.901
1777496553775,0.096,0.100,0.048,-1.940,-0.057,-0.084,67.417,-33.975,0.147,1.943,4,4,3.257
1777496553788,0.062,0.224,-0.009,-2.299,-0.038,-0.117,74.158,-28.987,0.233,2.302,4,4,3.250
1777496553801,0.029,0.355,-0.079,-2.501,0.022,-0.095,81.834,-22.390,0.365,2.503,4,4,3.274
1777496553815,0.043,0.479,-0.162,-2.501,0.100,-0.008,89.089,-17.646,0.508,2.503,4,4,3.253
1777496553828,0.078,0.598,-0.274,-2.501,0.168,0.154,95.998,-14.714,0.662,2.512,4,4,3.892
1777496553842,0.056,0.711,-0.433,-2.501,0.240,0.335,102.844,-11.772,0.835,2.535,4,4,3.285
1777496553856,0.052,0.826,-0.547,-2.501,0.300,0.421,108.433,-9.412,0.992,2.554,4,4,3.263
1777496553869,0.030,0.942,-0.663,-2.501,0.339,0.445,112.947,-7.275,1.153,2.563,4,4,3.290
1777496553882,0.013,1.063,-0.728,-2.501,0.385,0.389,116.038,-5.471,1.288,2.561,4,4,3.281
1777496553896,-0.026,1.250,-0.821,-2.501,0.451,0.304,117.998,-3.720,1.496,2.560,5,5,3.891
1777496553910,-0.014,1.290,-0.903,-2.501,0.553,0.231,119.886,-2.576,1.575,2.572,5,5,3.269
1777496553923,0.002,1.245,-0.954,-2.501,0.670,0.187,121.937,-1.904,1.568,2.596,5,5,3.259
1777496553936,0.064,1.248,-1.005,-2.501,0.787,0.194,123.801,-2.005,1.604,2.629,5,5,3.285
1777496553950,0.178,1.286,-1.095,-2.501,0.871,0.250,125.589,-3.093,1.698,2.660,5,5,3.267
1777496553963,0.296,1.417,-1.240,-2.501,0.879,0.398,127.098,-4.672,1.906,2.681,5,5,3.879
1777496553977,0.406,1.586,-1.431,-2.501,0.791,0.618,128.438,-6.317,2.175,2.695,5,5,3.295
1777496553991,0.378,1.643,-1.651,-2.501,0.631,0.813,130.249,-7.100,2.360,2.705,5,5,3.253
1777496554004,0.216,1.650,-1.847,-2.501,0.476,0.956,132.403,-6.526,2.487,2.720,5,5,3.255
1777496554017,-0.091,1.573,-2.038,-2.501,0.380,1.068,135.088,-4.215,2.576,2.746,5,5,3.291
1777496554031,-0.408,1.418,-2.128,-2.312,0.364,0.984,138.122,-0.630,2.590,2.539,5,5,3.942
1777496554045,-0.437,1.196,-2.086,-1.831,0.362,0.473,141.377,2.320,2.444,1.926,5,5,3.267
1777496554058,-0.324,0.800,-2.220,-1.413,0.216,0.140,146.462,3.807,2.382,1.436,5,5,3.267
1777496554072,-0.206,0.682,-2.270,-0.991,0.012,0.103,151.007,4.119,2.379,0.997,5,5,3.253
1777496554085,-0.327,0.704,-2.250,-0.479,-0.176,0.151,154.148,5.139,2.380,0.533,5,5,3.270
1777496554098,-0.517,0.742,-2.184,0.070,-0.281,0.043,156.062,7.161,2.364,0.293,5,5,3.899
1777496554112,-0.569,0.762,-2.053,0.555,-0.323,-0.436,157.025,9.163,2.263,0.776,5,5,3.255
1777496554126,2.530,3.192,2.605,2.314,-1.029,-0.945,128.321,-1.836,4.835,2.703,5,5,3.282
1777496554139,-0.540,1.599,0.767,2.501,-0.678,-0.755,111.042,3.232,1.854,2.699,5,5,3.349
1777496554153,-0.158,1.023,-0.175,2.501,-0.405,-0.804,107.980,4.703,1.050,2.658,5,5,3.260
1777496554166,-0.106,0.801,-0.564,2.501,-0.186,-0.669,112.625,5.108,0.985,2.596,1,1,3.894
1777496554180,0.016,0.871,-0.753,2.257,-0.183,-0.529,117.552,3.515,1.151,2.325,1,1,3.273
1777496554193,-0.174,0.749,-0.737,1.857,-0.257,-0.371,122.146,5.103,1.065,1.911,1,1,3.276
1777496554207,-0.014,0.530,-0.908,1.200,-0.186,-0.294,129.602,3.930,1.052,1.249,1,1,3.255
1777496554220,-0.289,0.704,-0.754,0.772,-0.009,-0.132,131.591,7.088,1.072,0.784,1,1,3.254
1777496554233,-0.116,0.839,-0.549,0.557,0.062,0.007,129.329,6.955,1.009,0.560,1,1,4.003
1777496554248,0.051,0.579,-0.687,0.273,0.014,0.076,132.174,4.207,0.900,0.284,1,1,3.262
1777496554261,0.049,0.751,-0.554,0.183,0.030,0.114,130.624,2.265,0.934,0.218,1,1,3.267
1777496554274,0.106,0.914,-0.472,0.159,0.000,0.032,127.036,0.068,1.034,0.162,1,1,3.268
1777496554288,0.015,0.900,-0.530,0.092,-0.015,0.017,125.266,-0.175,1.045,0.095,1,1,3.253
1777496554301,0.048,0.896,-0.514,0.025,-0.015,0.003,123.794,-0.848,1.034,0.030,1,1,3.946
1777496554315,0.008,0.978,-0.471,0.013,-0.024,0.017,121.619,-0.730,1.086,0.032,1,1,3.264
1777496554328,0.076,0.981,-0.483,0.020,-0.038,-0.017,120.158,-1.612,1.097,0.046,1,1,3.249
1777496554342,0.055,0.999,-0.434,0.057,-0.044,-0.054,118.347,-1.960,1.091,0.090,1,1,3.396
1777496554355,-0.021,0.969,-0.481,0.077,-0.040,-0.039,117.819,-1.127,1.082,0.095,1,1,3.266
1777496554369,-0.080,0.968,-0.480,0.082,-0.013,0.023,117.435,0.322,1.084,0.086,1,1,3.910
1777496554383,-0.065,0.969,-0.498,0.077,0.025,0.088,117.372,1.156,1.092,0.120,1,1,3.438
1777496554396,0.011,0.944,-0.491,0.078,0.040,0.103,117.408,0.681,1.064,0.136,1,1,3.251
1777496554410,0.077,0.919,-0.495,0.068,0.033,0.072,117.650,-0.648,1.047,0.104,1,1,3.789
1777496554424,0.062,0.920,-0.498,0.055,0.016,0.041,117.864,-1.393,1.048,0.070,1,1,3.277
1777496554437,0.045,0.904,-0.510,0.038,0.003,0.014,118.282,-1.683,1.038,0.041,1,1,3.904
1777496554455,0.038,0.938,-0.480,0.037,-0.006,-0.005,117.959,-1.780,1.055,0.038,1,1,6.941
1777496554468,0.035,0.930,-0.487,0.035,-0.007,-0.017,117.874,-1.817,1.050,0.040,1,1,3.256
1777496554481,0.022,0.935,-0.488,0.037,-0.007,-0.026,117.793,-1.649,1.055,0.045,1,1,3.274
1777496554495,0.023,0.915,-0.482,0.041,-0.007,-0.039,117.790,-1.543,1.035,0.057,1,1,3.261
1777496554508,0.020,0.932,-0.496,0.039,-0.013,-0.048,117.848,-1.416,1.056,0.063,1,1,3.896
1777496554522,0.077,0.961,-0.492,0.060,-0.031,-0.095,117.656,-2.134,1.082,0.116,1,1,3.263
1777496554535,0.068,0.922,-0.497,0.061,-0.053,-0.128,117.842,-2.563,1.050,0.152,1,1,3.298
1777496554549,0.036,0.912,-0.503,0.065,-0.070,-0.142,118.125,-2.400,1.042,0.171,1,1,3.425
1777496554562,-0.005,0.937,-0.500,0.070,-0.078,-0.139,118.119,-1.684,1.062,0.174,1,1,3.317
1777496554576,0.009,0.925,-0.495,0.093,-0.087,-0.131,118.134,-1.359,1.049,0.183,1,1,3.892
1777496554590,0.026,0.935,-0.494,0.110,-0.104,-0.134,118.057,-1.370,1.058,0.202,1,1,3.271
1777496554603,0.010,0.939,-0.511,0.123,-0.101,-0.157,118.189,-1.149,1.069,0.223,1,1,3.257
1777496554617,-0.025,0.918,-0.500,0.128,-0.096,-0.154,118.298,-0.462,1.046,0.222,1,1,3.262
1777496554630,-0.048,0.922,-0.524,0.128,-0.073,-0.132,118.661,0.368,1.061,0.198,1,1,3.265
1777496554643,-0.074,0.937,-0.523,0.121,-0.050,-0.093,118.797,1.341,1.076,0.161,1,1,3.906
1777496554657,-0.062,0.938,-0.517,0.128,-0.034,-0.054,118.808,1.870,1.073,0.143,1,1,3.258
1777496554673,-0.052,0.954,-0.518,0.130,-0.024,-0.019,118.729,2.099,1.086,0.133,1,1,5.526
1777496554686,-0.007,0.936,-0.537,0.139,-0.029,-0.037,119.032,1.634,1.080,0.147,1,1,3.258
1777496554700,-0.063,1.017,-0.527,0.172,-0.014,-0.020,118.583,2.046,1.147,0.173,1,1,3.267
1777496554713,-0.114,1.200,-0.535,0.258,0.018,0.041,117.350,2.833,1.318,0.262,4,4,3.896
1777496554727,-0.056,1.038,-0.556,0.392,0.062,0.119,117.569,2.809,1.179,0.415,4,4,3.257
1777496554741,-0.070,1.190,-0.542,0.502,0.090,0.210,116.732,2.873,1.309,0.551,4,4,3.950
1777496554754,-0.051,1.158,-0.563,0.584,0.126,0.271,116.518,2.713,1.289,0.656,4,4,3.310
1777496554768,-0.036,1.288,-0.539,0.680,0.130,0.235,115.494,2.375,1.396,0.731,4,4,3.250
1777496554784,-0.059,1.518,-0.582,0.924,0.151,0.093,114.274,2.298,1.627,0.940,4,4,7.104
1777496554798,0.046,1.383,-0.561,1.088,0.132,0.088,113.683,1.201,1.493,1.099,4,4,3.272
1777496554812,0.010,1.496,-0.511,1.299,0.090,0.089,112.383,0.783,1.581,1.305,4,4,3.271
1777496554825,0.086,1.437,-0.555,1.493,0.076,0.061,112.043,-0.296,1.543,1.496,4,4,3.276
1777496554838,0.059,1.504,-0.525,1.718,-0.023,0.031,111.287,-0.790,1.594,1.719,4,4,3.256
1777496554852,0.233,1.588,-0.486,1.973,-0.080,-0.024,110.129,-2.731,1.677,1.974,4,4,3.988
1777496554866,0.235,1.726,-0.473,2.328,-0.171,-0.121,108.835,-4.017,1.805,2.337,4,4,3.280
1777496554879,0.356,1.885,-0.431,2.501,-0.266,-0.278,107.226,-5.754,1.966,2.531,4,4,3.268
1777496554894,0.236,2.073,-0.488,2.501,-0.385,-0.430,106.149,-5.910,2.143,2.567,4,4,4.539
1777496554907,0.308,2.197,-0.562,2.501,-0.436,-0.689,105.663,-6.405,2.289,2.631,4,4,3.256
1777496554921,0.179,2.098,-0.681,2.501,-0.457,-0.906,106.289,-5.931,2.213,2.699,4,4,3.906
1777496554935,0.441,1.776,-0.975,2.501,-0.517,-0.768,109.662,-7.649,2.074,2.667,4,4,3.265
1777496554948,0.287,1.989,-0.942,2.501,-0.551,-0.681,111.196,-7.589,2.219,2.650,4,4,3.255
1777496554962,0.491,1.735,-0.465,2.501,-0.585,-0.046,109.524,-9.667,1.862,2.569,4,4,3.306
1777496554975,0.404,1.043,-0.049,2.501,-0.652,0.670,104.974,-12.769,1.120,2.670,4,4,3.257
1777496554989,0.729,-0.906,0.942,2.501,-0.923,0.657,64.756,-17.194,1.496,2.746,4,4,3.890
1777496555004,-0.064,-0.458,-0.893,1.667,-0.598,0.849,5.965,-11.567,1.005,1.964,4,4,3.277
1777496555017,-0.285,-0.496,0.116,0.354,-0.272,0.420,-16.415,-0.546,0.584,0.613,4,4,3.257
1777496555030,-0.166,-0.059,0.197,-0.816,0.023,-0.172,-16.467,10.096,0.264,0.834,4,4,3.261
1777496555044,-0.137,0.656,0.029,-1.211,0.200,-0.548,11.611,10.544,0.671,1.344,4,4,3.283
1777496555057,0.069,0.533,0.127,-1.394,0.248,-0.632,29.175,5.761,0.552,1.551,4,4,3.885
1777496555072,0.184,0.502,0.053,-1.534,0.193,-0.383,43.980,-1.202,0.537,1.593,4,4,4.184
1777496555086,0.172,0.287,0.030,-1.730,0.143,-0.016,54.814,-9.185,0.336,1.736,4,4,3.403
1777496555099,0.157,0.134,0.048,-2.104,0.086,0.229,58.969,-19.651,0.212,2.118,4,4,3.249
1777496555114,0.146,0.253,0.024,-2.501,0.023,0.283,65.879,-22.419,0.293,2.517,4,4,4.609
1777496555127,0.086,0.370,-0.042,-2.501,-0.015,0.303,74.154,-19.882,0.382,2.520,4,4,3.902
1777496555141,-0.025,0.603,-0.186,-2.501,0.011,0.396,83.067,-13.894,0.632,2.533,4,4,3.267
1777496555156,-0.103,0.815,-0.334,-2.501,0.107,0.558,90.958,-8.337,0.886,2.565,4,4,3.524
1777496555169,-0.137,0.912,-0.504,-2.501,0.220,0.662,98.518,-4.054,1.051,2.597,4,4,3.250
1777496555183,-0.163,1.001,-0.636,-2.501,0.326,0.711,104.981,-0.844,1.197,2.621,4,4,3.271
1777496555196,-0.138,1.099,-0.737,-2.501,0.401,0.684,110.083,0.992,1.330,2.624,5,5,3.910
1777496555210,-0.098,1.148,-0.869,-2.501,0.437,0.608,114.688,1.775,1.443,2.611,5,5,3.263
1777496555223,-0.024,1.129,-0.963,-2.501,0.431,0.498,118.953,1.543,1.484,2.587,5,5,3.271
1777496555237,0.059,1.159,-1.037,-2.501,0.401,0.377,122.431,0.541,1.557,2.561,5,5,3.289
1777496555250,0.116,1.134,-1.090,-2.501,0.368,0.293,125.521,-0.742,1.577,2.545,5,5,3.254
1777496555266,0.120,1.121,-1.125,-2.501,0.377,0.194,128.103,-1.708,1.593,2.537,5,5,6.160
1777496555280,0.173,1.193,-1.159,-2.501,0.430,0.096,129.745,-2.854,1.672,2.540,5,5,3.256
1777496555293,0.162,1.302,-1.200,-2.501,0.517,0.187,130.531,-3.491,1.778,2.561,5,5,3.268
1777496555306,0.171,1.365,-1.306,-2.501,0.641,0.461,131.397,-3.945,1.896,2.623,5,5,3.265
1777496555320,0.077,1.389,-1.398,-2.501,0.769,0.790,132.423,-3.483,1.972,2.733,5,5,3.256
1777496555333,-0.158,1.492,-1.478,-2.501,0.911,1.015,133.044,-1.380,2.106,2.849,5,5,3.951
1777496555347,-0.361,1.538,-1.625,-2.293,1.045,0.941,133.997,1.471,2.267,2.690,5,5,3.287
1777496555361,-0.521,1.392,-1.792,-1.952,1.131,0.590,136.201,4.565,2.328,2.332,5,5,3.532
1777496555376,-0.480,1.219,-1.925,-1.616,1.181,-0.027,139.292,6.544,2.328,2.002,5,5,5.073
1777496555390,-0.103,1.071,-1.968,-1.118,1.121,-0.440,142.573,5.487,2.243,1.643,5,5,3.376
1777496555403,0.188,0.896,-2.134,-0.565,0.907,-0.226,146.534,2.747,2.322,1.092,1,1,4.090
1777496555417,0.152,0.654,-2.153,-0.015,0.612,0.378,151.010,0.960,2.255,0.720,1,1,3.397
1777496555431,-0.212,0.598,-2.054,0.445,0.412,0.596,154.456,2.232,2.150,0.850,1,1,3.251
1777496555445,-0.456,0.532,-1.917,0.780,0.300,0.193,157.164,5.116,2.042,0.858,1,1,4.187
1777496555458,1.674,1.254,2.010,1.914,-0.177,-1.110,123.339,-5.790,2.900,2.220,1,1,3.259
1777496555472,-0.297,1.724,0.598,2.411,-0.222,-0.947,109.165,-1.727,1.849,2.599,1,1,3.888
1777496555487,0.107,1.000,-0.196,2.501,-0.205,-0.877,106.982,-2.876,1.024,2.659,1,1,4.673
1777496555501,-0.037,0.826,-0.521,2.488,-0.281,-0.733,111.101,-1.511,0.978,2.609,1,1,3.259
1777496555514,-0.150,0.698,-0.691,2.054,-0.218,-0.452,117.481,1.241,0.994,2.115,1,1,3.263
1777496555528,-0.069,0.322,-1.109,1.414,-0.359,-0.347,129.994,1.831,1.157,1.500,1,1,3.293
1777496555541,-0.305,0.716,-0.721,0.962,-0.123,-0.316,131.402,5.847,1.061,1.020,1,1,3.890
1777496555555,-0.111,0.836,-0.611,0.724,-0.037,-0.204,129.985,5.914,1.041,0.753,1,1,3.264
1777496555569,0.241,0.538,-0.652,0.273,-0.122,-0.173,132.828,0.010,0.879,0.345,1,1,3.411
1777496555582,-0.089,0.828,-0.548,0.183,-0.042,0.005,130.299,1.385,0.997,0.188,1,1,3.246
1777496555595,-0.156,0.877,-0.529,0.157,-0.021,0.067,127.808,3.344,1.036,0.172,1,1,3.289
1777496555609,0.020,0.880,-0.525,0.099,-0.000,0.068,125.923,2.138,1.025,0.120,1,1,3.894
1777496555623,0.041,0.915,-0.511,0.075,-0.017,0.010,124.109,0.959,1.049,0.078,1,1,3.257
1777496555637,-0.039,0.899,-0.515,0.040,-0.021,0.006,122.952,1.287,1.037,0.045,1,1,3.306
1777496555650,-0.027,0.917,-0.496,0.017,-0.017,0.015,121.726,1.341,1.043,0.029,1,1,3.265
1777496555663,-0.026,0.973,-0.478,0.016,-0.012,0.024,120.223,1.355,1.084,0.031,1,1,3.258
1777496555680,-0.019,0.980,-0.481,0.037,-0.002,0.036,119.114,1.252,1.092,0.052,1,1,6.709
1777496555694,-0.079,0.956,-0.496,0.048,0.022,0.078,118.661,2.041,1.080,0.094,1,1,3.248
1777496555707,-0.061,0.951,-0.500,0.048,0.044,0.119,118.415,2.368,1.076,0.136,1,1,3.263
1777496555721,-0.023,0.937,-0.497,0.052,0.050,0.132,118.280,2.063,1.061,0.151,1,1,3.623
1777496555734,-0.003,0.930,-0.514,0.045,0.046,0.116,118.457,1.545,1.062,0.133,1,1,3.254
1777496555748,0.011,0.921,-0.498,0.041,0.040,0.097,118.440,0.958,1.047,0.113,1,1,4.369
1777496555762,0.020,0.911,-0.493,0.038,0.035,0.088,118.439,0.404,1.036,0.102,1,1,3.257
1777496555775,0.030,0.918,-0.495,0.039,0.030,0.065,118.414,-0.147,1.043,0.081,1,1,3.254
1777496555789,0.010,0.926,-0.495,0.039,0.025,0.054,118.341,-0.251,1.050,0.071,1,1,3.313
1777496555802,0.042,0.925,-0.491,0.046,0.018,0.033,118.241,-0.808,1.048,0.059,1,1,3.260
1777496555815,0.048,0.915,-0.505,0.043,0.003,0.004,118.413,-1.294,1.046,0.043,1,1,3.888
1777496555831,0.035,0.920,-0.485,0.042,-0.012,-0.030,118.240,-1.471,1.041,0.053,1,1,4.780
1777496555844,0.047,0.928,-0.497,0.039,-0.024,-0.061,118.221,-1.766,1.053,0.076,1,1,3.261
1777496555858,0.035,0.916,-0.498,0.032,-0.038,-0.086,118.309,-1.807,1.043,0.100,1,1,3.253
1777496555871,-0.022,0.937,-0.488,0.033,-0.046,-0.105,118.089,-0.994,1.057,0.120,1,1,3.293
1777496555884,-0.014,0.935,-0.489,0.035,-0.052,-0.098,117.966,-0.514,1.055,0.117,1,1,3.843
1777496555898,-0.029,0.928,-0.500,0.043,-0.053,-0.090,118.057,0.051,1.055,0.113,1,1,3.256
1777496555914,-0.052,0.922,-0.514,0.051,-0.053,-0.068,118.346,0.800,1.057,0.100,1,1,3.426
1777496555928,-0.023,0.929,-0.497,0.056,-0.051,-0.055,118.288,0.921,1.053,0.093,1,1,3.259
1777496555941,-0.044,0.916,-0.515,0.057,-0.048,-0.037,118.571,1.323,1.051,0.083,1,1,3.259
1777496555954,-0.025,0.945,-0.502,0.058,-0.043,-0.022,118.411,1.329,1.071,0.076,1,1,3.885
1777496555968,-0.018,0.943,-0.519,0.059,-0.045,-0.017,118.517,1.230,1.076,0.077,1,1,3.251
1777496555984,-0.010,0.930,-0.523,0.060,-0.039,-0.021,118.744,1.039,1.067,0.075,1,1,5.515
1777496555997,0.001,0.927,-0.511,0.069,-0.041,-0.032,118.780,0.741,1.059,0.086,1,1,3.281
1777496556011,-0.010,0.945,-0.512,0.084,-0.042,-0.043,118.699,0.685,1.075,0.103,1,1,3.257
1777496556024,-0.007,0.951,-0.508,0.108,-0.046,-0.047,118.531,0.594,1.078,0.126,1,1,3.869
1777496556038,0.004,0.962,-0.530,0.129,-0.049,-0.056,118.616,0.382,1.098,0.149,1,1,3.253
1777496556052,-0.002,0.955,-0.529,0.143,-0.052,-0.043,118.708,0.303,1.092,0.158,1,1,3.273
1777496556065,0.025,1.011,-0.522,0.166,-0.064,-0.032,118.326,-0.117,1.138,0.181,1,1,3.305
1777496556078,-0.023,1.050,-0.533,0.228,-0.063,-0.036,117.952,0.222,1.178,0.240,1,1,3.257
1777496556092,-0.150,1.324,-0.499,0.382,-0.008,-0.018,115.976,1.793,1.423,0.383,4,4,3.979
1777496556106,-0.039,1.135,-0.546,0.477,0.025,0.089,115.895,1.783,1.260,0.486,4,4,3.296
1777496556119,-0.076,1.129,-0.566,0.571,0.065,0.176,116.091,2.228,1.265,0.601,4,4,3.255
1777496556133,-0.122,1.191,-0.556,0.655,0.085,0.247,115.808,3.060,1.320,0.705,4,4,3.288
1777496556146,-0.111,1.459,-0.615,0.794,0.123,0.144,115.011,3.320,1.587,0.816,4,4,3.273
1777496556159,-0.047,1.429,-0.545,1.013,0.128,0.107,113.894,2.897,1.531,1.026,4,4,3.851
1777496556173,-0.025,1.502,-0.538,1.195,0.131,0.085,112.764,2.354,1.595,1.205,4,4,3.292
1777496556187,0.050,1.510,-0.521,1.402,0.098,0.086,111.756,1.233,1.598,1.408,4,4,3.248
1777496556200,0.091,1.594,-0.530,1.648,0.058,0.060,110.843,0.066,1.682,1.650,4,4,3.254
1777496556213,0.224,1.622,-0.490,1.921,-0.061,0.031,109.755,-1.985,1.709,1.922,4,4,3.272
1777496556227,0.238,1.825,-0.448,2.269,-0.119,-0.052,108.139,-3.401,1.895,2.273,4,4,3.864
1777496556241,0.240,1.875,-0.465,2.501,-0.236,-0.147,107.000,-4.397,1.947,2.517,4,4,3.262
1777496556254,0.188,2.093,-0.388,2.501,-0.358,-0.276,105.247,-4.569,2.137,2.542,4,4,3.285
1777496556267,0.036,2.245,-0.454,2.501,-0.353,-0.433,104.216,-3.580,2.290,2.563,4,4,3.255
1777496556281,0.019,2.169,-0.542,2.501,-0.323,-0.586,104.170,-2.741,2.236,2.589,4,4,3.285
1777496556294,-0.083,1.850,-0.748,2.501,-0.251,-0.408,106.285,-1.357,1.997,2.547,4,4,3.884
1777496556308,0.231,1.833,-0.898,2.501,-0.310,-0.255,108.936,-2.733,2.054,2.533,4,4,3.258
1777496556322,0.193,1.690,-0.662,2.501,-0.258,0.537,109.601,-3.635,1.826,2.571,4,4,3.277
1777496556335,0.116,0.722,-0.133,2.501,-0.252,1.353,107.116,-5.083,0.743,2.855,4,4,3.270
1777496556348,0.612,-0.871,0.648,2.501,-0.594,1.494,63.766,-11.655,1.246,2.974,4,4,3.254
1777496556362,0.564,0.144,0.186,1.955,-0.738,1.254,56.748,-26.705,0.611,2.436,4,4,3.982
1777496556376,-0.241,-0.016,-0.187,0.731,-0.523,0.438,-5.883,-5.414,0.306,1.000,4,4,3.265
1777496556389,-0.084,-0.328,0.339,-0.490,-0.318,-0.162,-16.195,-1.215,0.479,0.606,4,4,3.255
1777496556403,-0.085,0.669,0.008,-0.911,-0.190,-0.464,12.313,1.069,0.674,1.040,4,4,3.283
1777496556416,0.062,0.574,0.114,-1.049,-0.128,-0.418,30.272,-0.861,0.588,1.137,4,4,3.384
1777496556430,0.161,0.432,0.071,-1.198,-0.120,-0.180,43.891,-6.091,0.466,1.218,4,4,3.913
1777496556444,0.100,0.153,0.051,-1.522,-0.094,0.096,51.368,-13.023,0.190,1.528,4,4,3.293
1777496556457,0.036,-0.028,0.073,-2.042,-0.044,0.217,31.762,-16.158,0.086,2.054,4,4,3.263
1777496556470,0.002,0.103,0.071,-2.501,0.010,0.123,38.134,-12.065,0.125,2.504,4,4,3.260
1777496556484,0.002,0.373,-0.021,-2.501,0.059,0.037,53.005,-8.876,0.374,2.502,4,4,3.272
1777496556497,-0.042,0.726,-0.042,-2.501,0.133,0.139,63.889,-5.574,0.728,2.509,4,4,3.850
1777496556511,-0.056,0.734,-0.369,-2.501,0.260,0.309,78.149,-3.008,0.824,2.534,4,4,3.250
1777496556524,-0.083,0.778,-0.483,-2.501,0.372,0.479,89.954,-0.804,0.919,2.574,4,4,3.266
1777496556538,-0.072,0.844,-0.610,-2.501,0.457,0.548,99.652,0.475,1.044,2.601,4,4,3.250
1777496556551,-0.068,0.875,-0.713,-2.501,0.515,0.502,107.633,1.273,1.130,2.603,4,4,3.266
1777496556564,-0.068,0.974,-0.779,-2.501,0.544,0.366,113.318,1.768,1.249,2.586,5,5,3.901
1777496556579,-0.018,1.059,-0.845,-2.501,0.554,0.183,117.445,1.497,1.355,2.569,5,5,3.408
1777496556592,0.051,1.110,-0.883,-2.501,0.535,0.027,120.434,0.536,1.419,2.558,5,5,3.271
1777496556605,0.150,1.195,-0.922,-2.501,0.496,-0.035,122.382,-1.144,1.517,2.550,5,5,3.276
1777496556619,0.232,1.199,-0.947,-2.501,0.450,0.064,123.975,-3.171,1.546,2.542,5,5,3.404
1777496556632,0.328,1.236,-0.977,-2.501,0.404,0.287,125.151,-5.491,1.609,2.550,5,5,3.905
1777496556646,0.384,1.345,-1.036,-2.501,0.352,0.556,125.814,-7.447,1.740,2.587,5,5,3.268
1777496556660,0.372,1.448,-1.136,-2.501,0.299,0.772,126.433,-8.522,1.878,2.635,5,5,3.258
1777496556673,0.311,1.572,-1.242,-2.501,0.247,0.934,126.938,-8.602,2.027,2.681,5,5,3.272
1777496556687,0.160,1.651,-1.375,-2.501,0.221,1.087,127.704,-7.430,2.155,2.736,5,5,3.724
1777496556700,-0.016,1.664,-1.524,-2.501,0.239,1.178,128.998,-5.316,2.257,2.775,5,5,3.876
1777496556714,-0.060,1.511,-1.701,-2.425,0.237,1.060,131.534,-3.470,2.276,2.657,5,5,3.281
1777496556728,0.019,1.280,-1.854,-2.147,0.169,0.775,135.275,-2.661,2.254,2.289,5,5,3.262
1777496556741,0.072,1.074,-2.004,-1.784,0.018,0.616,139.744,-2.433,2.275,1.888,5,5,3.262
1777496556755,-0.110,0.962,-2.170,-1.259,-0.088,0.718,144.160,-1.060,2.376,1.452,5,5,4.198
1777496556770,-0.612,0.678,-2.197,-0.699,-0.050,0.738,149.209,3.253,2.379,1.018,5,5,3.966
1777496556784,-1.060,0.468,-2.106,-0.312,0.118,0.156,154.143,9.440,2.404,0.368,5,5,3.265
1777496556799,-1.156,0.707,-1.995,0.154,0.345,-0.734,155.855,14.628,2.412,0.826,5,5,4.690
1777496556812,-2.788,0.177,-3.802,1.776,-0.098,-1.161,161.660,20.464,4.718,2.124,5,5,3.248
1777496556826,0.352,1.159,-0.053,2.045,-0.487,-1.900,143.007,10.381,1.212,2.833,5,5,3.261
1777496556840,0.690,0.986,0.142,2.501,-0.897,-2.117,126.471,-1.808,1.212,3.397,4,4,3.937
1777496556854,-0.937,1.106,-0.140,2.501,-0.550,-1.413,118.561,9.497,1.457,2.925,4,4,3.254
1777496556867,-0.468,0.862,-0.311,2.501,-0.373,-1.031,116.210,14.234,1.029,2.731,4,4,3.260
1777496556881,-0.485,0.771,-0.637,2.411,-0.215,-0.742,119.822,17.382,1.111,2.531,4,4,3.267
1777496556894,-0.071,0.814,-0.676,2.064,-0.160,-0.604,122.484,13.717,1.061,2.157,4,4,3.254
1777496556907,0.097,0.662,-0.817,1.432,-0.251,-0.564,127.479,8.592,1.056,1.559,1,1,3.965
1777496556921,-0.381,0.708,-0.767,1.029,0.096,-0.484,130.133,11.688,1.111,1.141,1,1,3.283
1777496556935,-0.640,0.679,-0.808,0.431,-0.174,-0.082,132.789,16.969,1.234,0.472,1,1,3.267
1777496556948,-0.336,0.915,-0.596,0.140,0.038,0.142,130.167,17.005,1.142,0.203,1,1,3.286
1777496556962,-0.332,0.907,-0.518,0.103,0.085,0.284,127.350,17.174,1.096,0.314,1,1,3.267
1777496556975,0.043,0.895,-0.530,0.047,0.103,0.273,125.537,11.895,1.041,0.296,1,1,3.881
1777496556989,-0.111,0.927,-0.490,0.040,0.095,0.279,123.456,10.319,1.055,0.297,1,1,3.571
1777496557003,-0.039,0.913,-0.518,0.017,0.098,0.289,122.404,8.111,1.050,0.306,1,1,3.263
1777496557016,0.019,0.939,-0.488,0.036,0.095,0.258,121.072,5.641,1.059,0.277,1,1,3.254
1777496557029,-0.025,0.946,-0.499,0.042,0.106,0.245,120.198,4.474,1.070,0.270,1,1,3.270
1777496557043,-0.024,0.941,-0.490,0.043,0.108,0.229,119.474,3.614,1.062,0.257,1,1,3.899
1777496557057,-0.033,0.941,-0.505,0.044,0.122,0.237,119.133,3.119,1.068,0.270,1,1,3.255
1777496557070,0.037,0.957,-0.495,0.053,0.116,0.221,118.648,1.743,1.078,0.255,1,1,3.276
1777496557084,0.015,0.930,-0.480,0.048,0.110,0.193,118.289,1.052,1.046,0.227,1,1,3.261
1777496557097,0.033,0.928,-0.510,0.042,0.099,0.170,118.430,0.283,1.060,0.201,1,1,3.320
1777496557110,0.019,0.935,-0.501,0.044,0.087,0.151,118.362,-0.068,1.061,0.180,1,1,3.944
1777496557125,0.010,0.934,-0.500,0.062,0.082,0.150,118.312,-0.203,1.059,0.181,1,1,3.266
1777496557138,0.022,0.919,-0.511,0.066,0.075,0.134,118.517,-0.475,1.051,0.167,1,1,3.267
1777496557151,0.001,0.912,-0.521,0.062,0.079,0.134,118.845,-0.358,1.050,0.167,1,1,3.269
1777496557165,0.029,0.921,-0.512,0.055,0.079,0.119,118.911,-0.684,1.054,0.153,1,1,3.255
1777496557178,0.059,0.923,-0.505,0.054,0.066,0.095,118.852,-1.364,1.054,0.128,1,1,3.844
1777496557192,0.077,0.903,-0.523,0.043,0.051,0.054,119.180,-2.130,1.047,0.086,1,1,3.347
1777496557205,0.078,0.908,-0.527,0.034,0.035,0.009,119.431,-2.701,1.053,0.049,1,1,3.253
1777496557219,0.056,0.910,-0.518,0.027,0.021,-0.019,119.487,-2.804,1.048,0.039,1,1,3.238
1777496557233,0.065,0.910,-0.524,0.031,0.006,-0.049,119.616,-3.007,1.052,0.058,1,1,3.859
1777496557246,-0.011,1.008,-0.494,0.043,-0.014,-0.066,118.674,-2.039,1.123,0.080,1,1,3.872
1777496557260,0.035,0.901,-0.524,0.034,-0.035,-0.085,119.081,-2.007,1.043,0.098,1,1,3.256
1777496557273,0.044,0.924,-0.509,0.031,-0.059,-0.092,119.018,-2.116,1.056,0.114,1,1,3.300
1777496557287,0.063,0.926,-0.505,0.043,-0.089,-0.112,118.907,-2.464,1.056,0.149,1,1,3.259
1777496557300,0.071,0.928,-0.504,0.047,-0.116,-0.128,118.804,-2.831,1.059,0.180,1,1,3.256
1777496557314,0.075,0.917,-0.521,0.072,-0.142,-0.177,119.015,-3.172,1.057,0.238,5,5,3.922
1777496557328,0.026,0.933,-0.505,0.075,-0.157,-0.176,118.860,-2.696,1.061,0.248,5,5,3.256
1777496557341,0.014,0.940,-0.524,0.095,-0.162,-0.177,118.934,-2.171,1.077,0.259,5,5,3.260
1777496557354,-0.029,0.954,-0.543,0.115,-0.148,-0.156,119.126,-1.182,1.098,0.243,5,5,3.294
1777496557368,-0.125,0.992,-0.526,0.137,-0.105,-0.132,118.800,0.861,1.130,0.217,5,5,3.257
1777496557381,-0.195,0.981,-0.524,0.139,-0.054,-0.027,118.611,3.319,1.129,0.151,1,1,3.852
1777496557395,-0.125,0.980,-0.541,0.162,-0.007,0.052,118.683,4.146,1.127,0.170,1,1,3.302
1777496557408,-0.093,1.064,-0.534,0.230,0.031,0.088,118.130,4.230,1.194,0.248,1,1,3.251
1777496557422,-0.045,1.015,-0.541,0.264,0.051,0.121,118.112,3.698,1.151,0.295,1,1,3.249
1777496557435,-0.010,1.035,-0.561,0.321,0.065,0.150,118.206,2.830,1.177,0.360,1,1,3.267
1777496557449,0.039,1.065,-0.561,0.389,0.074,0.177,118.091,1.564,1.205,0.434,4,4,3.937
1777496557464,0.083,1.095,-0.559,0.475,0.070,0.178,117.809,0.101,1.232,0.512,4,4,3.300
1777496557478,0.120,1.151,-0.583,0.563,0.053,0.163,117.552,-1.363,1.296,0.589,4,4,3.269
1777496557491,-0.009,1.349,-0.593,0.676,0.050,0.055,116.517,-0.897,1.473,0.680,4,4,3.249
1777496557506,0.084,1.366,-0.563,0.879,0.024,-0.036,115.401,-1.539,1.480,0.881,4,4,3.293
1777496557520,0.023,1.395,-0.576,1.041,0.016,-0.048,114.601,-1.356,1.509,1.043,4,4,3.895
1777496557537,0.011,1.400,-0.599,1.231,0.001,-0.035,114.214,-1.106,1.523,1.231,4,4,6.727
1777496557550,0.044,1.510,-0.565,1.495,-0.058,-0.038,113.218,-1.232,1.612,1.496,4,4,3.254
1777496557564,0.065,1.607,-0.533,1.754,-0.082,-0.009,111.903,-1.492,1.694,1.756,4,4,3.271
1777496557577,0.024,1.668,-0.485,2.051,-0.117,0.015,110.366,-1.305,1.738,2.054,4,4,3.282
1777496557591,-0.051,1.753,-0.507,2.358,-0.159,0.036,109.217,-0.524,1.826,2.364,4,4,3.939
1777496557606,0.007,2.033,-0.497,2.501,-0.187,0.001,107.734,-0.433,2.093,2.508,4,4,3.276
1777496557620,0.136,2.053,-0.585,2.501,-0.210,-0.075,107.242,-1.298,2.140,2.511,4,4,3.279
1777496557633,0.158,2.020,-0.710,2.501,-0.229,-0.059,107.815,-2.091,2.147,2.512,4,4,3.280
1777496557646,0.062,1.808,-0.787,2.501,-0.247,0.101,109.358,-2.013,1.973,2.516,4,4,3.258
1777496557662,-0.086,1.163,-0.950,2.501,-0.194,0.612,114.733,-0.584,1.504,2.582,4,4,6.210
1777496557676,0.092,1.252,-0.359,2.501,-0.156,1.247,112.373,-1.518,1.305,2.799,4,4,3.268
1777496557691,0.552,-1.059,-0.167,2.501,-0.328,1.313,55.287,-8.471,1.206,2.844,4,4,4.803
1777496557704,0.368,-0.529,1.054,1.181,-0.536,1.033,33.147,-10.869,1.236,1.658,4,4,3.270
1777496557718,-0.175,0.132,-0.558,0.538,-0.597,0.323,69.220,-3.338,0.599,0.866,4,4,3.250
1777496557731,-0.035,-0.045,0.391,-0.253,-0.553,0.044,48.760,-1.068,0.395,0.610,4,4,3.992
1777496557745,0.085,0.931,-0.100,-0.359,-0.678,-0.087,61.560,-2.188,0.940,0.772,4,4,3.266
1777496557759,0.105,0.457,-0.015,-0.440,-0.752,-0.065,69.764,-5.080,0.469,0.873,4,4,3.273
1777496557772,0.122,0.386,-0.034,-0.641,-0.807,-0.090,76.598,-8.423,0.406,1.035,4,4,3.503
1777496557785,0.068,0.227,-0.024,-0.950,-0.795,-0.182,81.880,-10.613,0.238,1.252,4,4,3.257
1777496557800,0.030,0.199,-0.066,-1.370,-0.703,-0.267,89.014,-9.934,0.211,1.562,4,4,3.979
1777496557814,0.022,0.304,-0.133,-1.740,-0.565,-0.232,95.646,-8.297,0.332,1.845,4,4,3.263
1777496557830,0.023,0.425,-0.247,-2.015,-0.400,-0.046,102.267,-6.793,0.492,2.055,4,4,5.689
1777496557843,-0.064,0.543,-0.409,-2.193,-0.192,0.139,108.942,-3.506,0.683,2.206,4,4,3.259
1777496557857,-0.117,0.653,-0.530,-2.280,0.016,0.235,114.381,-0.412,0.849,2.292,4,4,3.276
1777496557870,-0.161,0.790,-0.637,-2.257,0.229,0.253,118.301,2.139,1.028,2.282,4,4,3.944
1777496557884,-0.176,0.858,-0.707,-2.173,0.432,0.247,121.315,3.995,1.126,2.229,4,4,3.253
1777496557898,-0.168,0.858,-0.769,-2.108,0.597,0.293,124.165,5.163,1.165,2.210,4,4,3.655
1777496557911,-0.139,0.808,-0.838,-2.118,0.712,0.281,127.379,5.606,1.173,2.252,4,4,3.262
1777496557924,-0.080,0.836,-0.810,-2.183,0.787,0.139,129.192,5.151,1.167,2.325,4,4,3.263
1777496557938,-0.031,0.930,-0.805,-2.249,0.827,-0.029,129.655,4.147,1.230,2.396,5,5,3.947
1777496557952,0.071,0.982,-0.809,-2.272,0.829,-0.124,129.610,2.160,1.275,2.422,5,5,3.263
1777496557965,0.191,1.028,-0.817,-2.268,0.780,-0.122,129.308,-0.661,1.327,2.401,5,5,3.519
1777496557979,0.284,1.037,-0.808,-2.267,0.705,-0.087,128.933,-3.772,1.345,2.376,5,5,3.267
1777496557992,0.368,1.073,-0.817,-2.277,0.596,-0.074,128.491,-6.881,1.398,2.355,5,5,3.281
1777496558006,0.414,1.114,-0.834,-2.294,0.482,-0.068,128.045,-9.494,1.452,2.345,1,1,4.031
1777496558020,0.440,1.159,-0.849,-2.310,0.374,0.036,127.550,-11.527,1.502,2.340,1,1,3.254
1777496558033,0.463,1.219,-0.874,-2.309,0.277,0.240,127.029,-13.044,1.570,2.338,1,1,3.282
1777496558046,0.480,1.361,-0.930,-2.215,0.181,0.553,126.307,-13.909,1.717,2.290,1,1,3.255
1777496558060,0.456,1.451,-1.007,-2.027,0.082,0.915,125.890,-14.061,1.824,2.226,1,1,3.282
1777496558073,0.357,1.492,-1.142,-1.787,-0.012,1.269,126.305,-13.173,1.912,2.192,5,5,3.894
1777496558087,0.202,1.253,-1.258,-1.639,-0.138,1.425,128.686,-11.365,1.787,2.176,5,5,3.281
1777496558101,-0.050,1.168,-1.307,-1.584,-0.256,1.349,131.260,-7.853,1.753,2.096,5,5,3.267
1777496558114,-0.340,1.147,-1.416,-1.445,-0.333,1.217,133.889,-2.874,1.854,1.918,5,5,3.256
1777496558130,-0.496,0.882,-1.556,-1.331,-0.388,0.913,138.362,2.092,1.856,1.660,5,5,5.540
1777496558143,-0.616,0.711,-1.729,-1.197,-0.434,0.516,143.574,6.454,1.968,1.374,5,5,3.889
1777496558157,-0.643,0.670,-1.834,-0.935,-0.402,0.166,147.993,9.634,2.056,1.031,5,5,3.286
1777496558171,-0.631,0.636,-1.906,-0.572,-0.318,0.014,151.651,11.744,2.106,0.655,5,5,3.263
1777496558184,-0.702,0.554,-1.900,-0.187,-0.194,-0.052,154.916,13.846,2.100,0.274,5,5,3.267
1777496558197,-0.857,0.566,-1.763,0.156,-0.001,-0.200,156.885,16.816,2.041,0.254,5,5,3.287
1777496558211,-0.920,0.597,-1.617,0.441,0.224,-0.494,157.651,19.859,1.954,0.699,1,1,3.933
1777496558225,3.982,4.000,-0.774,1.787,-0.454,-0.709,142.335,2.513,5.697,1.976,1,1,3.284
1777496558238,0.565,1.467,-0.101,1.764,-0.431,-1.575,129.261,-3.845,1.576,2.404,1,1,3.262
1777496558252,0.062,1.296,-0.102,2.373,-0.473,-1.461,119.871,-3.547,1.301,2.827,1,1,3.261
1777496558265,-0.012,1.120,-0.336,2.500,-0.496,-1.223,116.313,-2.430,1.170,2.827,1,1,3.260
1777496558278,-0.340,0.844,-0.719,2.230,-0.372,-0.927,120.117,2.833,1.160,2.443,1,1,3.887
1777496558292,0.058,0.406,-0.925,1.412,-0.415,-0.835,129.889,1.186,1.012,1.692,1,1,3.300
1777496558306,-0.194,0.818,-0.688,1.095,-0.255,-0.888,129.944,3.649,1.087,1.433,1,1,3.444
1777496558319,0.003,0.143,-0.863,0.406,-0.444,-0.733,140.919,2.616,0.875,0.948,1,1,3.262
1777496558333,-0.685,0.400,-0.814,0.176,-0.244,-0.297,144.408,11.913,1.137,0.423,1,1,3.262
1777496558346,-0.379,0.997,-0.536,0.099,-0.073,0.052,137.351,13.691,1.194,0.134,1,1,3.889
1777496558360,-0.243,0.865,-0.528,0.074,0.072,0.286,133.039,13.636,1.043,0.304,1,1,3.276
1777496558373,-0.017,0.938,-0.511,0.049,0.093,0.284,129.129,10.200,1.069,0.303,1,1,3.256
1777496558387,0.013,0.909,-0.486,0.058,0.084,0.260,126.156,7.246,1.031,0.279,1,1,3.265
1777496558400,0.009,0.867,-0.495,0.039,0.084,0.224,124.426,5.145,0.998,0.242,1,1,3.263
1777496558413,-0.042,0.897,-0.513,0.016,0.079,0.220,123.166,4.380,1.035,0.234,1,1,3.891
1777496558427,0.061,0.943,-0.500,0.023,0.050,0.152,121.756,2.320,1.070,0.161,1,1,3.283
1777496558441,0.074,0.937,-0.493,0.035,0.014,0.065,120.670,0.610,1.061,0.075,1,1,3.256
1777496558454,0.020,0.917,-0.501,0.043,-0.018,0.002,120.130,0.156,1.045,0.046,1,1,3.265
1777496558468,-0.031,0.930,-0.508,0.047,-0.028,-0.014,119.729,0.574,1.060,0.056,1,1,3.264
1777496558481,-0.081,0.947,-0.494,0.047,-0.026,0.005,119.134,1.591,1.071,0.054,1,1,3.892
1777496558495,-0.070,0.924,-0.503,0.043,-0.004,0.027,118.979,2.183,1.055,0.051,1,1,3.359
1777496558508,-0.092,0.931,-0.514,0.038,0.007,0.055,118.955,2.923,1.067,0.067,1,1,3.259
1777496558522,-0.002,0.922,-0.507,0.033,0.006,0.061,118.910,2.166,1.052,0.069,1,1,3.343
1777496558535,-0.017,0.915,-0.513,0.034,-0.001,0.045,119.010,1.829,1.049,0.056,1,1,3.265
1777496558549,-0.034,0.914,-0.514,0.033,-0.002,0.033,119.104,1.836,1.049,0.047,1,1,3.895
1777496558563,-0.028,0.932,-0.508,0.031,-0.002,0.035,118.963,1.746,1.061,0.047,1,1,3.261
1777496558576,-0.028,0.924,-0.501,0.027,-0.001,0.044,118.830,1.684,1.052,0.052,1,1,3.257
1777496558589,-0.046,0.931,-0.508,0.024,0.007,0.054,118.766,1.895,1.061,0.059,1,1,3.274
1777496558603,-0.040,0.927,-0.507,0.022,0.010,0.058,118.746,1.969,1.058,0.062,1,1,3.258
1777496558616,-0.020,0.911,-0.509,0.022,0.012,0.051,118.865,1.734,1.044,0.057,1,1,3.911
1777496558630,-0.015,0.909,-0.505,0.016,0.009,0.044,118.911,1.494,1.040,0.047,1,1,3.259
1777496558643,-0.016,0.915,-0.511,0.011,0.005,0.035,118.984,1.332,1.048,0.037,1,1,3.274
1777496558657,-0.011,0.913,-0.510,0.008,-0.004,0.021,119.031,1.135,1.046,0.023,1,1,3.335
1777496558670,0.000,0.912,-0.506,0.008,-0.015,0.005,119.031,0.821,1.043,0.017,1,1,3.247
1777496558684,-0.019,0.916,-0.510,0.006,-0.025,-0.009,119.043,0.884,1.049,0.027,1,1,3.965
1777496558698,-0.027,0.913,-0.509,0.004,-0.026,-0.014,119.071,1.046,1.046,0.030,1,1,3.256
1777496558711,-0.039,0.922,-0.511,0.006,-0.026,-0.013,119.048,1.340,1.055,0.029,1,1,3.256
1777496558724,-0.041,0.921,-0.513,0.007,-0.020,-0.007,119.075,1.584,1.055,0.022,1,1,3.272
1777496558738,-0.044,0.909,-0.510,0.003,-0.015,0.001,119.136,1.808,1.044,0.016,1,1,3.254
1777496558751,-0.044,0.923,-0.510,0.003,-0.009,0.011,119.075,1.971,1.055,0.014,5,5,3.913
1777496558765,-0.015,0.934,-0.506,0.011,-0.013,0.007,118.904,1.656,1.063,0.018,5,5,3.257
1777496558778,-0.013,0.926,-0.509,0.011,-0.017,-0.003,118.879,1.394,1.057,0.020,5,5,3.256
1777496558792,-0.024,0.932,-0.507,0.013,-0.023,-0.012,118.789,1.370,1.061,0.029,5,5,3.281
1777496558805,-0.021,0.924,-0.517,0.014,-0.024,-0.019,118.907,1.304,1.059,0.033,5,5,3.366
1777496558819,-0.029,0.927,-0.511,0.016,-0.026,-0.022,118.896,1.373,1.058,0.038,2,2,4.037
1777496558833,-0.044,0.922,-0.519,0.018,-0.022,-0.015,119.032,1.652,1.059,0.032,2,2,3.262
1777496558846,-0.040,0.930,-0.508,0.021,-0.018,-0.013,118.924,1.790,1.060,0.031,2,2,3.257
1777496558860,-0.033,0.924,-0.515,0.021,-0.020,-0.013,118.982,1.796,1.058,0.032,2,2,3.258
1777496558873,-0.020,0.933,-0.515,0.028,-0.024,-0.023,118.954,1.601,1.066,0.043,2,2,3.256
1777496558886,-0.025,0.921,-0.520,0.034,-0.022,-0.035,119.085,1.533,1.058,0.053,5,5,3.924
1777496558900,-0.031,0.924,-0.513,0.037,-0.023,-0.047,119.073,1.573,1.058,0.064,5,5,3.265
1777496558914,-0.021,0.924,-0.523,0.039,-0.023,-0.063,119.200,1.450,1.062,0.078,5,5,3.269
1777496558927,-0.005,0.920,-0.524,0.039,-0.020,-0.066,119.329,1.137,1.059,0.079,5,5,3.277
1777496558940,-0.042,0.907,-0.517,0.040,-0.019,-0.068,119.425,1.456,1.045,0.081,5,5,3.249
1777496558954,-0.041,0.915,-0.519,0.042,-0.013,-0.069,119.465,1.662,1.053,0.081,4,4,3.893
1777496558968,-0.039,0.917,-0.527,0.043,-0.012,-0.072,119.582,1.788,1.059,0.085,4,4,3.251
1777496558982,-0.031,0.923,-0.524,0.047,-0.011,-0.076,119.587,1.757,1.062,0.090,4,4,4.125
1777496558995,-0.018,0.933,-0.525,0.054,-0.006,-0.088,119.521,1.544,1.071,0.103,4,4,3.284
1777496559009,-0.033,0.929,-0.524,0.058,-0.009,-0.099,119.493,1.612,1.067,0.115,4,4,3.662
1777496559023,-0.060,0.921,-0.526,0.063,-0.003,-0.092,119.565,2.052,1.062,0.111,4,4,4.241
1777496559037,-0.042,0.912,-0.535,0.063,-0.011,-0.093,119.791,2.109,1.058,0.113,4,4,3.266
1777496559052,-0.031,0.932,-0.513,0.071,-0.012,-0.124,119.528,1.983,1.064,0.144,4,4,4.707
1777496559065,-0.065,0.907,-0.555,0.064,-0.021,-0.130,120.047,2.388,1.066,0.146,4,4,3.293
1777496559079,0.044,1.015,-0.525,0.075,-0.027,-0.149,119.322,1.151,1.143,0.170,4,4,3.297
1777496559092,0.153,1.002,-0.526,0.095,-0.081,-0.235,118.886,-1.234,1.142,0.267,4,4,3.888
1777496559106,0.140,0.981,-0.546,0.116,-0.147,-0.235,118.937,-2.816,1.132,0.301,4,4,3.255
1777496559119,0.262,1.011,-0.581,0.135,-0.284,0.027,119.188,-5.483,1.195,0.315,4,4,3.261
1777496559133,0.351,1.380,-0.577,0.250,-0.477,0.250,117.435,-7.568,1.536,0.594,4,4,3.255
1777496559147,0.140,1.069,-0.579,0.518,-0.561,0.347,117.708,-7.297,1.223,0.839,4,4,3.998
1777496559162,0.436,1.163,-0.629,0.609,-0.830,0.584,117.899,-10.255,1.393,1.183,4,4,3.932
1777496559176,0.343,1.146,-0.576,0.677,-1.051,0.675,117.568,-11.531,1.328,1.420,4,4,3.271
1777496559190,0.331,1.078,-0.490,0.732,-1.196,0.711,116.722,-12.637,1.230,1.572,4,4,3.260
1777496559203,0.359,1.044,-0.462,0.782,-1.344,0.777,115.951,-13.942,1.197,1.739,4,4,3.251
1777496559216,0.325,0.949,-0.493,0.779,-1.499,0.876,116.362,-14.747,1.118,1.903,4,4,3.276
1777496559230,0.305,0.894,-0.474,0.770,-1.636,0.903,116.784,-15.297,1.057,2.021,4,4,3.924
1777496559244,0.303,0.874,-0.477,0.740,-1.783,1.003,117.273,-15.737,1.041,2.176,4,4,3.270
1777496559257,0.279,0.815,-0.410,0.691,-1.919,1.076,117.126,-16.083,0.954,2.306,4,4,3.261
1777496559270,0.247,0.815,-0.389,0.642,-2.026,1.114,116.692,-15.869,0.936,2.400,4,4,3.262
1777496559284,0.231,0.785,-0.401,0.567,-2.131,1.183,116.782,-15.544,0.911,2.502,4,4,3.277
1777496559297,0.245,0.738,-0.397,0.475,-2.239,1.303,117.186,-15.749,0.873,2.634,4,4,3.908
1777496559311,0.136,0.751,-0.347,0.375,-2.310,1.347,116.544,-14.012,0.838,2.700,4,4,3.390
1777496559325,0.111,0.770,-0.320,0.279,-2.364,1.385,115.471,-12.281,0.841,2.754,4,4,3.637
1777496559338,0.098,0.787,-0.272,0.185,-2.426,1.479,113.745,-10.775,0.838,2.848,4,4,3.255
1777496559352,0.023,0.803,-0.288,0.099,-2.459,1.506,112.662,-8.285,0.853,2.885,4,4,3.271
1777496559365,0.016,0.809,-0.286,0.009,-2.477,1.495,111.799,-6.337,0.858,2.894,4,4,3.915
1777496559379,-0.003,0.900,-0.272,-0.051,-2.494,1.551,110.448,-4.569,0.940,2.937,4,4,3.272
1777496559393,0.009,0.944,-0.259,-0.114,-2.501,1.625,109.074,-3.470,0.979,2.985,4,4,3.269
1777496559406,0.028,0.969,-0.247,-0.163,-2.501,1.686,107.789,-2.971,1.000,3.021,4,4,3.262
1777496559419,0.025,1.064,-0.229,-0.195,-2.501,1.727,106.259,-2.522,1.088,3.046,4,4,3.265
1777496559433,0.034,1.077,-0.221,-0.233,-2.501,1.752,104.997,-2.325,1.100,3.063,5,5,3.920
1777496559447,0.063,1.133,-0.210,-0.244,-2.501,1.760,103.786,-2.543,1.154,3.068,5,5,3.285
1777496559460,0.067,1.103,-0.209,-0.261,-2.501,1.812,102.957,-2.784,1.125,3.100,5,5,3.255
1777496559473,0.024,1.193,-0.198,-0.262,-2.501,1.853,101.997,-2.344,1.209,3.124,5,5,3.268
1777496559487,-0.050,1.189,-0.174,-0.269,-2.501,1.880,101.009,-1.070,1.203,3.141,5,5,3.261
1777496559501,-0.153,1.121,-0.291,-0.303,-2.501,1.864,101.968,1.254,1.168,3.134,5,5,4.477
1777496559517,-0.357,1.204,-0.584,-0.263,-2.501,1.531,105.728,4.954,1.386,2.944,5,5,5.112
1777496559530,-0.582,1.016,-0.742,-0.141,-2.355,1.178,111.244,10.317,1.386,2.637,5,5,3.379
1777496559544,-0.564,0.766,-0.834,-0.158,-2.089,1.059,118.313,14.684,1.265,2.347,5,5,3.324
1777496559557,-0.281,0.712,-0.777,-0.286,-1.906,1.211,123.496,14.748,1.090,2.277,5,5,3.270
1777496559571,0.021,0.914,-0.736,-0.321,-1.917,1.266,124.943,10.490,1.174,2.320,5,5,3.943
1777496559585,0.126,0.991,-0.729,-0.226,-2.051,1.179,125.317,6.070,1.236,2.377,5,5,3.264
1777496559598,0.131,0.960,-0.699,-0.156,-2.190,1.093,125.523,2.731,1.195,2.453,5,5,3.247
1777496559613,0.075,0.986,-0.633,-0.088,-2.315,1.022,124.763,1.002,1.174,2.532,5,5,4.848
1777496559626,-0.013,0.991,-0.577,-0.030,-2.358,0.976,123.539,0.902,1.147,2.552,5,5,3.257
1777496559640,-0.064,0.992,-0.529,-0.001,-2.349,0.863,122.055,1.545,1.126,2.502,5,5,4.292
1777496559654,-0.029,1.042,-0.491,0.051,-2.326,0.708,120.208,1.521,1.152,2.432,5,5,3.256
1777496559670,0.056,1.106,-0.433,0.146,-2.305,0.622,117.825,0.382,1.189,2.392,5,5,3.387
1777496559684,0.090,1.091,-0.351,0.258,-2.288,0.602,115.128,-0.939,1.149,2.380,5,5,3.265
1777496559697,0.073,1.041,-0.214,0.314,-2.251,0.585,111.476,-1.743,1.065,2.347,5,5,3.262
1777496559710,0.072,0.996,-0.077,0.316,-2.187,0.508,106.867,-2.387,1.001,2.267,1,1,3.940
1777496559725,0.048,0.979,0.070,0.312,-2.079,0.420,101.205,-2.504,0.983,2.144,1,1,3.270
1777496559738,0.023,1.055,0.186,0.370,-1.908,0.505,95.479,-2.159,1.071,2.008,1,1,3.285
1777496559751,-0.020,1.137,0.235,0.555,-1.687,0.690,90.849,-1.315,1.161,1.906,1,1,3.276
1777496559765,-0.050,1.253,0.234,0.820,-1.461,0.785,87.762,-0.349,1.275,1.850,1,1,3.260
1777496559778,-0.418,0.631,0.214,0.724,-0.672,1.051,83.315,8.421,0.787,1.442,1,1,3.960
1777496559792,0.689,-0.227,1.056,-0.945,-0.429,1.738,57.524,-2.642,1.281,2.024,1,1,3.265
1777496559805,-0.468,2.110,-0.487,-0.686,0.359,-0.198,69.810,1.367,2.215,0.799,1,1,3.277
1777496559819,1.290,0.001,-0.783,-0.522,-0.017,0.227,99.564,-14.869,1.509,0.570,1,1,3.324
1777496559833,-0.760,1.393,-0.583,-0.481,0.096,0.021,103.112,-3.634,1.691,0.491,1,1,3.710
1777496559847,0.199,0.440,-0.723,-0.139,-0.043,-0.178,115.421,-6.226,0.869,0.230,1,1,3.947
1777496559861,-0.033,0.858,-0.568,-0.047,-0.108,-0.260,117.601,-4.052,1.029,0.286,1,1,3.256
1777496559874,0.137,0.995,-0.448,-0.012,-0.176,-0.357,116.688,-4.897,1.100,0.398,1,1,3.277
1777496559887,0.011,0.960,-0.474,0.025,-0.206,-0.363,116.577,-3.740,1.070,0.418,1,1,3.265
1777496559901,-0.161,0.931,-0.482,0.022,-0.172,-0.268,116.788,-0.375,1.060,0.319,1,1,3.266
1777496559914,-0.255,0.932,-0.509,-0.003,-0.075,-0.073,117.287,3.374,1.092,0.104,1,1,3.940
1777496559928,-0.174,0.961,-0.471,-0.011,-0.001,0.083,116.976,4.952,1.084,0.084,1,1,3.264
1777496559942,-0.093,0.939,-0.486,-0.018,0.035,0.155,117.076,4.976,1.061,0.160,1,1,3.295
1777496559955,-0.024,0.959,-0.467,-0.008,0.048,0.175,116.780,3.979,1.067,0.182,1,1,3.263
1777496559968,0.051,0.947,-0.489,0.003,0.037,0.147,116.922,2.160,1.067,0.151,1,1,3.268
1777496559982,0.065,0.944,-0.486,0.012,0.025,0.103,117.010,0.624,1.064,0.106,1,1,3.945
1777496559996,0.073,0.916,-0.487,0.013,0.001,0.041,117.277,-0.636,1.040,0.043,1,1,3.259
1777496560009,0.070,0.940,-0.490,0.012,-0.024,-0.018,117.346,-1.482,1.062,0.033,1,1,3.313
1777496560026,0.030,0.923,-0.483,0.007,-0.046,-0.070,117.414,-1.528,1.042,0.084,1,1,3.290
1777496560040,0.021,0.937,-0.462,0.017,-0.061,-0.099,117.102,-1.426,1.045,0.117,1,1,4.045
1777496560054,0.018,0.922,-0.470,0.026,-0.078,-0.120,117.081,-1.314,1.036,0.145,1,1,3.940
1777496560068,-0.002,0.928,-0.474,0.028,-0.090,-0.127,117.078,-0.927,1.042,0.159,1,1,3.275
1777496560081,-0.002,0.913,-0.497,0.023,-0.093,-0.122,117.480,-0.651,1.039,0.155,1,1,3.262
1777496560095,-0.006,0.937,-0.483,0.026,-0.091,-0.116,117.422,-0.393,1.054,0.150,1,1,3.253
1777496560109,0.003,0.929,-0.480,0.021,-0.089,-0.108,117.392,-0.330,1.046,0.142,1,1,3.274
1777496560122,-0.025,0.926,-0.510,0.017,-0.082,-0.093,117.794,0.131,1.057,0.125,1,1,3.885
1777496560136,-0.017,0.949,-0.489,0.014,-0.077,-0.088,117.650,0.336,1.068,0.118,1,1,3.325
1777496560150,-0.019,0.943,-0.484,0.007,-0.074,-0.084,117.521,0.520,1.060,0.112,1,1,3.261
1777496560163,-0.026,0.958,-0.489,0.000,-0.067,-0.076,117.398,0.755,1.076,0.101,1,1,3.246
1777496560176,-0.037,0.949,-0.484,0.002,-0.059,-0.070,117.298,1.090,1.066,0.092,1,1,3.274
1777496560190,-0.049,0.948,-0.488,0.001,-0.054,-0.055,117.284,1.511,1.067,0.078,1,1,4.048
1777496560206,-0.051,0.953,-0.479,0.004,-0.041,-0.035,117.128,1.836,1.068,0.054,1,1,4.874
1777496560219,-0.040,0.934,-0.479,0.001,-0.032,-0.021,117.130,1.930,1.050,0.038,1,1,3.266
1777496560233,-0.035,0.934,-0.478,0.003,-0.033,-0.023,117.128,1.931,1.050,0.040,1,1,3.275
1777496560246,-0.022,0.932,-0.484,0.004,-0.035,-0.031,117.214,1.740,1.051,0.047,1,1,3.267
1777496560259,-0.022,0.926,-0.481,0.006,-0.043,-0.047,117.283,1.592,1.044,0.064,1,1,3.916
1777496560273,-0.018,0.923,-0.482,0.005,-0.047,-0.063,117.365,1.430,1.042,0.079,1,1,3.312
1777496560287,-0.046,0.917,-0.480,0.002,-0.050,-0.068,117.439,1.726,1.037,0.085,1,1,3.251
1777496560301,-0.039,0.923,-0.485,0.000,-0.049,-0.073,117.516,1.832,1.043,0.088,1,1,4.033
1777496560314,-0.063,0.931,-0.490,-0.003,-0.041,-0.066,117.577,2.270,1.054,0.077,1,1,3.264
1777496560328,-0.059,0.916,-0.486,-0.006,-0.032,-0.059,117.677,2.534,1.039,0.067,1,1,3.930
1777496560342,-0.060,0.923,-0.480,-0.008,-0.022,-0.053,117.627,2.735,1.042,0.058,1,1,3.719
1777496560355,-0.064,0.935,-0.486,-0.010,-0.017,-0.041,117.584,2.934,1.056,0.046,1,1,3.251
1777496560369,-0.055,0.932,-0.482,-0.013,-0.015,-0.036,117.518,2.958,1.051,0.041,1,1,3.276
1777496560382,-0.062,0.933,-0.479,-0.016,-0.011,-0.026,117.430,3.066,1.051,0.033,1,1,3.272
1777496560396,-0.052,0.936,-0.485,-0.019,-0.007,-0.026,117.419,3.001,1.055,0.033,1,1,3.949
1777496560410,-0.071,0.935,-0.486,-0.023,-0.003,-0.016,117.427,3.232,1.056,0.028,1,1,3.274
1777496560423,-0.073,0.941,-0.484,-0.022,0.005,-0.001,117.376,3.421,1.061,0.023,1,1,3.255
1777496560439,-0.061,0.943,-0.470,-0.021,0.013,0.012,117.141,3.389,1.056,0.027,1,1,5.957
1777496560453,-0.061,0.937,-0.475,-0.022,0.013,0.023,117.074,3.375,1.052,0.034,1,1,3.259
1777496560466,-0.055,0.948,-0.479,-0.020,0.015,0.032,117.007,3.267,1.063,0.040,1,1,3.939
1777496560480,-0.056,0.932,-0.483,-0.022,0.019,0.041,117.108,3.211,1.052,0.050,1,1,3.272
1777496560493,-0.047,0.936,-0.474,-0.020,0.021,0.042,117.037,3.035,1.050,0.051,1,1,3.264
1777496560507,-0.057,0.935,-0.481,-0.015,0.021,0.049,117.093,3.055,1.053,0.055,1,1,3.279
1777496560521,-0.039,0.951,-0.471,-0.003,0.020,0.051,116.896,2.792,1.062,0.055,1,1,3.256
1777496560534,-0.034,0.942,-0.473,0.001,0.009,0.042,116.832,2.536,1.054,0.043,1,1,3.953
1777496560548,-0.035,0.935,-0.475,0.005,0.004,0.030,116.866,2.362,1.049,0.031,1,1,3.273
1777496560562,-0.044,0.934,-0.473,0.009,0.003,0.026,116.861,2.373,1.048,0.028,1,1,3.270
1777496560575,-0.039,0.954,-0.460,0.020,-0.002,0.029,116.559,2.296,1.060,0.035,1,1,3.386
1777496560588,-0.042,0.957,-0.467,0.025,-0.003,0.029,116.418,2.286,1.065,0.038,1,1,3.253
1777496560602,-0.057,0.947,-0.478,0.029,0.003,0.039,116.518,2.505,1.062,0.049,1,1,3.909
1777496560616,-0.047,0.942,-0.475,0.029,0.008,0.055,116.582,2.519,1.056,0.063,1,1,3.251
1777496560629,-0.083,0.953,-0.477,0.031,0.018,0.075,116.581,3.049,1.069,0.083,1,1,3.265
1777496560642,-0.038,0.953,-0.485,0.033,0.022,0.094,116.684,2.776,1.069,0.102,1,1,3.256
1777496560656,-0.068,0.967,-0.485,0.037,0.032,0.111,116.669,3.000,1.084,0.121,1,1,3.273
1777496560669,-0.044,0.965,-0.483,0.035,0.040,0.118,116.643,2.826,1.080,0.129,2,2,3.889
1777496560683,-0.022,0.961,-0.495,0.041,0.047,0.129,116.806,2.377,1.082,0.144,2,2,3.253
1777496560697,-0.013,0.966,-0.482,0.052,0.050,0.125,116.733,1.924,1.079,0.144,2,2,3.272
1777496560710,-0.026,0.966,-0.480,0.065,0.054,0.117,116.656,1.779,1.079,0.144,2,2,3.371
1777496560723,-0.039,0.971,-0.481,0.082,0.062,0.121,116.572,1.853,1.084,0.159,2,2,3.257
1777496560737,0.039,0.974,-0.485,0.101,0.063,0.106,116.539,0.797,1.089,0.159,5,5,3.929
1777496560751,0.061,1.029,-0.493,0.167,0.060,0.047,116.293,-0.239,1.142,0.184,5,5,3.264
1777496560764,0.241,1.180,-0.513,0.280,0.006,-0.035,115.538,-3.044,1.309,0.282,5,5,3.274
1777496560777,0.420,1.330,-0.514,0.533,-0.114,0.008,114.350,-6.657,1.486,0.545,5,5,3.274
1777496560791,0.043,2.101,-0.520,1.089,-0.010,0.045,111.530,-5.166,2.164,1.090,5,5,3.250
1777496560804,0.455,1.680,-0.640,1.151,-0.246,0.166,111.345,-7.609,1.855,1.188,4,4,3.933
1777496560818,-0.055,1.958,-0.508,1.697,-0.271,-0.131,109.509,-5.130,2.023,1.724,4,4,3.276
1777496560832,0.211,1.932,-0.500,1.976,-0.405,0.136,108.156,-5.372,2.007,2.022,4,4,3.266
1777496560845,0.190,1.897,-0.433,2.297,-0.547,0.233,106.725,-5.431,1.955,2.373,4,4,3.259
1777496560858,0.150,1.910,-0.341,2.501,-0.654,0.146,104.940,-5.155,1.946,2.589,4,4,3.358
1777496560872,0.199,1.824,-0.324,2.501,-0.716,-0.005,103.625,-5.422,1.863,2.602,4,4,3.923
1777496560886,0.338,1.614,-0.397,2.501,-0.785,-0.159,103.676,-7.059,1.696,2.626,4,4,3.268
1777496560899,0.470,1.248,-0.511,2.501,-0.957,-0.274,105.996,-10.347,1.428,2.692,4,4,3.278
1777496560912,0.211,0.999,-0.566,2.501,-0.986,-0.464,109.653,-10.367,1.167,2.729,4,4,3.272
1777496560926,0.317,0.399,-0.364,2.501,-1.039,-0.506,115.788,-15.773,0.626,2.755,4,4,3.258
1777496560939,0.133,0.338,0.122,2.010,-0.995,-0.580,103.475,-17.004,0.383,2.316,4,4,3.934
1777496560953,0.034,0.363,0.379,1.426,-0.809,-0.251,87.341,-13.425,0.525,1.658,4,4,3.266
1777496560967,-0.318,0.120,0.070,0.915,-0.440,0.257,79.895,8.155,0.347,1.048,4,4,3.268
1777496560980,-0.153,0.417,0.061,0.408,-0.195,0.513,80.373,11.350,0.448,0.684,4,4,3.263
1777496560993,-0.185,0.550,0.070,0.154,-0.009,0.477,81.025,13.272,0.584,0.501,4,4,3.259
1777496561007,-0.148,0.584,0.046,-0.004,0.110,0.349,82.229,13.528,0.604,0.366,4,4,3.955
1777496561021,-0.099,0.513,0.042,-0.174,0.168,0.291,83.058,12.816,0.525,0.379,4,4,3.263
1777496561034,-0.097,0.492,0.038,-0.364,0.203,0.326,83.746,12.346,0.503,0.530,4,4,3.279
1777496561047,-0.084,0.485,0.039,-0.588,0.205,0.381,84.199,11.666,0.493,0.730,4,4,3.271
1777496561061,-0.088,0.459,0.025,-0.881,0.192,0.462,84.935,11.432,0.468,1.013,4,4,3.296
1777496561074,-0.108,0.426,0.010,-1.236,0.192,0.593,85.949,12.189,0.440,1.385,4,4,3.968
1777496561088,-0.128,0.556,0.003,-1.564,0.197,0.714,86.968,12.388,0.571,1.731,4,4,3.249
1777496561102,-0.168,0.671,-0.043,-1.795,0.195,0.747,88.777,12.834,0.693,1.954,4,4,3.264
1777496561115,-0.180,0.762,-0.114,-1.959,0.191,0.717,91.402,12.914,0.791,2.095,4,4,3.243
1777496561128,-0.176,0.852,-0.188,-2.084,0.158,0.639,94.390,12.507,0.890,2.186,4,4,3.264
1777496561142,-0.162,0.916,-0.249,-2.200,0.108,0.578,97.306,11.740,0.963,2.277,5,5,3.847
1777496561156,-0.161,0.997,-0.320,-2.315,0.052,0.565,100.141,10.925,1.059,2.384,5,5,3.269
1777496561169,-0.122,1.060,-0.393,-2.434,0.003,0.575,102.900,9.639,1.137,2.501,5,5,3.253
1777496561183,-0.086,1.101,-0.442,-2.501,-0.032,0.559,105.318,8.157,1.190,2.563,5,5,3.255
1777496561196,-0.073,1.202,-0.495,-2.501,-0.035,0.547,107.221,6.827,1.302,2.561,5,5,3.284
1777496561209,-0.072,1.329,-0.550,-2.501,0.006,0.564,108.645,5.752,1.440,2.564,5,5,3.936
1777496561223,-0.050,1.410,-0.625,-2.501,0.084,0.590,110.067,4.698,1.543,2.571,5,5,3.280
1777496561237,-0.036,1.477,-0.715,-2.501,0.181,0.615,111.624,3.772,1.641,2.582,5,5,3.277
1777496561250,-0.009,1.559,-0.834,-2.501,0.283,0.675,113.388,2.830,1.769,2.606,5,5,3.263
1777496561263,-0.001,1.639,-0.985,-2.501,0.361,0.787,115.443,2.071,1.912,2.647,5,5,3.293
1777496561277,-0.093,1.683,-1.114,-2.501,0.437,0.854,117.622,2.225,2.020,2.679,5,5,3.940
1777496561291,-0.210,1.647,-1.318,-2.475,0.520,0.830,120.607,3.161,2.120,2.662,5,5,3.266
1777496561304,-0.224,1.529,-1.510,-2.282,0.558,0.607,124.399,3.914,2.160,2.426,5,5,3.265
1777496561318,-0.167,1.344,-1.688,-2.011,0.557,0.265,129.014,4.052,2.165,2.104,5,5,3.257
1777496561331,0.045,1.207,-1.860,-1.623,0.496,0.013,133.879,2.642,2.218,1.697,5,5,3.290
1777496561344,0.155,1.050,-1.979,-1.104,0.378,0.157,138.791,0.862,2.246,1.178,5,5,3.924
1777496561358,0.014,0.859,-2.041,-0.542,0.252,0.552,143.760,0.532,2.214,0.813,5,5,3.275
1777496561372,-0.325,0.715,-1.984,-0.065,0.190,0.579,148.199,2.758,2.134,0.612,5,5,3.269
1777496561385,-0.677,0.705,-1.864,0.355,0.256,0.150,151.192,7.082,2.105,0.463,5,5,3.265
1777496561399,1.015,4.000,-2.799,1.976,0.043,-1.561,144.112,1.996,4.986,2.519,5,5,3.286
1777496561412,0.378,2.058,0.396,1.934,-0.513,-1.180,126.554,-1.307,2.129,2.323,5,5,3.929
1777496561426,0.053,1.215,0.276,2.275,-0.308,-1.091,113.225,-1.615,1.247,2.542,5,5,3.276
1777496561439,-0.041,0.999,-0.230,2.390,-0.140,-0.977,110.458,-0.567,1.026,2.586,5,5,3.270
1777496561453,-0.130,0.934,-0.350,2.279,-0.139,-0.853,110.488,1.599,1.006,2.437,5,5,3.260
1777496561466,-0.084,0.910,-0.572,2.075,-0.126,-0.682,113.638,2.370,1.078,2.187,5,5,3.272
1777496561480,-0.195,0.916,-0.496,1.787,-0.136,-0.474,114.930,4.588,1.060,1.854,1,1,3.997
1777496561494,-0.095,0.825,-0.623,1.536,-0.172,-0.317,118.198,4.770,1.038,1.578,1,1,3.302
1777496561507,-0.087,0.562,-0.840,1.012,-0.208,-0.273,125.762,4.809,1.014,1.069,1,1,3.258
1777496561520,-0.180,0.796,-0.616,0.703,-0.072,-0.191,126.290,6.245,1.022,0.732,1,1,3.256
1777496561534,-0.057,0.898,-0.495,0.587,-0.028,-0.142,124.280,5.419,1.027,0.605,1,1,3.266
1777496561547,-0.075,0.843,-0.504,0.317,-0.087,-0.039,123.367,5.138,0.985,0.331,1,1,3.926
1777496561561,-0.018,0.778,-0.554,0.172,-0.064,-0.034,123.935,4.035,0.955,0.187,1,1,3.317
1777496561575,-0.035,0.876,-0.529,0.140,-0.091,-0.056,123.175,3.480,1.024,0.176,1,1,3.309
1777496561589,0.049,0.877,-0.506,0.106,-0.072,-0.073,122.310,1.797,1.013,0.148,1,1,3.264
1777496561602,-0.002,0.915,-0.492,0.077,-0.110,-0.097,121.222,1.348,1.039,0.166,1,1,3.266
1777496561615,-0.044,0.945,-0.491,0.052,-0.094,-0.081,120.211,1.629,1.066,0.134,1,1,3.857
1777496561629,-0.078,0.960,-0.506,0.040,-0.064,-0.044,119.552,2.302,1.088,0.087,1,1,3.254
1777496561643,-0.089,0.964,-0.473,0.037,-0.036,-0.007,118.628,2.964,1.078,0.052,1,1,3.247
1777496561656,-0.097,0.946,-0.490,0.040,-0.011,0.039,118.298,3.568,1.070,0.057,1,1,3.253
1777496561669,-0.093,0.978,-0.503,0.042,0.017,0.078,118.006,3.906,1.104,0.091,1,1,3.252
1777496561683,-0.075,0.954,-0.494,0.045,0.038,0.114,117.836,3.929,1.077,0.128,1,1,3.853
1777496561697,-0.023,0.947,-0.492,0.042,0.046,0.126,117.736,3.204,1.067,0.141,1,1,3.280
1777496561710,0.019,0.937,-0.493,0.039,0.041,0.103,117.734,2.064,1.059,0.118,1,1,3.248
1777496561723,-0.009,0.964,-0.484,0.043,0.033,0.071,117.447,1.632,1.079,0.090,1,1,3.295
1777496561737,0.005,0.945,-0.483,0.046,0.016,0.039,117.350,1.120,1.062,0.062,1,1,3.270
1777496561750,-0.011,0.928,-0.485,0.044,0.011,0.022,117.411,0.987,1.048,0.050,1,1,3.898
1777496561764,-0.019,0.935,-0.471,0.040,0.010,0.018,117.229,1.002,1.047,0.045,1,1,3.261
1777496561777,-0.042,0.944,-0.493,0.046,0.016,0.034,117.320,1.341,1.066,0.060,1,1,3.253
1777496561791,-0.025,0.939,-0.494,0.050,0.020,0.044,117.437,1.342,1.062,0.069,1,1,3.260
1777496561804,-0.010,0.922,-0.495,0.047,0.017,0.039,117.646,1.128,1.046,0.064,1,1,3.250
1777496561817,0.000,0.909,-0.500,0.046,0.005,0.029,117.959,0.816,1.037,0.055,1,1,3.946
1777496561832,0.008,0.921,-0.495,0.052,-0.014,0.020,118.046,0.480,1.045,0.058,1,1,3.261
1777496561845,0.012,0.916,-0.484,0.052,-0.032,-0.005,118.002,0.164,1.036,0.061,1,1,3.266
1777496561858,0.021,0.913,-0.500,0.052,-0.060,-0.030,118.198,-0.189,1.041,0.085,1,1,3.272
1777496561872,0.009,0.922,-0.487,0.057,-0.088,-0.053,118.096,-0.265,1.043,0.118,1,1,3.267
1777496561886,0.017,0.914,-0.501,0.061,-0.099,-0.079,118.268,-0.451,1.042,0.141,1,1,4.826
1777496561900,-0.023,0.920,-0.504,0.068,-0.097,-0.086,118.386,0.017,1.049,0.146,1,1,3.281
1777496561914,0.006,0.981,-0.501,0.081,-0.079,-0.100,118.031,-0.077,1.101,0.152,1,1,3.256
1777496561927,-0.066,0.932,-0.500,0.083,-0.053,-0.070,118.071,0.904,1.060,0.121,1,1,3.294
1777496561940,-0.055,0.925,-0.508,0.077,-0.035,-0.041,118.258,1.465,1.057,0.094,1,1,3.263
1777496561954,-0.055,0.934,-0.512,0.074,-0.019,-0.021,118.395,1.867,1.066,0.079,1,1,3.969
1777496561968,-0.024,0.934,-0.507,0.071,-0.012,-0.020,118.429,1.714,1.063,0.075,1,1,3.302
1777496561981,-0.038,0.945,-0.513,0.078,-0.009,-0.026,118.455,1.803,1.076,0.083,1,1,3.273
1777496561995,-0.038,0.901,-0.522,0.094,-0.003,-0.037,118.902,1.874,1.042,0.101,1,1,3.262
1777496562008,-0.037,0.902,-0.528,0.093,-0.001,-0.040,119.293,1.917,1.046,0.101,1,1,3.253
1777496562021,-0.056,0.929,-0.517,0.102,0.009,-0.039,119.243,2.219,1.065,0.109,2,2,3.980
1777496562036,-0.042,0.937,-0.523,0.097,0.018,-0.031,119.217,2.225,1.074,0.104,2,2,3.274
1777496562049,-0.057,1.017,-0.530,0.126,0.024,-0.003,118.756,2.394,1.148,0.128,2,2,3.273
1777496562062,-0.107,1.227,-0.519,0.209,0.044,0.058,117.181,2.990,1.336,0.222,2,2,3.265
1777496562077,-0.040,1.098,-0.545,0.386,0.081,0.120,116.966,2.682,1.227,0.412,2,2,4.238
1777496562090,-0.042,1.286,-0.527,0.499,0.092,0.204,115.701,2.425,1.391,0.547,4,4,4.095
1777496562104,-0.101,1.198,-0.526,0.613,0.135,0.288,115.161,2.960,1.312,0.690,4,4,3.263
1777496562118,-0.062,1.279,-0.590,0.718,0.142,0.257,115.051,2.839,1.410,0.776,4,4,3.305
1777496562132,-0.057,1.557,-0.572,0.933,0.153,0.125,113.733,2.600,1.660,0.954,4,4,3.264
1777496562145,0.057,1.327,-0.568,1.068,0.119,0.127,113.585,1.291,1.445,1.082,4,4,3.246
1777496562158,0.053,1.432,-0.533,1.260,0.083,0.112,112.729,0.406,1.529,1.267,4,4,3.908
1777496562172,0.120,1.415,-0.535,1.473,0.038,0.069,112.188,-0.928,1.517,1.475,4,4,3.253
1777496562186,0.211,1.532,-0.521,1.716,-0.014,0.020,111.265,-2.681,1.632,1.717,4,4,3.284
1777496562199,0.322,1.621,-0.478,1.985,-0.104,-0.034,109.960,-4.874,1.720,1.988,4,4,3.257
1777496562212,0.309,1.821,-0.470,2.315,-0.228,-0.156,108.480,-6.075,1.906,2.332,4,4,3.264
1777496562226,0.175,1.911,-0.475,2.501,-0.352,-0.240,107.260,-5.805,1.977,2.537,4,4,3.933
1777496562240,0.115,2.055,-0.572,2.501,-0.427,-0.349,106.798,-5.072,2.137,2.561,4,4,3.254
1777496562254,0.009,2.121,-0.584,2.501,-0.392,-0.381,106.418,-3.765,2.200,2.560,4,4,3.449
1777496562267,0.207,2.185,-0.906,2.501,-0.415,-0.424,108.063,-4.096,2.374,2.571,4,4,3.290
1777496562281,0.411,1.717,-0.988,2.501,-0.571,-0.275,111.262,-6.159,2.023,2.580,4,4,3.308
1777496562294,0.179,1.867,-0.891,2.501,-0.547,-0.092,112.410,-5.831,2.076,2.562,4,4,4.110
1777496562308,0.462,1.314,-0.280,2.501,-0.691,0.239,109.601,-9.388,1.421,2.606,4,4,3.254
1777496562321,0.733,-1.089,0.766,2.501,-0.884,-0.011,65.163,-14.642,1.520,2.653,4,4,3.268
1777496562335,0.230,0.782,-0.415,1.681,-0.820,-0.239,79.426,-14.621,0.915,1.886,4,4,3.263
1777496562348,-0.232,0.170,0.030,0.701,-0.478,-0.205,79.583,3.737,0.290,0.873,4,4,3.291
1777496562362,0.060,0.421,0.075,-0.069,-0.232,-0.260,79.678,0.584,0.432,0.356,4,4,3.929
1777496562376,-0.149,0.725,0.018,-0.190,0.011,-0.151,82.086,3.573,0.740,0.243,4,4,3.268
1777496562389,-0.012,0.496,0.035,-0.364,0.184,-0.099,83.137,2.988,0.498,0.420,4,4,3.276
1777496562402,-0.018,0.373,0.037,-0.553,0.304,-0.073,83.446,2.926,0.375,0.635,4,4,3.262
1777496562416,-0.025,0.210,0.067,-0.854,0.424,-0.021,80.405,3.895,0.222,0.953,4,4,3.297
1777496562429,-0.042,0.117,0.089,-1.239,0.526,0.052,72.938,7.201,0.153,1.347,4,4,3.947
1777496562443,-0.032,0.128,0.063,-1.669,0.590,0.095,70.478,8.703,0.146,1.773,4,4,3.272
1777496562457,-0.001,0.241,0.030,-2.021,0.616,0.124,73.835,6.445,0.243,2.117,4,4,3.264
1777496562471,-0.007,0.351,-0.052,-2.295,0.610,0.193,80.487,5.023,0.355,2.383,4,4,3.753
1777496562484,-0.005,0.461,-0.142,-2.501,0.579,0.263,87.688,3.831,0.482,2.581,4,4,3.287
1777496562497,0.001,0.569,-0.241,-2.501,0.524,0.275,94.526,2.771,0.618,2.570,4,4,3.933
1777496562511,-0.021,0.692,-0.362,-2.501,0.454,0.273,100.761,2.434,0.781,2.557,4,4,3.266
1777496562525,-0.041,0.824,-0.432,-2.501,0.384,0.278,105.332,2.459,0.931,2.546,4,4,3.262
1777496562538,-0.030,0.901,-0.488,-2.501,0.312,0.240,108.872,2.240,1.025,2.532,4,4,3.251
1777496562551,-0.027,1.013,-0.537,-2.501,0.246,0.190,111.314,1.994,1.147,2.521,4,4,3.307
1777496562565,-0.024,1.136,-0.572,-2.501,0.196,0.164,112.771,1.747,1.272,2.514,5,5,3.938
1777496562579,-0.020,1.220,-0.624,-2.501,0.172,0.163,113.933,1.501,1.370,2.513,5,5,3.274
1777496562594,-0.015,1.248,-0.694,-2.501,0.177,0.172,115.328,1.257,1.428,2.514,5,5,3.418
1777496562608,-0.012,1.255,-0.778,-2.501,0.218,0.149,117.078,1.043,1.476,2.515,5,5,3.401
1777496562621,0.019,1.295,-0.908,-2.501,0.285,0.105,119.227,0.575,1.582,2.520,5,5,3.272
1777496562635,0.083,1.550,-1.164,-2.501,0.328,0.178,121.302,-0.241,1.940,2.529,5,5,3.955
1777496562649,0.271,1.895,-1.571,-2.501,0.284,0.436,123.557,-1.876,2.476,2.555,5,5,3.283
1777496562662,0.222,1.996,-1.873,-2.501,0.187,0.735,126.157,-2.621,2.746,2.614,5,5,3.257
1777496562675,0.054,1.867,-2.123,-2.501,0.123,0.855,129.537,-2.207,2.827,2.646,5,5,3.279
1777496562689,-0.165,1.625,-2.302,-2.390,0.132,0.733,133.657,-0.704,2.823,2.503,5,5,3.277
1777496562702,-0.071,1.312,-2.327,-1.879,0.136,0.403,138.231,-0.105,2.673,1.927,1,1,3.878
1777496562716,-0.083,0.969,-2.394,-1.347,-0.020,0.427,143.562,0.424,2.584,1.413,1,1,3.282
1777496562730,-0.177,0.803,-2.370,-0.803,-0.157,0.602,148.351,1.399,2.509,1.016,1,1,3.251
1777496562743,-0.327,0.697,-2.301,-0.250,-0.277,0.497,152.347,3.113,2.426,0.622,1,1,3.268
1777496562756,-0.380,0.784,-2.941,0.161,-0.317,-1.243,155.784,4.193,3.068,1.293,1,1,3.253
1777496562770,0.747,0.395,-1.277,2.304,-0.849,-0.985,157.686,-4.825,1.531,2.646,5,5,4.042
1777496562784,-0.154,1.210,0.051,2.212,-0.718,-0.962,138.745,-1.560,1.221,2.517,5,5,3.264
1777496562797,-0.120,1.285,0.031,2.478,-0.390,-0.880,125.206,0.307,1.291,2.659,5,5,3.268
1777496562811,0.118,0.893,-0.441,2.409,-0.248,-0.947,122.793,-1.598,1.002,2.600,5,5,3.405
1777496562824,-0.284,0.836,-0.587,2.163,-0.149,-0.801,123.410,3.033,1.061,2.312,5,5,3.261
1777496562837,-0.193,0.760,-0.689,1.795,-0.123,-0.530,125.785,5.091,1.044,1.875,1,1,3.954
1777496562851,-0.194,0.313,-1.113,1.116,-0.263,-0.328,136.193,6.283,1.172,1.193,1,1,3.276
1777496562865,-0.198,0.690,-0.667,0.763,-0.189,-0.293,135.606,7.741,0.980,0.839,1,1,3.252
1777496562878,-0.150,0.839,-0.549,0.608,-0.016,-0.244,132.252,7.956,1.013,0.656,1,1,3.319
1777496562892,0.082,1.013,-0.305,0.272,-0.148,-0.151,125.370,4.612,1.061,0.344,1,1,3.282
1777496562905,-0.106,0.772,-0.575,0.141,-0.081,-0.042,125.723,5.064,0.968,0.168,1,1,3.944
1777496562919,0.001,0.893,-0.484,0.119,-0.103,-0.110,123.763,3.677,1.016,0.192,1,1,3.263
1777496562932,-0.058,0.852,-0.519,0.091,-0.090,-0.093,123.109,3.581,0.999,0.158,1,1,3.271
1777496562946,-0.019,0.939,-0.492,0.087,-0.113,-0.118,121.639,2.895,1.060,0.185,1,1,3.388
1777496562959,-0.036,0.952,-0.509,0.083,-0.111,-0.116,120.690,2.627,1.080,0.181,1,1,3.258
1777496562973,-0.045,0.960,-0.519,0.077,-0.096,-0.104,120.065,2.554,1.093,0.161,1,1,3.950
1777496562987,-0.095,0.952,-0.509,0.061,-0.072,-0.056,119.536,3.229,1.084,0.110,1,1,3.272
1777496563000,-0.109,0.981,-0.520,0.052,-0.030,-0.002,119.098,3.876,1.116,0.061,1,1,3.254
1777496563013,-0.100,0.973,-0.490,0.045,0.005,0.048,118.465,4.244,1.094,0.066,1,1,3.286
1777496563027,-0.083,0.932,-0.491,0.034,0.026,0.085,118.277,4.318,1.057,0.095,1,1,3.251
1777496563040,-0.053,0.958,-0.497,0.036,0.037,0.103,118.039,3.910,1.081,0.115,1,1,3.968
1777496563054,-0.043,0.935,-0.508,0.036,0.041,0.105,118.167,3.482,1.065,0.119,1,1,3.267
1777496563068,-0.028,0.951,-0.490,0.037,0.040,0.095,117.927,2.944,1.070,0.110,1,1,3.260
1777496563081,-0.020,0.947,-0.496,0.037,0.030,0.083,117.845,2.439,1.069,0.096,1,1,3.357
1777496563094,-0.023,0.931,-0.507,0.034,0.028,0.078,118.041,2.122,1.061,0.089,1,1,3.251
1777496563108,-0.057,0.926,-0.496,0.039,0.029,0.077,118.080,2.382,1.052,0.091,1,1,4.251
1777496563123,-0.030,0.919,-0.497,0.039,0.026,0.078,118.169,2.187,1.046,0.091,1,1,3.304
1777496563138,-0.041,0.918,-0.491,0.043,0.026,0.072,118.156,2.209,1.042,0.088,1,1,4.492
1777496563151,-0.007,0.912,-0.491,0.045,0.017,0.065,118.201,1.714,1.036,0.081,1,1,3.277
1777496563165,0.021,0.915,-0.493,0.053,0.003,0.039,118.227,0.931,1.039,0.066,1,1,3.274
1777496563182,0.013,0.907,-0.499,0.051,-0.021,0.006,118.383,0.479,1.035,0.055,1,1,7.252
1777496563196,0.001,0.909,-0.516,0.050,-0.041,-0.021,118.702,0.332,1.046,0.068,1,1,3.265
1777496563212,-0.005,0.911,-0.490,0.052,-0.055,-0.044,118.583,0.319,1.035,0.087,1,1,5.931
1777496563225,-0.027,0.929,-0.517,0.055,-0.066,-0.055,118.714,0.631,1.064,0.102,1,1,3.248
1777496563238,-0.024,0.933,-0.507,0.062,-0.060,-0.062,118.662,0.813,1.062,0.106,1,1,3.252
1777496563252,-0.039,0.926,-0.509,0.062,-0.051,-0.054,118.694,1.158,1.057,0.096,1,1,3.872
1777496563266,-0.050,0.927,-0.527,0.060,-0.038,-0.038,118.952,1.575,1.067,0.080,1,1,3.249
1777496563279,-0.056,0.931,-0.522,0.062,-0.024,-0.015,119.045,1.956,1.069,0.068,1,1,3.265
1777496563292,-0.054,0.928,-0.514,0.065,-0.015,-0.004,119.024,2.211,1.062,0.067,1,1,3.261
1777496563306,-0.082,0.910,-0.515,0.065,-0.004,0.019,119.150,2.829,1.049,0.068,1,1,3.271
1777496563319,-0.057,0.921,-0.527,0.064,0.011,0.034,119.323,2.890,1.063,0.073,1,1,3.960
1777496563333,-0.045,0.940,-0.524,0.065,0.016,0.053,119.279,2.752,1.077,0.085,1,1,3.266
1777496563346,-0.027,0.948,-0.513,0.083,0.019,0.059,119.050,2.390,1.079,0.104,1,1,3.274
1777496563360,0.003,0.978,-0.519,0.093,0.016,0.035,118.751,1.700,1.107,0.101,1,1,3.262
1777496563376,0.012,1.023,-0.507,0.110,0.008,-0.004,118.110,1.082,1.142,0.110,1,1,6.135
1777496563389,-0.004,1.082,-0.529,0.150,0.012,0.007,117.557,0.846,1.204,0.151,2,2,3.944
1777496563404,-0.145,1.483,-0.529,0.346,0.051,0.041,115.417,2.039,1.582,0.352,2,2,4.195
1777496563418,0.031,1.098,-0.590,0.460,0.071,0.098,116.183,1.100,1.247,0.475,2,2,3.293
1777496563431,0.044,1.307,-0.559,0.635,0.109,0.178,115.368,0.327,1.422,0.668,2,2,3.258
1777496563445,0.067,1.350,-0.558,0.748,0.084,0.137,114.581,-0.475,1.462,0.765,2,2,3.441
1777496563458,-0.109,1.668,-0.544,1.010,0.098,-0.020,112.818,0.615,1.758,1.015,4,4,3.925
1777496563472,-0.002,1.414,-0.506,1.186,0.089,0.011,111.970,0.469,1.502,1.189,4,4,3.287
1777496563486,-0.046,1.506,-0.543,1.401,0.077,0.015,111.387,0.784,1.602,1.403,4,4,3.341
1777496563499,0.063,1.597,-0.465,1.659,0.042,0.014,109.994,-0.019,1.664,1.660,4,4,3.257
1777496563512,0.162,1.613,-0.469,1.914,-0.049,0.010,108.968,-1.499,1.687,1.915,4,4,3.265
1777496563526,0.186,1.775,-0.456,2.232,-0.158,-0.020,107.739,-2.660,1.842,2.237,4,4,3.914
1777496563540,0.177,1.990,-0.447,2.501,-0.256,-0.147,106.364,-3.284,2.048,2.519,4,4,3.298
1777496563553,0.132,2.088,-0.480,2.501,-0.342,-0.255,105.441,-3.347,2.146,2.537,4,4,3.254
1777496563567,0.152,2.187,-0.578,2.501,-0.382,-0.411,105.270,-3.483,2.267,2.563,4,4,3.279
1777496563580,0.169,2.169,-0.731,2.501,-0.397,-0.549,106.175,-3.686,2.295,2.591,4,4,3.261
1777496563593,0.450,1.905,-0.903,2.501,-0.559,-0.611,108.660,-5.944,2.156,2.635,4,4,3.914
1777496563607,0.424,1.789,-0.921,2.501,-0.642,-0.656,110.976,-7.553,2.057,2.664,4,4,3.287
1777496563622,0.613,1.384,-0.426,2.501,-0.759,-0.488,109.931,-11.712,1.573,2.659,4,4,4.117
1777496563635,0.644,-0.218,0.430,2.501,-0.896,-0.897,72.985,-22.914,0.804,2.804,4,4,3.511
1777496563649,0.640,0.660,0.103,2.185,-0.993,-0.963,75.181,-28.549,0.926,2.586,4,4,3.324
1777496563662,-0.091,0.286,-0.147,1.559,-0.677,-0.670,86.534,-16.570,0.335,1.827,4,4,3.971
1777496563676,0.145,-0.041,0.122,0.506,-0.468,-0.294,58.102,-25.151,0.193,0.750,4,4,3.263
1777496563690,-0.083,0.349,0.048,-0.038,-0.242,0.013,64.608,-14.771,0.362,0.245,4,4,3.328
1777496563703,0.063,0.298,0.099,-0.458,-0.052,0.149,66.503,-13.864,0.321,0.484,4,4,3.335
1777496563717,0.057,0.303,0.119,-0.755,0.079,0.180,67.066,-12.795,0.331,0.780,4,4,3.241
1777496563730,0.037,0.219,0.135,-1.025,0.195,0.199,64.728,-11.545,0.259,1.063,4,4,3.917
1777496563744,0.001,0.136,0.129,-1.379,0.308,0.249,59.810,-8.527,0.188,1.434,4,4,3.258
1777496563757,0.050,0.085,0.120,-1.780,0.372,0.305,53.217,-11.277,0.155,1.844,4,4,3.247
1777496563771,0.144,0.159,0.094,-2.201,0.351,0.394,54.926,-18.473,0.234,2.263,4,4,3.256
1777496563784,0.218,0.345,0.024,-2.501,0.248,0.561,63.319,-22.192,0.409,2.575,4,4,3.244
1777496563798,0.247,0.519,-0.090,-2.501,0.099,0.767,73.173,-22.974,0.582,2.618,4,4,3.892
1777496563812,0.198,0.704,-0.236,-2.501,-0.079,1.026,82.717,-20.802,0.768,2.705,4,4,3.336
1777496563825,0.088,0.835,-0.350,-2.501,-0.222,1.190,90.827,-16.675,0.910,2.779,4,4,3.261
1777496563839,-0.037,0.971,-0.446,-2.501,-0.329,1.219,97.261,-11.640,1.069,2.802,4,4,3.269
1777496563852,-0.178,1.072,-0.520,-2.501,-0.395,1.204,102.285,-6.193,1.205,2.804,4,4,3.262
1777496563865,-0.304,1.169,-0.577,-2.501,-0.384,1.156,106.065,-0.977,1.339,2.782,5,5,3.957
1777496563879,-0.403,1.223,-0.626,-2.501,-0.277,1.018,109.050,3.700,1.432,2.715,5,5,3.258
1777496563893,-0.426,1.277,-0.649,-2.501,-0.105,0.850,111.177,7.172,1.495,2.644,5,5,3.381
1777496563906,-0.341,1.381,-0.705,-2.501,0.085,0.722,112.761,8.589,1.587,2.605,5,5,3.260
1777496563920,-0.165,1.562,-0.805,-2.501,0.225,0.692,113.982,7.718,1.765,2.605,5,5,3.264
1777496563933,-0.016,1.695,-0.976,-2.501,0.298,0.818,115.589,5.762,1.956,2.649,5,5,3.950
1777496563947,0.009,1.699,-1.154,-2.501,0.362,1.091,117.909,4.137,2.054,2.753,5,5,3.476
1777496563961,-0.145,1.551,-1.365,-2.501,0.458,1.446,121.538,4.101,2.071,2.925,5,5,3.291
1777496563974,-0.345,1.619,-1.589,-2.501,0.544,1.629,125.028,5.327,2.294,3.034,5,5,3.286
1777496563987,-0.622,1.651,-1.801,-2.312,0.583,1.401,128.394,7.744,2.521,2.765,5,5,3.264
1777496564001,-0.873,1.497,-1.945,-2.045,0.596,0.814,132.181,10.938,2.605,2.280,5,5,3.968
1777496564015,-0.991,1.214,-2.072,-1.757,0.627,0.125,136.895,14.042,2.597,1.870,5,5,3.260
1777496564028,-0.671,0.919,-2.196,-1.437,0.608,-0.389,142.402,14.504,2.473,1.609,5,5,3.276
1777496564042,-0.233,0.700,-2.367,-1.030,0.460,-0.524,148.110,12.044,2.479,1.244,5,5,3.272
1777496564055,-0.138,0.620,-2.454,-0.528,0.276,-0.210,152.892,9.631,2.535,0.632,5,5,3.259
1777496564068,-0.403,0.656,-2.356,0.078,0.208,0.101,156.011,9.556,2.479,0.244,1,1,3.967
1777496564082,-0.741,0.612,-2.133,0.613,0.302,-0.152,158.169,11.965,2.340,0.701,1,1,3.263
1777496564096,2.030,-0.028,1.009,1.980,-0.426,-1.081,115.015,-8.443,2.267,2.296,1,1,3.342
1777496564109,-0.353,1.398,0.293,2.216,-0.455,-0.925,105.058,-2.418,1.472,2.444,1,1,3.277
1777496564123,0.086,1.133,-0.200,2.501,-0.243,-0.999,103.694,-2.918,1.154,2.704,1,1,3.263
1777496564136,-0.207,0.885,-0.538,2.430,-0.225,-0.850,108.448,0.929,1.056,2.584,1,1,3.964
1777496564154,-0.117,0.724,-0.957,1.941,-0.150,-0.570,117.746,2.185,1.206,2.028,1,1,7.210
1777496564170,-0.037,0.684,-0.808,1.104,-0.242,-0.518,123.696,2.134,1.059,1.243,1,1,3.272
1777496564184,-0.038,-0.478,-1.430,0.343,-0.330,-0.334,46.640,1.948,1.508,0.582,1,1,3.264
1777496564197,-0.482,0.533,-0.746,0.245,-0.181,-0.193,73.069,8.918,1.036,0.360,1,1,3.353
1777496564210,-0.162,0.967,-0.531,0.143,-0.057,0.005,85.422,8.771,1.115,0.154,1,1,3.906
1777496564226,-0.139,0.857,-0.539,0.065,0.037,0.156,95.356,8.509,1.022,0.173,1,1,3.273
1777496564239,-0.036,0.929,-0.477,0.055,0.051,0.152,101.247,6.742,1.044,0.169,1,1,3.271
1777496564253,0.037,0.953,-0.502,0.041,0.042,0.115,105.710,4.384,1.078,0.129,1,1,3.254
1777496564266,0.042,0.969,-0.488,0.043,0.026,0.096,108.685,2.598,1.086,0.109,1,1,3.267
1777496564279,0.047,0.937,-0.488,0.040,0.006,0.055,111.073,1.210,1.058,0.069,1,1,3.899
1777496564293,0.032,0.929,-0.490,0.038,-0.014,0.017,112.895,0.412,1.051,0.044,1,1,3.274
1777496564307,0.019,0.936,-0.499,0.031,-0.030,-0.011,114.289,0.023,1.061,0.044,1,1,3.256
1777496564320,0.010,0.941,-0.493,0.032,-0.039,-0.044,115.197,-0.126,1.063,0.067,1,1,3.294
1777496564334,-0.039,0.971,-0.487,0.037,-0.039,-0.039,115.583,0.464,1.087,0.067,1,1,3.273
1777496564347,-0.064,0.970,-0.496,0.037,-0.029,-0.018,115.984,1.246,1.092,0.050,1,1,3.936
1777496564361,-0.019,0.919,-0.522,0.026,-0.011,0.005,116.962,1.185,1.058,0.029,1,1,3.272
1777496564374,-0.025,0.942,-0.511,0.037,-0.012,0.022,117.368,1.231,1.072,0.044,1,1,3.265
1777496564389,-0.034,0.922,-0.504,0.039,-0.011,0.029,117.717,1.402,1.051,0.051,1,1,3.291
1777496564403,-0.002,0.917,-0.497,0.040,-0.015,0.028,117.920,1.060,1.043,0.051,1,1,3.383
1777496564416,0.010,0.923,-0.488,0.047,-0.029,0.013,117.903,0.625,1.044,0.056,1,1,3.932
1777496564430,-0.011,0.911,-0.509,0.048,-0.040,-0.011,118.248,0.623,1.043,0.063,1,1,3.264
1777496564444,0.007,0.917,-0.511,0.051,-0.057,-0.033,118.483,0.354,1.050,0.084,1,1,3.258
1777496564457,-0.002,0.921,-0.498,0.057,-0.067,-0.049,118.467,0.291,1.047,0.100,1,1,3.272
1777496564470,-0.021,0.904,-0.509,0.057,-0.075,-0.071,118.719,0.525,1.038,0.118,1,1,3.269
1777496564484,-0.054,0.910,-0.500,0.059,-0.074,-0.077,118.733,1.184,1.039,0.123,1,1,3.949
1777496564498,-0.031,0.926,-0.507,0.062,-0.070,-0.081,118.722,1.326,1.056,0.123,1,1,3.269
1777496564511,-0.037,0.930,-0.501,0.065,-0.069,-0.083,118.610,1.504,1.057,0.126,1,1,3.262
1777496564524,-0.036,0.918,-0.505,0.071,-0.062,-0.085,118.669,1.631,1.048,0.127,1,1,3.276
1777496564538,-0.064,0.916,-0.517,0.071,-0.051,-0.075,118.874,2.138,1.053,0.115,1,1,3.256
1777496564551,-0.067,0.927,-0.523,0.063,-0.028,-0.046,119.021,2.536,1.066,0.083,1,1,4.005
1777496564565,-0.082,0.928,-0.520,0.063,-0.012,-0.022,119.077,3.042,1.067,0.068,1,1,3.268
1777496564579,-0.058,0.920,-0.527,0.063,-0.000,-0.005,119.276,3.064,1.062,0.063,1,1,3.262
1777496564592,-0.061,0.913,-0.517,0.063,0.007,0.013,119.346,3.132,1.051,0.065,1,1,3.275
1777496564606,-0.067,0.929,-0.516,0.062,0.015,0.030,119.273,3.263,1.065,0.070,1,1,3.518
1777496564619,-0.068,0.934,-0.511,0.066,0.023,0.042,119.108,3.374,1.067,0.082,4,4,3.932
1777496564633,-0.049,0.935,-0.523,0.070,0.027,0.053,119.145,3.174,1.073,0.092,4,4,3.269
1777496564646,-0.026,0.962,-0.518,0.078,0.026,0.061,118.912,2.680,1.093,0.102,4,4,3.253
1777496564660,-0.011,0.955,-0.539,0.096,0.032,0.030,119.056,2.107,1.097,0.106,4,4,3.324
1777496564673,0.018,0.976,-0.527,0.112,0.024,-0.011,118.868,1.286,1.109,0.115,4,4,3.289
1777496564687,0.031,0.968,-0.521,0.134,0.024,-0.049,118.715,0.495,1.100,0.145,4,4,3.947
1777496564701,0.026,1.107,-0.507,0.167,0.026,-0.038,117.602,0.026,1.217,0.174,4,4,3.268
1777496564714,-0.180,1.664,-0.488,0.412,0.078,0.034,114.560,1.619,1.744,0.421,4,4,3.263
1777496564727,0.032,1.244,-0.595,0.559,0.081,0.198,114.827,0.823,1.379,0.598,4,4,3.249
1777496564741,-0.065,1.339,-0.587,0.692,0.087,0.200,114.515,1.293,1.463,0.725,4,4,3.250
1777496564754,-0.155,1.799,-0.548,0.945,0.119,-0.016,112.473,2.219,1.887,0.952,4,4,3.864
1777496564768,0.045,1.394,-0.550,1.137,0.104,0.002,112.220,1.153,1.500,1.141,4,4,3.256
1777496564781,-0.030,1.568,-0.527,1.373,0.115,-0.043,111.236,1.125,1.655,1.378,4,4,3.269
1777496564795,0.134,1.647,-0.488,1.618,0.004,-0.066,109.957,-0.384,1.723,1.620,4,4,3.256
1777496564808,0.294,1.701,-0.507,1.894,-0.101,-0.165,109.048,-2.821,1.799,1.904,4,4,3.249
1777496564822,0.330,1.838,-0.451,2.234,-0.264,-0.228,107.628,-4.734,1.921,2.261,4,4,4.015
1777496564836,0.322,1.916,-0.410,2.501,-0.407,-0.387,106.132,-5.976,1.986,2.564,4,4,3.278
1777496564849,0.379,2.036,-0.448,2.501,-0.550,-0.525,105.124,-7.144,2.119,2.614,4,4,3.281
1777496564862,0.370,2.161,-0.454,2.501,-0.649,-0.627,104.245,-7.785,2.239,2.659,4,4,3.269
1777496564876,0.215,2.247,-0.741,2.501,-0.659,-0.754,105.326,-7.082,2.375,2.694,4,4,3.260
1777496564889,0.528,1.824,-0.935,2.501,-0.827,-0.863,108.515,-9.068,2.117,2.772,4,4,3.928
1777496564903,0.247,1.715,-0.989,2.501,-0.827,-0.730,111.605,-8.536,1.995,2.734,4,4,3.264
1777496564917,0.677,0.645,-0.418,2.501,-1.033,-0.730,114.665,-17.411,1.025,2.803,4,4,3.282
1777496564930,0.428,-0.399,0.573,2.476,-1.036,-0.807,74.266,-21.220,0.819,2.802,4,4,3.271
1777496564943,0.278,1.036,-0.063,1.637,-0.859,-0.354,79.464,-19.535,1.075,1.882,4,4,3.258
1777496564957,-0.252,0.158,0.065,0.811,-0.340,0.202,76.244,0.841,0.304,0.903,4,4,3.892
1777496564971,0.027,0.720,0.012,0.140,-0.023,0.169,79.708,0.027,0.721,0.220,4,4,3.256
1777496564984,-0.140,0.833,0.059,0.105,0.233,0.010,81.388,2.588,0.847,0.255,4,4,3.288
1777496564997,-0.048,0.603,0.042,-0.007,0.421,-0.105,82.645,3.124,0.606,0.434,4,4,3.265
1777496565011,-0.018,0.371,0.088,-0.214,0.552,-0.025,81.044,3.003,0.382,0.592,4,4,3.261
1777496565024,0.030,0.228,0.148,-0.568,0.605,0.185,74.559,0.514,0.273,0.850,4,4,3.930
1777496565038,0.075,0.159,0.188,-1.021,0.593,0.388,65.323,-4.201,0.257,1.243,4,4,3.258
1777496565052,0.084,0.218,0.172,-1.467,0.523,0.458,61.643,-7.630,0.291,1.623,4,4,3.286
1777496565065,0.064,0.351,0.148,-1.850,0.434,0.482,63.131,-8.144,0.386,1.960,4,4,3.264
1777496565078,0.026,0.443,0.087,-2.174,0.330,0.578,67.377,-6.846,0.453,2.274,4,4,3.277
1777496565092,-0.004,0.547,-0.005,-2.452,0.199,0.754,73.620,-4.886,0.547,2.573,4,4,3.942
1777496565106,-0.065,0.715,-0.100,-2.501,0.064,0.913,80.188,-2.177,0.725,2.664,4,4,3.260
1777496565119,-0.157,0.853,-0.183,-2.501,-0.037,0.961,86.111,1.170,0.887,2.680,4,4,3.272
1777496565132,-0.273,0.950,-0.281,-2.501,-0.089,0.930,91.614,5.024,1.027,2.670,4,4,3.264
1777496565146,-0.301,0.991,-0.356,-2.501,-0.118,0.872,96.518,7.972,1.095,2.652,4,4,3.289
1777496565159,-0.329,1.105,-0.413,-2.501,-0.112,0.792,100.297,10.026,1.225,2.626,5,5,3.945
1777496565173,-0.331,1.208,-0.479,-2.501,-0.057,0.741,103.359,11.176,1.341,2.610,5,5,3.296
1777496565187,-0.256,1.320,-0.535,-2.501,-0.008,0.755,105.711,10.905,1.447,2.613,5,5,3.380
1777496565200,-0.183,1.450,-0.627,-2.501,0.037,0.825,107.781,9.747,1.590,2.634,5,5,3.276
1777496565214,-0.118,1.566,-0.746,-2.501,0.061,0.943,109.856,8.169,1.738,2.674,5,5,3.280
1777496565227,-0.127,1.579,-0.924,-2.501,0.081,1.070,112.686,7.039,1.834,2.722,5,5,3.897
1777496565241,-0.155,1.660,-1.181,-2.501,0.093,1.195,116.126,6.314,2.043,2.774,5,5,3.262
1777496565255,-0.247,1.832,-1.519,-2.501,0.098,1.315,119.785,6.208,2.393,2.828,5,5,3.268
1777496565268,-0.353,1.892,-1.850,-2.501,0.060,1.337,123.724,6.581,2.669,2.837,5,5,3.253
1777496565281,-0.588,1.782,-2.143,-2.323,0.043,1.106,128.189,8.023,2.848,2.573,5,5,3.267
1777496565295,-0.810,1.525,-2.342,-1.933,0.092,0.616,133.254,10.221,2.910,2.031,5,5,3.908
1777496565309,-0.948,1.116,-2.529,-1.522,0.230,0.089,139.450,12.572,2.922,1.542,5,5,3.262
1777496565322,-0.791,0.734,-2.557,-1.157,0.375,-0.203,146.076,13.648,2.776,1.233,5,5,3.267
1777496565335,-0.537,0.506,-2.596,-0.744,0.413,-0.163,152.263,13.060,2.699,0.866,5,5,3.257
1777496565349,-0.487,0.475,-2.589,-0.255,0.367,-0.028,156.950,12.361,2.677,0.448,5,5,3.408
1777496565362,3.802,4.000,-3.133,1.767,-0.193,-1.518,149.148,-0.923,6.346,2.337,5,5,3.953
1777496565376,1.163,-1.143,-0.998,2.168,-0.806,-1.187,73.430,-10.794,1.912,2.599,5,5,3.274
1777496565390,-0.809,1.250,-0.132,1.952,-0.928,-0.983,79.530,0.976,1.495,2.375,5,5,3.271
1777496565403,-0.049,1.413,0.052,2.446,-0.372,-1.115,81.789,1.250,1.414,2.714,5,5,3.262
1777496565417,-0.331,0.808,-0.649,2.404,-0.224,-1.119,94.480,5.691,1.088,2.661,5,5,3.295
1777496565430,-0.408,0.662,-0.692,2.060,-0.047,-0.852,105.770,10.393,1.041,2.229,1,1,3.933
1777496565444,-0.030,0.595,-0.785,1.263,-0.375,-0.618,115.785,8.057,0.985,1.455,1,1,3.275
1777496565457,-0.251,0.815,-0.811,0.988,-0.039,-0.567,120.929,9.213,1.177,1.140,1,1,3.268
1777496565471,-0.322,0.833,-0.633,0.453,-0.300,-0.300,122.635,11.339,1.095,0.620,1,1,3.264
1777496565484,-0.362,0.941,-0.537,0.240,-0.156,-0.115,121.840,13.271,1.142,0.308,1,1,3.273
1777496565497,-0.313,0.887,-0.552,0.167,-0.080,0.034,121.860,14.192,1.091,0.188,1,1,3.945
1777496565512,-0.100,0.915,-0.526,0.093,0.016,0.092,121.322,11.821,1.060,0.132,1,1,3.288
1777496565525,-0.094,0.895,-0.540,0.075,0.038,0.101,121.259,10.019,1.050,0.131,1,1,3.266
1777496565538,-0.089,0.948,-0.517,0.061,0.044,0.131,120.543,8.591,1.083,0.151,1,1,3.264
1777496565552,-0.026,0.922,-0.517,0.055,0.040,0.102,120.200,6.653,1.057,0.123,1,1,3.276
1777496565565,-0.061,0.914,-0.500,0.042,0.025,0.084,119.786,5.761,1.044,0.097,1,1,3.937
1777496565579,-0.012,0.925,-0.519,0.037,0.013,0.059,119.654,4.387,1.061,0.070,1,1,3.289
1777496565592,-0.024,0.927,-0.507,0.038,-0.000,0.030,119.390,3.559,1.057,0.049,1,1,3.265
1777496565606,-0.048,0.937,-0.506,0.035,-0.002,0.024,119.122,3.300,1.066,0.043,1,1,3.276
1777496565619,-0.077,0.919,-0.536,0.028,0.008,0.043,119.432,3.522,1.066,0.052,1,1,3.271
1777496565633,-0.097,0.940,-0.522,0.034,0.026,0.068,119.330,3.968,1.080,0.081,1,1,3.929
1777496565647,-0.099,0.941,-0.510,0.042,0.051,0.101,119.099,4.319,1.075,0.120,1,1,3.300
1777496565660,-0.066,0.950,-0.507,0.043,0.067,0.122,118.824,4.106,1.079,0.146,1,1,3.271
1777496565673,-0.049,0.919,-0.520,0.038,0.070,0.124,118.999,3.712,1.057,0.147,1,1,3.273
1777496565690,-0.011,0.901,-0.505,0.035,0.056,0.107,119.078,2.870,1.033,0.126,1,1,3.362
1777496565704,-0.025,0.893,-0.514,0.027,0.044,0.085,119.309,2.472,1.031,0.100,1,1,4.049
1777496565718,-0.008,0.910,-0.510,0.029,0.030,0.068,119.302,1.920,1.044,0.079,1,1,3.306
1777496565731,-0.022,0.913,-0.506,0.036,0.019,0.055,119.221,1.723,1.045,0.069,1,1,3.265
1777496565745,-0.023,0.923,-0.513,0.033,0.008,0.048,119.184,1.594,1.056,0.059,1,1,3.262
1777496565758,-0.005,0.919,-0.503,0.038,0.001,0.042,119.054,1.232,1.048,0.057,1,1,3.277
1777496565772,-0.029,0.913,-0.515,0.040,-0.007,0.034,119.151,1.321,1.048,0.053,1,1,3.897
1777496565786,-0.035,0.907,-0.513,0.038,-0.009,0.035,119.251,1.486,1.043,0.052,1,1,3.266
1777496565799,0.005,0.920,-0.512,0.039,-0.020,0.016,119.204,1.009,1.053,0.047,1,1,3.254
1777496565812,-0.016,0.919,-0.504,0.038,-0.023,0.016,119.082,0.971,1.048,0.047,1,1,3.270
1777496565826,-0.017,0.927,-0.505,0.040,-0.020,0.017,118.948,0.963,1.056,0.048,1,1,3.278
1777496565839,-0.047,0.938,-0.526,0.053,-0.016,0.022,119.037,1.384,1.076,0.060,5,5,3.932
1777496565853,-0.021,0.923,-0.520,0.059,-0.015,0.019,119.129,1.324,1.059,0.063,5,5,3.358
1777496565867,-0.037,0.918,-0.520,0.059,-0.009,0.036,119.243,1.514,1.056,0.069,5,5,3.625
1777496565880,-0.018,0.932,-0.527,0.060,-0.005,0.044,119.307,1.366,1.071,0.075,5,5,3.273
1777496565894,-0.026,0.931,-0.530,0.069,-0.001,0.044,119.398,1.371,1.071,0.082,5,5,3.255
1777496565907,-0.032,0.976,-0.511,0.081,0.000,0.032,118.928,1.457,1.102,0.087,1,1,3.979
1777496565921,-0.072,0.981,-0.515,0.105,0.010,0.064,118.590,2.061,1.110,0.124,1,1,3.273
1777496565934,-0.102,0.980,-0.535,0.131,0.021,0.092,118.602,2.909,1.121,0.161,1,1,3.264
1777496565948,-0.110,1.069,-0.522,0.203,0.047,0.110,117.914,3.552,1.195,0.236,1,1,3.263
1777496565961,-0.017,1.033,-0.538,0.242,0.054,0.136,117.797,2.816,1.165,0.283,1,1,3.254
1777496565975,-0.031,1.102,-0.544,0.312,0.065,0.165,117.393,2.452,1.229,0.359,5,5,3.947
1777496565989,0.017,1.177,-0.558,0.405,0.071,0.209,116.841,1.586,1.303,0.461,5,5,3.266
1777496566002,0.055,1.171,-0.542,0.518,0.074,0.234,116.303,0.497,1.292,0.574,5,5,3.261
1777496566015,0.036,1.272,-0.584,0.629,0.078,0.234,115.863,-0.040,1.400,0.676,5,5,3.268
1777496566029,-0.035,1.578,-0.581,0.811,0.089,0.076,114.338,0.292,1.682,0.820,5,5,3.266
1777496566042,0.058,1.403,-0.561,1.021,0.082,0.059,113.652,-0.379,1.513,1.026,4,4,3.926
1777496566056,0.066,1.521,-0.555,1.230,0.077,0.002,112.681,-0.904,1.621,1.233,4,4,3.256
1777496566069,0.134,1.483,-0.530,1.448,0.012,0.002,111.868,-1.974,1.581,1.449,4,4,3.257
1777496566083,0.186,1.570,-0.498,1.686,-0.016,-0.027,110.714,-3.179,1.658,1.686,4,4,3.260
1777496566096,0.266,1.652,-0.481,1.985,-0.089,-0.014,109.506,-4.697,1.741,1.987,4,4,3.256
1777496566110,0.131,1.697,-0.469,2.319,-0.164,0.067,108.414,-4.577,1.766,2.326,4,4,3.930
1777496566124,-0.295,2.155,-0.440,2.501,-0.199,0.224,106.555,-1.277,2.219,2.519,4,4,3.265
1777496566137,0.036,2.251,-0.409,2.501,-0.238,0.078,104.868,-1.173,2.288,2.514,4,4,3.270
1777496566150,0.170,2.324,-0.629,2.501,-0.264,0.051,104.940,-1.945,2.413,2.516,4,4,3.260
1777496566164,0.384,2.349,-0.826,2.501,-0.386,0.055,106.141,-3.787,2.519,2.532,4,4,3.254
1777496566177,0.629,1.992,-0.986,2.501,-0.563,0.286,108.896,-7.035,2.310,2.580,4,4,3.952
1777496566191,0.469,1.784,-1.113,2.501,-0.625,0.817,112.422,-8.528,2.154,2.705,4,4,3.263
1777496566205,0.297,1.685,0.002,2.501,-0.748,1.467,106.345,-8.926,1.711,2.995,4,4,3.375
1777496566218,1.219,-1.297,0.843,2.501,-1.068,1.335,62.222,-16.848,1.969,3.030,4,4,3.379
1777496566231,0.113,-0.517,-0.567,1.367,-0.942,0.605,8.234,-14.565,0.775,1.767,4,4,3.268
1777496566245,-0.663,0.179,0.213,0.307,-0.340,-0.097,16.829,7.532,0.719,0.468,4,4,3.895
1777496566259,-0.140,0.781,0.063,-0.090,-0.027,-0.700,35.355,8.234,0.795,0.707,4,4,3.249
1777496566272,-0.072,0.795,0.019,0.031,0.171,-0.722,49.747,7.407,0.799,0.742,4,4,3.254
1777496566285,0.123,0.270,0.098,-0.097,0.267,-0.515,55.229,-0.846,0.312,0.589,4,4,3.257
1777496566299,0.085,0.082,0.156,-0.422,0.331,-0.268,47.782,-7.590,0.196,0.600,4,4,3.253
1777496566312,0.104,-0.005,0.202,-0.843,0.359,-0.130,34.461,-12.929,0.227,0.925,4,4,3.881
1777496566326,0.104,0.036,0.187,-1.300,0.338,-0.130,28.074,-17.223,0.217,1.349,4,4,3.262
1777496566340,0.090,0.094,0.141,-1.700,0.299,-0.178,29.591,-20.134,0.192,1.735,4,4,3.277
1777496566353,0.089,0.171,0.058,-2.075,0.252,-0.219,40.871,-21.763,0.202,2.102,4,4,3.254
1777496566370,0.102,0.322,-0.047,-2.467,0.167,-0.174,56.383,-20.570,0.341,2.479,4,4,3.584
1777496566384,0.111,0.476,-0.155,-2.501,0.088,-0.055,70.338,-18.378,0.513,2.504,4,4,4.074
1777496566398,0.109,0.625,-0.283,-2.501,0.011,0.085,82.230,-15.855,0.695,2.503,4,4,3.787
1777496566412,0.037,0.692,-0.438,-2.501,-0.043,0.207,93.065,-12.263,0.820,2.510,4,4,3.283
1777496566425,-0.059,0.843,-0.551,-2.501,-0.057,0.283,101.196,-8.046,1.008,2.518,4,4,3.262
1777496566438,-0.164,0.988,-0.648,-2.501,-0.018,0.261,107.153,-3.737,1.193,2.515,4,4,3.278
1777496566452,-0.243,1.162,-0.726,-2.501,0.092,0.143,111.160,-0.010,1.391,2.507,5,5,3.893
1777496566468,-0.278,1.289,-0.815,-2.501,0.298,-0.037,114.171,2.782,1.550,2.519,5,5,5.638
1777496566481,-0.188,1.249,-0.838,-2.501,0.486,-0.168,116.786,3.957,1.516,2.554,5,5,3.268
1777496566495,-0.050,1.302,-0.855,-2.501,0.640,-0.169,118.546,3.385,1.559,2.587,5,5,3.252
1777496566508,0.085,1.371,-0.928,-2.501,0.757,-0.013,120.043,1.679,1.658,2.613,5,5,3.262
1777496566522,0.266,1.513,-1.056,-2.501,0.817,0.251,121.360,-0.993,1.865,2.644,5,5,4.170
1777496566536,0.345,1.589,-1.298,-2.501,0.823,0.651,123.486,-3.307,2.081,2.712,5,5,3.298
1777496566550,0.323,1.388,-1.476,-2.501,0.814,0.920,127.069,-4.857,2.051,2.787,5,5,3.616
1777496566564,0.179,1.357,-1.629,-2.501,0.784,0.925,130.616,-4.846,2.128,2.780,5,5,4.349
1777496566577,-0.088,1.448,-1.779,-2.501,0.792,0.792,133.383,-2.944,2.295,2.741,5,5,3.266
1777496566591,-0.270,1.444,-1.921,-2.360,0.810,0.511,136.001,-0.415,2.418,2.547,5,5,3.916
1777496566605,-0.239,1.312,-1.997,-1.985,0.747,0.011,138.892,1.242,2.402,2.121,5,5,3.590
1777496566618,0.072,1.029,-2.099,-1.586,0.520,-0.351,142.946,0.429,2.339,1.706,5,5,3.248
1777496566633,0.195,0.673,-2.259,-1.219,0.137,-0.210,148.473,-0.966,2.365,1.245,5,5,3.324
1777496566647,0.035,0.754,-2.265,-0.780,-0.164,0.049,152.016,-0.932,2.387,0.799,5,5,3.259
1777496566660,-1.032,0.617,-2.852,0.745,-0.561,-0.712,156.280,4.582,3.095,1.173,5,5,3.892
1777496566674,0.548,0.583,-2.161,2.110,-1.177,-0.588,158.607,-0.371,2.304,2.487,5,5,3.266
1777496566687,0.035,0.948,-0.109,1.786,-0.951,-0.269,141.850,-0.845,0.955,2.041,5,5,3.260
1777496566701,0.202,1.175,-0.013,2.162,-0.567,-0.482,128.013,-3.257,1.192,2.286,5,5,3.266
1777496566714,-0.028,0.919,-0.406,2.165,-0.335,-0.637,124.180,-1.952,1.005,2.282,5,5,3.345
1777496566728,-0.219,0.844,-0.550,1.933,-0.048,-0.600,123.883,1.896,1.031,2.025,5,5,3.915
1777496566742,0.021,0.755,-0.615,1.576,-0.139,-0.524,125.315,1.054,0.974,1.666,5,5,3.268
1777496566755,-0.193,0.853,-0.535,1.333,-0.188,-0.334,124.454,3.696,1.025,1.387,5,5,3.266
1777496566772,-0.056,0.704,-0.736,0.976,-0.153,-0.266,127.650,3.542,1.020,1.023,5,5,6.647
1777496566785,-0.167,0.896,-0.555,0.726,0.041,-0.187,126.064,5.025,1.067,0.751,5,5,3.256
1777496566799,0.035,0.501,-0.810,0.505,-0.099,-0.136,132.063,3.100,0.953,0.532,1,1,3.917
1777496566813,-0.334,0.955,-0.469,0.272,-0.096,-0.044,127.771,6.975,1.115,0.292,1,1,3.275
1777496566826,0.014,0.877,-0.541,0.209,-0.083,-0.053,126.122,4.874,1.030,0.231,1,1,3.262
1777496566840,-0.042,0.964,-0.505,0.179,-0.077,-0.014,123.829,4.158,1.089,0.195,1,1,3.288
1777496566854,0.060,0.911,-0.517,0.128,-0.067,-0.048,122.677,2.156,1.049,0.153,1,1,3.265
1777496566868,-0.005,0.915,-0.514,0.085,-0.080,-0.056,121.780,1.645,1.049,0.129,1,1,5.119
1777496566883,-0.033,0.946,-0.501,0.076,-0.058,-0.043,120.733,1.674,1.071,0.105,1,1,3.856
1777496566896,-0.018,0.949,-0.477,0.077,-0.057,-0.036,119.635,1.478,1.062,0.102,1,1,3.276
1777496566909,-0.073,0.942,-0.489,0.067,-0.034,-0.004,119.038,2.134,1.064,0.076,1,1,3.273
1777496566923,-0.071,0.934,-0.497,0.059,-0.010,0.033,118.758,2.595,1.061,0.068,1,1,3.261
1777496566936,-0.032,0.958,-0.477,0.060,0.000,0.050,118.142,2.357,1.071,0.078,1,1,3.958
1777496566950,-0.006,0.919,-0.506,0.049,0.003,0.049,118.325,1.806,1.049,0.069,1,1,3.261
1777496566964,0.031,0.925,-0.521,0.048,-0.007,0.012,118.614,0.870,1.062,0.050,1,1,3.257
1777496566977,0.015,0.939,-0.483,0.051,-0.025,-0.004,118.242,0.409,1.056,0.057,1,1,3.258
1777496566990,0.012,0.942,-0.502,0.047,-0.030,-0.015,118.196,0.125,1.067,0.058,1,1,3.252
1777496567004,-0.005,0.931,-0.496,0.048,-0.039,-0.019,118.162,0.160,1.055,0.065,1,1,3.948
1777496567018,-0.014,0.932,-0.501,0.048,-0.043,-0.022,118.188,0.320,1.058,0.068,1,1,3.268
1777496567031,-0.003,0.939,-0.489,0.046,-0.043,-0.028,118.006,0.273,1.058,0.069,1,1,3.278
1777496567045,-0.021,0.924,-0.485,0.048,-0.045,-0.033,117.921,0.514,1.044,0.074,1,1,3.269
1777496567058,-0.013,0.913,-0.502,0.045,-0.048,-0.037,118.160,0.575,1.042,0.075,1,1,3.263
1777496567071,-0.021,0.918,-0.502,0.048,-0.047,-0.046,118.299,0.723,1.047,0.082,1,1,3.954
1777496567085,-0.023,0.925,-0.501,0.047,-0.050,-0.054,118.332,0.869,1.052,0.088,1,1,3.254
1777496567099,-0.025,0.927,-0.506,0.047,-0.053,-0.055,118.410,1.006,1.056,0.089,1,1,3.272
1777496567112,-0.049,0.923,-0.501,0.048,-0.047,-0.044,118.430,1.453,1.052,0.081,1,1,3.257
1777496567125,-0.047,0.923,-0.502,0.046,-0.039,-0.033,118.454,1.758,1.052,0.069,1,1,3.274
1777496567139,-0.054,0.924,-0.503,0.046,-0.029,-0.020,118.488,2.083,1.054,0.058,1,1,3.956
1777496567153,-0.066,0.927,-0.511,0.044,-0.024,-0.009,118.593,2.479,1.061,0.051,1,1,3.261
1777496567166,-0.042,0.929,-0.504,0.041,-0.014,0.001,118.565,2.424,1.058,0.044,1,1,3.265
1777496567179,-0.034,0.929,-0.502,0.043,-0.009,0.007,118.511,2.267,1.057,0.045,1,1,3.252
1777496567193,-0.046,0.927,-0.507,0.038,-0.001,0.013,118.561,2.326,1.058,0.040,1,1,3.291
1777496567206,-0.044,0.925,-0.511,0.043,0.004,0.018,118.664,2.341,1.057,0.047,2,2,3.951
1777496567220,-0.050,0.930,-0.510,0.038,0.011,0.033,118.690,2.439,1.062,0.051,2,2,3.269
1777496567236,-0.027,0.925,-0.514,0.037,0.018,0.035,118.789,2.169,1.058,0.054,2,2,6.049
1777496567250,-0.023,0.917,-0.516,0.038,0.020,0.033,118.943,1.928,1.053,0.054,2,2,3.629
1777496567264,-0.030,0.927,-0.496,0.041,0.017,0.027,118.729,1.845,1.052,0.052,2,2,3.269
1777496567277,-0.012,0.926,-0.509,0.038,0.015,0.025,118.746,1.529,1.056,0.047,2,2,3.938
1777496567291,0.026,0.942,-0.519,0.065,0.007,0.000,118.775,0.747,1.076,0.066,2,2,3.267
1777496567304,0.019,0.965,-0.519,0.079,-0.001,-0.055,118.645,0.273,1.096,0.097,2,2,3.268
1777496567318,-0.002,0.950,-0.508,0.083,-0.007,-0.073,118.510,0.234,1.078,0.111,2,2,3.260
1777496567331,-0.014,0.989,-0.515,0.109,0.000,-0.081,118.236,0.371,1.115,0.135,2,2,3.280
1777496567344,-0.036,1.023,-0.522,0.130,0.006,-0.040,117.917,0.754,1.149,0.137,4,4,4.012
1777496567358,-0.188,1.335,-0.502,0.269,0.034,0.033,115.940,2.573,1.439,0.273,4,4,3.264
1777496567372,-0.045,1.080,-0.558,0.362,0.056,0.128,116.313,2.456,1.217,0.388,4,4,3.263
1777496567385,-0.047,1.176,-0.542,0.471,0.085,0.168,115.897,2.355,1.296,0.507,4,4,3.255
1777496567399,-0.032,1.255,-0.543,0.566,0.087,0.169,115.222,2.084,1.368,0.597,4,4,3.353
1777496567416,-0.077,1.302,-0.551,0.751,0.112,0.095,114.607,2.359,1.416,0.765,4,4,3.933
1777496567433,-0.095,1.223,-0.561,0.880,0.128,0.087,114.619,2.818,1.349,0.893,4,4,3.271
1777496567447,-0.044,1.233,-0.577,0.996,0.110,0.091,114.742,2.559,1.362,1.006,4,4,3.377
1777496567463,-0.016,1.230,-0.581,1.123,0.086,0.092,114.888,2.045,1.361,1.130,4,4,6.560
1777496567477,0.036,1.254,-0.518,1.300,0.054,0.075,114.224,1.078,1.357,1.303,4,4,3.258
1777496567490,0.085,1.286,-0.553,1.450,0.013,0.049,113.965,-0.152,1.403,1.451,4,4,3.948
1777496567504,0.156,1.305,-0.573,1.625,-0.059,-0.014,113.896,-1.804,1.434,1.626,4,4,3.274
1777496567518,0.264,1.413,-0.551,1.821,-0.108,-0.112,113.193,-3.986,1.539,1.828,4,4,3.263
1777496567531,0.301,1.448,-0.585,2.055,-0.202,-0.203,112.876,-5.857,1.590,2.074,4,4,3.300
1777496567544,0.344,1.545,-0.592,2.336,-0.334,-0.308,112.360,-7.452,1.690,2.380,4,4,3.255
1777496567558,0.406,1.794,-0.601,2.501,-0.467,-0.379,111.321,-8.710,1.935,2.573,4,4,3.944
1777496567572,0.376,1.795,-0.685,2.501,-0.569,-0.379,111.201,-9.348,1.958,2.593,4,4,3.275
1777496567585,0.323,1.751,-0.780,2.501,-0.637,-0.278,111.958,-9.410,1.944,2.596,4,4,3.269
1777496567599,0.300,1.672,-0.847,2.501,-0.749,-0.157,113.284,-9.323,1.898,2.616,4,4,3.268
1777496567612,0.172,1.721,-0.981,2.501,-0.791,-0.033,115.011,-8.142,1.989,2.623,4,4,3.259
1777496567628,0.148,1.435,-0.812,2.501,-0.791,0.720,116.229,-7.325,1.655,2.720,4,4,6.763
1777496567642,0.377,0.850,-0.327,2.501,-0.994,1.267,114.832,-11.418,0.986,2.975,4,4,3.270
1777496567656,0.579,-0.424,0.121,2.501,-1.247,1.099,63.784,-22.578,0.728,3.003,4,4,4.005
1777496567670,0.304,0.198,0.021,1.756,-1.409,0.922,69.215,-31.801,0.363,2.433,4,4,3.269
1777496567683,-0.493,-0.275,-0.218,0.758,-1.083,0.712,15.832,-8.471,0.605,1.502,4,4,3.265
1777496567696,-0.288,-0.097,0.094,-0.337,-0.730,0.507,-0.820,11.360,0.318,0.950,4,4,3.939
1777496567710,-0.429,0.660,-0.077,-0.587,-0.369,0.359,25.510,17.171,0.791,0.781,4,4,3.272
1777496567724,-0.285,0.481,0.019,-0.646,-0.086,0.327,42.313,20.795,0.559,0.729,4,4,3.281
1777496567737,-0.277,0.369,0.006,-0.736,0.135,0.439,54.929,25.148,0.461,0.867,4,4,3.269
1777496567752,-0.238,0.166,0.041,-0.985,0.330,0.622,60.633,33.031,0.293,1.211,4,4,3.469
1777496567766,-0.111,0.084,0.042,-1.355,0.372,0.707,61.354,37.516,0.145,1.574,4,4,4.021
1777496567780,-0.039,0.132,-0.008,-1.806,0.304,0.755,70.008,31.851,0.138,1.981,4,4,3.256
1777496567793,-0.071,0.249,-0.036,-2.211,0.199,0.825,77.624,27.492,0.261,2.368,4,4,3.260
1777496567806,-0.104,0.406,-0.090,-2.501,0.094,0.910,84.347,23.841,0.429,2.663,4,4,3.252
1777496567820,-0.240,0.595,-0.170,-2.501,0.032,0.987,90.186,23.127,0.664,2.689,4,4,3.342
1777496567833,-0.371,0.727,-0.238,-2.501,0.028,1.043,95.032,23.860,0.850,2.710,4,4,3.920
1777496567847,-0.446,0.835,-0.339,-2.501,0.046,1.041,99.642,24.534,1.005,2.710,4,4,3.259
1777496567861,-0.460,0.854,-0.434,-2.501,0.042,0.959,104.321,24.841,1.063,2.679,4,4,3.253
1777496567874,-0.483,0.875,-0.553,-2.501,0.029,0.812,109.184,24.887,1.142,2.630,4,4,3.249
1777496567887,-0.585,0.959,-0.611,-2.501,0.110,0.637,112.782,25.517,1.278,2.583,4,4,3.255
1777496567901,-0.633,1.062,-0.677,-2.501,0.278,0.474,115.413,25.826,1.410,2.561,5,5,3.860
1777496567915,-0.601,1.114,-0.728,-2.501,0.544,0.225,117.501,25.416,1.460,2.570,5,5,3.283
1777496567928,-0.497,1.207,-0.765,-2.501,0.814,0.011,118.814,23.729,1.513,2.631,5,5,3.262
1777496567942,-0.319,1.273,-0.825,-2.501,1.054,-0.058,119.929,20.527,1.550,2.715,5,5,3.251
1777496567955,-0.101,1.370,-0.898,-2.501,1.207,-0.010,120.820,15.938,1.641,2.777,5,5,3.292
1777496567969,0.089,1.412,-1.023,-2.501,1.242,0.123,122.198,10.842,1.746,2.795,5,5,3.931
1777496567983,0.207,1.486,-1.130,-2.501,1.158,0.304,123.561,6.201,1.878,2.773,5,5,3.277
1777496567996,0.219,1.530,-1.244,-2.501,0.999,0.471,125.062,2.811,1.983,2.734,5,5,3.267
1777496568009,0.105,1.497,-1.333,-2.475,0.818,0.559,126.854,1.240,2.007,2.666,5,5,3.255
1777496568023,-0.071,1.474,-1.417,-2.334,0.665,0.463,128.749,1.439,2.046,2.470,5,5,3.289
1777496568036,-0.179,1.455,-1.491,-2.150,0.562,0.237,130.630,2.375,2.091,2.235,5,5,3.938
1777496568050,0.002,1.339,-1.585,-1.853,0.416,0.028,133.112,1.719,2.075,1.899,5,5,3.292
1777496568064,0.297,1.165,-1.795,-1.485,0.131,0.049,136.866,-0.883,2.161,1.492,5,5,3.469
1777496568077,0.295,1.053,-1.945,-1.030,-0.148,0.297,140.838,-2.699,2.232,1.082,5,5,3.280
1777496568090,-0.029,0.941,-1.948,-0.534,-0.307,0.574,144.451,-1.764,2.164,0.842,5,5,3.272
1777496568104,-0.450,0.867,-1.893,-0.222,-0.351,0.272,147.407,2.011,2.130,0.496,1,1,3.927
1777496568118,-0.239,1.260,-1.664,1.801,-0.268,-0.062,146.181,3.234,2.101,1.822,1,1,3.286
1777496568131,0.213,0.932,-0.071,1.366,-0.222,-0.072,132.173,-1.110,0.959,1.386,1,1,3.295
1777496568145,0.323,1.172,0.116,1.541,-0.253,-0.256,119.256,-4.950,1.221,1.582,1,1,3.276
1777496568158,0.136,1.010,-0.209,1.640,-0.287,-0.389,114.513,-5.641,1.041,1.709,1,1,3.388
1777496568172,-0.132,1.022,-0.270,1.618,-0.158,-0.329,111.883,-2.189,1.065,1.659,1,1,3.925
1777496568186,0.081,0.932,-0.353,1.531,-0.105,-0.345,111.578,-2.850,1.000,1.573,1,1,3.281
1777496568199,-0.020,1.023,-0.391,1.428,-0.103,-0.315,111.398,-1.801,1.095,1.466,1,1,3.259
1777496568212,-0.056,1.022,-0.325,1.390,-0.064,-0.207,110.383,-0.501,1.074,1.406,1,1,3.267
1777496568226,-0.065,1.047,-0.325,1.423,-0.046,-0.134,109.538,0.550,1.098,1.430,1,1,3.270
1777496568239,-0.125,1.152,-0.299,1.494,0.003,-0.059,108.192,2.025,1.196,1.495,1,1,3.928
1777496568253,0.081,0.753,-0.619,1.182,-0.113,-0.037,113.925,0.190,0.978,1.188,1,1,3.325
1777496568270,0.002,0.762,-0.773,0.971,-0.005,-0.288,119.731,0.104,1.086,1.012,1,1,3.366
1777496568284,0.455,0.926,-0.534,0.347,-0.296,-0.251,119.792,-6.149,1.161,0.521,1,1,3.290
1777496568297,0.012,0.905,-0.573,0.032,-0.118,-0.149,120.484,-4.661,1.071,0.193,1,1,3.264
1777496568310,-0.102,0.938,-0.493,0.120,-0.108,-0.072,119.741,-1.918,1.064,0.177,1,1,3.994
1777496568324,-0.079,0.896,-0.540,0.063,-0.055,0.014,120.097,-0.239,1.049,0.084,1,1,3.273
1777496568338,-0.013,0.981,-0.467,0.087,-0.067,0.002,118.843,0.017,1.086,0.110,1,1,3.270
1777496568351,-0.030,0.950,-0.489,0.086,-0.055,-0.001,118.406,0.451,1.069,0.103,1,1,3.287
1777496568365,-0.014,0.917,-0.506,0.074,-0.043,0.003,118.539,0.535,1.047,0.086,1,1,3.272
1777496568378,-0.013,0.962,-0.488,0.077,-0.044,0.001,118.087,0.572,1.079,0.088,1,1,3.901
1777496568392,-0.039,0.923,-0.488,0.073,-0.041,0.011,118.025,0.993,1.045,0.085,1,1,3.263
1777496568405,0.009,0.927,-0.485,0.065,-0.032,0.009,117.910,0.587,1.047,0.073,1,1,3.247
1777496568419,-0.018,0.906,-0.521,0.056,-0.022,0.022,118.444,0.693,1.045,0.064,1,1,3.275
1777496568432,-0.028,0.909,-0.518,0.043,-0.018,0.024,118.774,0.917,1.046,0.052,1,1,3.336
1777496568445,0.019,0.921,-0.515,0.042,-0.031,-0.000,118.888,0.387,1.056,0.052,1,1,3.921
1777496568459,0.028,0.918,-0.509,0.039,-0.043,-0.026,118.919,-0.124,1.050,0.064,1,1,3.283
1777496568473,-0.024,0.932,-0.506,0.036,-0.051,-0.038,118.807,0.255,1.061,0.073,1,1,3.281
1777496568486,-0.027,0.938,-0.504,0.030,-0.047,-0.033,118.656,0.576,1.065,0.065,1,1,3.270
1777496568500,-0.040,0.942,-0.507,0.027,-0.034,-0.016,118.560,0.996,1.070,0.046,1,1,3.255
1777496568513,-0.050,0.944,-0.506,0.027,-0.025,0.004,118.466,1.446,1.072,0.037,1,1,3.986
1777496568527,-0.037,0.932,-0.498,0.022,-0.009,0.026,118.368,1.595,1.057,0.036,1,1,3.269
1777496568540,-0.034,0.910,-0.512,0.017,-0.003,0.035,118.637,1.671,1.045,0.039,1,1,3.272
1777496568554,-0.036,0.937,-0.504,0.027,0.003,0.047,118.540,1.742,1.064,0.054,1,1,3.273
1777496568567,-0.013,0.948,-0.492,0.027,0.004,0.046,118.236,1.462,1.068,0.054,1,1,3.265
1777496568581,-0.004,0.916,-0.499,0.026,0.001,0.039,118.330,1.129,1.043,0.047,1,1,4.373
1777496568595,-0.001,0.920,-0.503,0.025,-0.005,0.031,118.419,0.835,1.049,0.040,1,1,3.263
1777496568608,-0.017,0.919,-0.514,0.024,-0.004,0.028,118.628,0.857,1.053,0.037,1,1,3.266
1777496568622,-0.020,0.915,-0.505,0.020,-0.004,0.021,118.697,0.915,1.045,0.029,1,1,3.276
1777496568635,-0.009,0.919,-0.508,0.020,-0.006,0.023,118.760,0.793,1.050,0.031,1,1,3.266
1777496568649,-0.009,0.917,-0.501,0.015,-0.008,0.014,118.730,0.713,1.044,0.022,2,2,4.005
1777496568663,-0.017,0.905,-0.512,0.012,-0.010,0.010,118.937,0.778,1.040,0.018,2,2,3.269
1777496568676,-0.003,0.912,-0.503,0.010,-0.016,-0.006,118.921,0.619,1.042,0.020,2,2,3.277
1777496568689,-0.009,0.914,-0.507,0.010,-0.018,-0.011,118.951,0.589,1.045,0.023,2,2,3.264
1777496568703,-0.028,0.909,-0.513,0.009,-0.021,-0.010,119.079,0.843,1.044,0.025,2,2,3.253
1777496568716,-0.014,0.915,-0.510,0.004,-0.022,-0.020,119.089,0.824,1.048,0.030,1,1,3.960
1777496568730,-0.015,0.921,-0.500,0.002,-0.021,-0.021,118.933,0.818,1.048,0.030,1,1,3.278
1777496568744,-0.001,0.926,-0.507,0.004,-0.027,-0.029,118.868,0.608,1.056,0.040,1,1,3.275
1777496568757,-0.013,0.928,-0.505,0.004,-0.031,-0.033,118.780,0.633,1.057,0.045,1,1,3.272
1777496568770,-0.025,0.923,-0.500,0.002,-0.029,-0.029,118.692,0.836,1.050,0.041,1,1,3.258
1777496568786,-0.034,0.928,-0.509,0.005,-0.025,-0.024,118.709,1.107,1.059,0.035,1,1,4.065
1777496568800,-0.034,0.924,-0.505,0.002,-0.019,-0.016,118.693,1.314,1.053,0.025,1,1,3.265
1777496568814,-0.032,0.928,-0.504,0.005,-0.016,-0.011,118.644,1.424,1.056,0.020,1,1,3.275
1777496568827,-0.041,0.927,-0.501,0.007,-0.012,-0.002,118.584,1.645,1.054,0.014,1,1,3.267
1777496568841,-0.021,0.930,-0.512,0.005,-0.011,-0.001,118.648,1.510,1.062,0.012,1,1,3.269
1777496568854,-0.015,0.923,-0.508,0.005,-0.010,-0.004,118.700,1.325,1.054,0.012,1,1,3.906
1777496568868,-0.029,0.921,-0.493,0.003,-0.007,-0.007,118.554,1.390,1.045,0.011,1,1,3.276
1777496568881,-0.030,0.902,-0.517,-0.002,-0.004,-0.007,118.898,1.465,1.040,0.008,1,1,3.262
1777496568895,-0.031,0.924,-0.513,-0.003,-0.000,0.004,118.936,1.516,1.058,0.005,1,1,3.248
1777496568908,-0.028,0.924,-0.514,-0.003,0.002,0.008,118.974,1.514,1.057,0.009,1,1,3.246
1777496568921,-0.067,0.935,-0.527,-0.006,0.012,0.029,119.087,2.072,1.075,0.032,1,1,3.893
1777496568935,-0.011,0.931,-0.514,-0.006,0.015,0.030,119.038,1.669,1.064,0.034,1,1,3.259
1777496568949,-0.023,0.926,-0.515,-0.009,0.015,0.033,119.053,1.553,1.060,0.038,1,1,3.610
1777496568963,-0.024,0.920,-0.513,-0.014,0.019,0.037,119.079,1.482,1.053,0.044,1,1,3.265
