timestamp,ax,ay,az,gx,gy,gz,roll,pitch_k,acc_norm,gyro_norm,classe_prevista_raw,classe_prevista,delay_ms
1777577043702,-0.0195312,0.938232,-0.488037,-0.000610687,-0.309924,0.258397,106.811,0.961922,1.05775,0.403512,0,0,3.260
1777577043715,-0.021,0.944,-0.485,-0.038,-0.017,-0.040,111.793,1.050,1.062,0.057,0,0,3.281
1777577043728,-0.023,0.948,-0.493,-0.033,-0.014,-0.007,113.660,1.118,1.069,0.036,0,0,3.258
1777577043742,-0.021,0.954,-0.495,-0.025,-0.013,-0.001,114.613,1.125,1.075,0.028,0,0,3.258
1777577043755,-0.047,0.965,-0.486,-0.006,-0.009,0.013,115.054,1.408,1.082,0.017,0,0,3.261
1777577043768,-0.049,0.956,-0.486,0.004,0.001,0.017,115.393,1.620,1.073,0.018,0,0,3.246
1777577043782,-0.149,1.127,-0.467,0.044,0.043,-0.013,114.932,2.467,1.229,0.063,0,0,3.252
1777577043795,-0.044,0.990,-0.480,0.077,0.058,0.021,115.068,2.445,1.101,0.098,0,0,3.252
1777577043808,-0.096,0.956,-0.491,0.099,0.079,0.034,115.355,2.799,1.079,0.132,0,0,3.252
1777577043822,-0.170,0.939,-0.499,0.112,0.131,0.021,115.686,3.587,1.077,0.173,0,0,3.250
1777577043835,-0.212,0.936,-0.525,0.112,0.196,0.005,116.115,4.496,1.094,0.226,0,0,3.254
1777577043849,-0.239,0.916,-0.508,0.113,0.277,-0.032,116.444,5.455,1.074,0.301,0,0,3.507
1777577043862,-0.264,0.912,-0.497,0.109,0.385,-0.099,116.681,6.434,1.072,0.412,0,0,3.249
1777577043875,-0.282,0.865,-0.541,0.079,0.488,-0.122,117.256,7.407,1.059,0.509,0,0,3.267
1777577043889,-0.240,0.854,-0.574,0.056,0.575,-0.137,117.954,8.009,1.057,0.594,0,0,3.253
1777577043902,-0.270,0.830,-0.578,0.005,0.669,-0.127,118.669,8.727,1.046,0.681,0,0,3.257
1777577043915,-0.343,0.844,-0.620,-0.039,0.789,-0.220,119.446,9.688,1.102,0.820,0,0,3.254
1777577043929,-0.116,0.961,-0.792,0.013,0.783,-0.454,120.460,9.249,1.251,0.905,0,0,3.268
1777577043942,0.071,0.835,-0.890,0.102,0.562,-0.437,122.088,7.995,1.222,0.719,0,0,3.255
1777577043955,0.179,0.809,-0.920,0.131,0.202,-0.225,123.728,6.383,1.238,0.330,0,0,3.258
1777577043969,0.180,0.737,-0.939,0.137,-0.209,-0.164,125.510,4.914,1.207,0.299,0,0,3.250
1777577043982,-0.032,0.690,-0.970,0.108,-0.512,-0.222,127.371,4.586,1.191,0.569,0,0,3.242
1777577043995,-0.156,0.736,-0.934,0.056,-0.668,-0.079,128.771,4.869,1.200,0.675,0,0,3.248
1777577044009,-0.174,0.868,-0.916,0.099,-0.765,0.024,129.520,5.158,1.274,0.772,0,0,3.245
1777577044022,-0.242,0.899,-0.955,0.214,-0.803,0.055,130.213,5.669,1.334,0.832,0,0,3.257
1777577044035,-0.247,0.875,-0.959,0.323,-0.810,0.045,130.926,6.159,1.322,0.873,0,0,3.260
1777577044049,-0.182,0.876,-0.976,0.415,-0.828,0.022,131.612,6.326,1.324,0.926,0,0,3.611
1777577044062,-0.079,0.899,-0.958,0.523,-0.871,0.030,132.111,6.049,1.316,1.017,0,0,3.248
1777577044076,-0.013,0.875,-0.931,0.611,-0.930,0.113,132.556,5.528,1.278,1.118,0,0,3.240
1777577044089,0.024,0.847,-0.865,0.646,-0.975,0.231,132.846,4.890,1.210,1.192,4,4,3.899
1777577044103,0.039,0.899,-0.814,0.688,-0.998,0.266,132.779,4.246,1.214,1.241,4,4,3.240
1777577044116,0.028,0.902,-0.758,0.732,-0.986,0.208,132.517,3.710,1.179,1.246,4,4,3.255
1777577044130,0.043,0.892,-0.712,0.760,-0.931,0.139,132.141,3.148,1.142,1.209,4,4,3.240
1777577044143,0.086,0.885,-0.658,0.763,-0.865,0.134,131.616,2.421,1.107,1.161,4,4,3.237
1777577044156,0.150,0.854,-0.589,0.749,-0.805,0.137,130.950,1.407,1.048,1.108,4,4,3.828
1777577044170,0.177,0.828,-0.538,0.714,-0.743,0.129,130.195,0.307,1.003,1.039,4,4,3.242
1777577044184,0.197,0.800,-0.480,0.664,-0.675,0.126,129.316,-0.854,0.954,0.955,4,4,3.246
1777577044197,0.193,0.807,-0.423,0.620,-0.589,0.153,128.204,-1.911,0.931,0.869,4,4,3.239
1777577044210,0.196,0.799,-0.378,0.584,-0.500,0.179,126.979,-2.917,0.905,0.789,4,4,3.252
1777577044224,0.174,0.790,-0.346,0.553,-0.412,0.207,125.710,-3.725,0.879,0.720,4,4,3.815
1777577044238,0.117,0.786,-0.324,0.531,-0.312,0.256,124.442,-4.114,0.858,0.667,4,4,3.251
1777577044251,0.052,0.820,-0.337,0.531,-0.198,0.313,123.289,-4.045,0.888,0.647,4,4,3.249
1777577044264,-0.028,0.820,-0.365,0.551,-0.065,0.384,122.407,-3.493,0.898,0.675,4,4,3.243
1777577044278,-0.049,0.878,-0.409,0.598,0.065,0.391,121.701,-2.884,0.970,0.718,4,4,3.248
1777577044291,0.385,-0.130,-0.060,-0.095,0.276,1.552,99.214,-9.235,0.410,1.579,4,4,3.807
1777577044305,0.240,0.932,-0.204,-0.187,0.095,0.984,99.511,-9.697,0.984,1.006,4,4,3.251
1777577044318,0.004,0.424,-0.197,-0.510,0.101,0.479,100.978,-8.823,0.467,0.707,4,4,3.239
1777577044331,-0.042,0.938,-0.140,-0.834,0.126,-0.061,100.743,-7.744,0.950,0.845,4,4,3.251
1777577044345,-0.087,0.878,-0.102,-0.863,0.261,0.138,100.349,-6.474,0.889,0.912,4,4,3.246
1777577044358,0.153,1.377,-0.601,-0.765,0.211,0.408,101.607,-6.410,1.510,0.892,5,5,3.823
1777577044372,0.052,0.625,-0.744,-0.812,0.162,0.240,105.255,-6.089,0.973,0.862,5,5,3.247
1777577044385,0.183,1.111,-0.620,-0.802,0.109,0.187,106.578,-6.290,1.286,0.831,5,5,3.236
1777577044399,0.138,1.064,-0.582,-0.737,0.036,0.305,107.728,-6.309,1.220,0.799,5,5,3.245
1777577044412,-0.022,0.955,-0.573,-0.685,0.046,0.187,108.985,-5.601,1.114,0.711,5,5,3.237
1777577044425,-0.013,1.139,-0.538,-0.634,0.065,0.163,109.584,-5.013,1.260,0.658,5,5,3.817
1777577044439,0.092,1.024,-0.553,-0.561,0.028,0.152,110.421,-4.968,1.167,0.582,5,5,3.243
1777577044453,0.101,1.064,-0.549,-0.529,-0.003,0.105,111.076,-4.955,1.202,0.540,5,5,3.234
1777577044466,0.101,1.039,-0.541,-0.483,-0.038,0.083,111.687,-4.951,1.176,0.491,5,5,3.250
1777577044479,0.059,1.173,-0.548,-0.413,-0.068,-0.013,112.005,-4.727,1.296,0.419,5,5,3.245
1777577044493,0.039,1.100,-0.551,-0.364,-0.085,-0.084,112.441,-4.450,1.231,0.383,1,1,3.821
1777577044507,-0.029,1.038,-0.524,-0.289,-0.076,-0.085,112.857,-3.889,1.163,0.310,1,1,3.240
1777577044520,-0.088,1.016,-0.527,-0.235,-0.054,-0.060,113.291,-3.103,1.148,0.249,1,1,3.249
1777577044533,-0.082,0.981,-0.527,-0.206,-0.030,-0.028,113.762,-2.408,1.116,0.210,1,1,3.239
1777577044547,-0.070,0.941,-0.513,-0.192,-0.013,0.009,114.222,-1.824,1.074,0.193,1,1,3.252
1777577044560,-0.043,0.911,-0.519,-0.198,0.002,0.020,114.739,-1.427,1.049,0.199,5,5,3.847
1777577044574,-0.035,0.844,-0.540,-0.092,0.003,-0.051,115.485,-1.099,1.003,0.105,5,5,3.239
1777577044587,-0.061,0.954,-0.504,-0.057,0.003,-0.009,115.711,-0.688,1.080,0.058,5,5,3.243
1777577044600,0.014,0.927,-0.524,-0.049,-0.003,-0.026,116.070,-0.694,1.065,0.056,5,5,3.243
1777577044614,0.025,0.917,-0.508,-0.045,-0.009,-0.047,116.349,-0.760,1.049,0.066,5,5,3.251
1777577044627,-0.060,0.944,-0.521,-0.042,-0.015,-0.045,116.593,-0.385,1.080,0.063,1,1,3.810
1777577044641,-0.036,0.954,-0.501,-0.019,-0.016,-0.030,116.700,-0.168,1.078,0.039,1,1,3.263
1777577044654,-0.022,0.930,-0.518,-0.015,-0.015,-0.027,116.928,-0.041,1.064,0.035,1,1,3.240
1777577044668,-0.066,0.947,-0.515,-0.008,-0.008,-0.011,117.081,0.296,1.080,0.015,1,1,3.242
1777577044681,-0.045,0.943,-0.494,-0.007,0.001,0.006,117.137,0.500,1.065,0.010,1,1,3.243
1777577044694,-0.005,0.929,-0.506,-0.003,-0.002,0.002,117.272,0.477,1.058,0.004,1,1,3.805
1777577044708,-0.009,0.938,-0.499,-0.000,-0.005,-0.009,117.341,0.480,1.062,0.010,1,1,3.257
1777577044722,-0.011,0.937,-0.504,0.002,-0.004,-0.012,117.430,0.492,1.064,0.013,1,1,3.237
1777577044735,-0.037,0.937,-0.497,0.006,0.004,-0.007,117.476,0.637,1.061,0.010,1,1,3.251
1777577044748,-0.033,0.922,-0.506,0.011,0.001,-0.000,117.598,0.747,1.052,0.011,1,1,3.240
1777577044762,-0.038,0.940,-0.499,0.019,0.008,0.012,117.634,0.871,1.065,0.024,1,1,3.957
1777577044776,-0.032,0.935,-0.512,0.026,0.010,0.019,117.737,0.951,1.067,0.034,1,1,3.248
1777577044789,-0.014,0.928,-0.502,0.033,0.011,0.017,117.801,0.934,1.055,0.038,1,1,3.238
1777577044802,-0.030,0.924,-0.498,0.032,0.011,0.019,117.849,1.001,1.050,0.039,1,1,3.260
1777577044816,-0.007,0.921,-0.508,0.035,0.005,0.017,117.947,0.941,1.052,0.039,1,1,3.239
1777577044829,0.005,0.917,-0.511,0.029,-0.004,0.004,118.062,0.828,1.050,0.030,1,1,3.876
1777577044843,-0.005,0.906,-0.517,0.025,-0.011,-0.009,118.216,0.776,1.043,0.029,1,1,3.244
1777577044856,-0.005,0.899,-0.508,0.025,-0.017,-0.018,118.336,0.728,1.033,0.035,1,1,3.245
1777577044870,-0.029,0.917,-0.507,0.019,-0.022,-0.016,118.393,0.811,1.048,0.033,1,1,3.254
1777577044883,-0.013,0.901,-0.511,0.013,-0.024,-0.022,118.506,0.803,1.036,0.035,1,1,3.243
1777577044896,-0.029,0.912,-0.511,0.012,-0.024,-0.020,118.579,0.876,1.045,0.033,2,2,3.826
1777577044910,-0.019,0.912,-0.510,0.013,-0.025,-0.025,118.639,0.890,1.045,0.038,2,2,3.239
1777577044924,-0.027,0.896,-0.513,0.006,-0.033,-0.031,118.748,0.949,1.032,0.046,2,2,3.302
1777577044937,-0.022,0.905,-0.514,-0.000,-0.029,-0.031,118.830,0.975,1.041,0.042,2,2,3.245
1777577044951,-0.023,0.892,-0.516,-0.006,-0.032,-0.038,118.944,1.005,1.031,0.050,2,2,3.265
1777577044964,-0.021,0.899,-0.513,-0.019,-0.034,-0.041,119.017,1.017,1.035,0.057,1,1,3.828
1777577044978,-0.028,0.911,-0.510,-0.020,-0.034,-0.042,119.042,1.066,1.044,0.058,1,1,3.256
1777577044991,-0.032,0.921,-0.514,-0.018,-0.033,-0.038,119.052,1.131,1.055,0.054,1,1,3.245
1777577045005,-0.054,0.920,-0.511,-0.015,-0.030,-0.033,119.054,1.304,1.054,0.047,1,1,3.263
1777577045018,-0.053,0.917,-0.510,-0.014,-0.026,-0.024,119.057,1.457,1.050,0.038,1,1,3.244
1777577045031,-0.054,0.927,-0.509,-0.013,-0.022,-0.010,119.032,1.598,1.059,0.028,1,1,3.833
1777577045045,-0.034,0.926,-0.509,-0.015,-0.017,-0.005,119.009,1.620,1.057,0.023,1,1,3.272
1777577045059,-0.008,0.925,-0.514,-0.011,-0.023,-0.014,119.014,1.507,1.059,0.029,1,1,3.254
1777577045072,-0.019,0.925,-0.504,-0.011,-0.026,-0.028,118.973,1.461,1.053,0.040,1,1,3.257
1777577045085,-0.036,0.912,-0.515,-0.013,-0.027,-0.032,119.020,1.509,1.048,0.044,1,1,3.253
1777577045099,-0.053,0.912,-0.509,-0.017,-0.023,-0.025,119.034,1.643,1.046,0.038,2,2,3.841
1777577045113,-0.038,0.909,-0.509,-0.020,-0.021,-0.020,119.054,1.684,1.043,0.036,2,2,3.262
1777577045126,-0.041,0.896,-0.508,-0.029,-0.018,-0.021,119.101,1.741,1.030,0.040,2,2,3.247
1777577045139,-0.041,0.870,-0.532,-0.046,-0.014,-0.021,119.322,1.794,1.021,0.053,2,2,3.256
1777577045153,-0.021,0.861,-0.527,-0.071,-0.017,-0.033,119.528,1.734,1.009,0.080,2,2,3.284
1777577045166,-0.044,0.885,-0.520,-0.084,-0.014,-0.034,119.614,1.805,1.027,0.091,2,2,3.983
1777577045180,-0.002,0.897,-0.501,-0.097,-0.027,-0.055,119.576,1.643,1.027,0.114,2,2,3.250
1777577045193,-0.017,0.948,-0.499,-0.093,-0.044,-0.057,119.402,1.573,1.071,0.117,2,2,3.246
1777577045207,-0.046,0.955,-0.506,-0.091,-0.050,-0.057,119.261,1.655,1.082,0.118,2,2,3.246
1777577045220,-0.062,0.961,-0.501,-0.083,-0.042,-0.045,119.096,1.810,1.086,0.103,2,2,3.263
1777577045233,-0.094,0.976,-0.479,-0.077,-0.030,-0.023,118.815,2.109,1.092,0.086,5,5,3.829
1777577045247,-0.078,0.965,-0.487,-0.069,-0.015,-0.001,118.620,2.302,1.084,0.071,5,5,3.241
1777577045261,-0.075,0.952,-0.486,-0.058,0.002,0.021,118.470,2.463,1.071,0.062,5,5,3.269
1777577045274,-0.058,0.958,-0.471,-0.045,0.011,0.032,118.251,2.524,1.069,0.056,5,5,3.263
1777577045288,-0.044,0.936,-0.475,-0.034,0.009,0.032,118.122,2.514,1.051,0.047,5,5,3.257
1777577045301,-0.033,0.929,-0.481,-0.028,0.002,0.024,118.053,2.449,1.047,0.037,1,1,3.852
1777577045315,-0.030,0.923,-0.479,-0.023,-0.013,0.010,117.991,2.371,1.040,0.028,1,1,3.252
1777577045328,-0.015,0.915,-0.487,-0.020,-0.028,-0.013,117.996,2.223,1.036,0.037,1,1,3.271
1777577045342,-0.031,0.912,-0.490,-0.021,-0.040,-0.024,118.018,2.177,1.035,0.051,1,1,3.244
1777577045355,-0.038,0.920,-0.481,-0.025,-0.045,-0.028,117.978,2.171,1.039,0.059,1,1,3.278
1777577045369,-0.056,0.922,-0.479,-0.022,-0.044,-0.026,117.929,2.260,1.040,0.056,1,1,3.847
1777577045382,-0.056,0.930,-0.476,-0.021,-0.044,-0.023,117.852,2.339,1.046,0.054,1,1,3.266
1777577045396,-0.067,0.934,-0.488,-0.016,-0.037,-0.017,117.826,2.461,1.056,0.044,1,1,3.252
1777577045409,-0.066,0.940,-0.487,-0.014,-0.031,-0.011,117.785,2.564,1.061,0.035,1,1,3.250
1777577045423,-0.060,0.937,-0.480,-0.010,-0.022,-0.001,117.722,2.632,1.054,0.024,1,1,3.253
1777577045436,-0.058,0.933,-0.479,-0.009,-0.017,0.003,117.672,2.685,1.050,0.019,1,1,3.853
1777577045450,-0.052,0.931,-0.482,-0.009,-0.020,0.003,117.642,2.697,1.050,0.022,1,1,3.265
1777577045463,-0.048,0.934,-0.476,-0.005,-0.022,-0.001,117.580,2.689,1.049,0.022,1,1,3.244
1777577045477,-0.048,0.927,-0.489,-0.007,-0.022,0.000,117.599,2.681,1.049,0.023,1,1,3.702
1777577045490,-0.065,0.939,-0.478,-0.004,-0.018,0.003,117.541,2.760,1.056,0.019,1,1,3.248
1777577045504,-0.060,0.936,-0.480,-0.004,-0.017,0.005,117.505,2.806,1.054,0.018,1,1,3.829
1777577045518,-0.063,0.935,-0.482,-0.004,-0.010,0.011,117.482,2.867,1.054,0.015,1,1,3.246
1777577045531,-0.064,0.933,-0.481,-0.006,-0.003,0.015,117.463,2.926,1.052,0.017,1,1,3.248
1777577045544,-0.060,0.938,-0.487,-0.006,-0.002,0.020,117.460,2.956,1.058,0.021,1,1,3.260
1777577045558,-0.056,0.938,-0.485,-0.007,0.003,0.023,117.448,2.966,1.057,0.025,1,1,3.269
1777577045571,-0.055,0.931,-0.485,-0.005,0.006,0.025,117.455,2.969,1.051,0.026,1,1,3.863
1777577045585,-0.054,0.936,-0.481,-0.004,0.003,0.022,117.433,2.967,1.054,0.023,1,1,3.255
1777577045598,-0.044,0.927,-0.485,-0.003,0.001,0.020,117.450,2.915,1.047,0.020,1,1,3.263
1777577045612,-0.049,0.926,-0.479,-0.003,0.001,0.016,117.441,2.895,1.044,0.016,1,1,3.252
1777577045625,-0.041,0.931,-0.479,-0.003,-0.004,0.011,117.421,2.834,1.048,0.012,1,1,3.252
1777577045638,-0.045,0.931,-0.479,-0.002,-0.003,0.011,117.406,2.801,1.048,0.012,2,2,3.865
1777577045652,-0.044,0.931,-0.484,-0.001,-0.008,0.006,117.411,2.765,1.050,0.010,2,2,3.252
1777577045666,-0.050,0.927,-0.485,-0.003,-0.009,0.007,117.433,2.764,1.047,0.012,2,2,3.261
1777577045679,-0.050,0.938,-0.475,-0.000,-0.010,0.008,117.381,2.760,1.052,0.013,2,2,3.259
1777577045692,-0.051,0.928,-0.483,-0.005,-0.007,0.005,117.391,2.763,1.048,0.010,2,2,3.270
1777577045706,-0.059,0.923,-0.487,-0.001,-0.006,0.008,117.431,2.807,1.045,0.010,2,2,3.852
1777577045720,-0.058,0.940,-0.478,-0.003,-0.005,0.010,117.385,2.842,1.056,0.012,2,2,3.250
1777577045733,-0.059,0.938,-0.488,-0.003,-0.005,0.015,117.394,2.876,1.059,0.016,2,2,3.253
1777577045746,-0.053,0.931,-0.483,-0.004,-0.004,0.015,117.396,2.878,1.051,0.016,2,2,3.243
1777577045760,-0.057,0.935,-0.483,-0.000,-0.003,0.021,117.388,2.899,1.054,0.021,2,2,3.280
1777577045773,-0.057,0.937,-0.481,0.000,0.003,0.025,117.366,2.917,1.055,0.025,2,2,3.842
1777577045787,-0.060,0.930,-0.485,0.001,0.010,0.032,117.383,2.950,1.051,0.034,2,2,3.272
1777577045800,-0.061,0.936,-0.479,-0.002,0.011,0.040,117.358,2.983,1.053,0.042,2,2,3.249
1777577045814,-0.051,0.929,-0.476,0.001,0.015,0.039,117.337,2.967,1.045,0.042,2,2,3.261
1777577045827,-0.047,0.944,-0.479,0.001,0.013,0.040,117.296,2.928,1.059,0.042,2,2,3.252
1777577045840,-0.051,0.945,-0.466,0.006,0.016,0.042,117.197,2.913,1.055,0.046,2,2,3.863
1777577045854,-0.047,0.956,-0.472,0.020,0.016,0.046,117.109,2.878,1.067,0.052,2,2,3.266
1777577045868,-0.055,0.942,-0.481,0.031,0.018,0.046,117.104,2.887,1.059,0.059,2,2,3.238
1777577045881,-0.062,0.983,-0.471,0.044,0.022,0.059,116.959,2.921,1.092,0.077,2,2,3.265
1777577045894,-0.051,0.988,-0.473,0.073,0.026,0.056,116.830,2.898,1.096,0.095,2,2,3.248
1777577045908,-0.062,1.022,-0.455,0.102,0.021,0.062,116.562,2.924,1.121,0.121,3,3,3.834
1777577045922,0.086,1.026,-0.478,0.163,0.009,0.013,116.413,2.234,1.135,0.164,3,3,3.247
1777577045935,-0.019,1.454,-0.466,0.256,-0.033,0.175,115.591,2.089,1.527,0.312,3,3,3.253
1777577045948,0.064,3.123,-0.109,0.777,-0.105,0.041,113.347,1.778,3.126,0.785,3,3,3.250
1777577045962,0.215,1.458,-0.415,0.983,-0.100,0.903,112.637,0.842,1.532,1.339,3,3,3.240
1777577045975,0.157,2.406,-0.479,1.359,-0.170,0.291,111.556,0.414,2.459,1.400,3,3,3.892
1777577045989,0.024,2.039,-0.441,1.907,-0.169,0.226,110.667,0.312,2.086,1.928,3,3,3.251
1777577046002,0.027,1.980,-0.382,2.223,-0.226,0.249,109.741,0.210,2.016,2.248,3,3,3.261
1777577046016,0.000,1.838,-0.297,2.501,-0.249,0.131,108.737,0.190,1.862,2.517,3,3,3.249
1777577046029,-0.033,1.622,-0.314,2.501,-0.243,0.046,107.996,0.282,1.652,2.514,3,3,3.258
1777577046043,-0.025,1.335,-0.374,2.501,-0.205,-0.079,107.774,0.355,1.386,2.511,4,4,3.845
1777577046056,-0.121,1.128,-0.526,2.501,-0.127,0.007,108.462,0.848,1.250,2.505,4,4,3.259
1777577046070,-0.184,0.757,-0.509,2.501,-0.059,0.282,109.933,1.854,0.930,2.518,4,4,3.268
1777577046083,-0.051,0.398,-0.488,2.501,-0.041,0.466,112.868,2.119,0.632,2.545,4,4,3.246
1777577046097,-0.130,0.553,-0.505,2.501,-0.024,0.500,114.726,2.857,0.760,2.551,4,4,3.267
1777577046110,-0.124,0.005,-0.386,2.286,-0.059,0.490,120.869,4.278,0.406,2.338,4,4,3.869
1777577046124,0.000,-0.491,-0.055,1.491,-0.154,0.195,100.204,3.869,0.495,1.512,4,4,3.267
1777577046137,0.323,-0.477,0.025,0.504,-0.401,-0.199,82.401,0.262,0.577,0.674,4,4,3.254
1777577046151,-0.148,-0.486,-0.001,-0.528,-0.437,-0.166,65.987,1.846,0.508,0.705,4,4,3.251
1777577046164,0.073,0.107,0.152,-1.274,-0.502,0.125,63.052,-0.378,0.200,1.375,4,4,3.266
1777577046177,0.049,0.533,0.159,-1.538,-0.586,0.370,64.036,-0.824,0.558,1.687,4,4,3.846
1777577046191,0.073,0.575,0.119,-1.635,-0.655,0.544,65.396,-1.422,0.591,1.844,4,4,3.267
1777577046205,-0.007,0.447,0.105,-1.780,-0.710,0.546,66.478,-1.206,0.459,1.993,4,4,3.292
1777577046218,-0.066,0.404,0.115,-2.021,-0.720,0.316,67.197,-0.242,0.425,2.169,4,4,3.264
1777577046232,-0.157,0.409,0.104,-2.312,-0.683,0.117,68.006,1.721,0.450,2.414,4,4,3.250
1777577046245,-0.133,0.370,0.135,-2.501,-0.615,0.109,68.186,3.329,0.416,2.578,4,4,3.865
1777577046259,-0.062,0.722,0.172,-2.501,-0.550,0.221,68.987,3.470,0.745,2.571,4,4,3.260
1777577046272,-0.063,1.031,0.119,-2.501,-0.493,0.336,70.361,3.470,1.040,2.572,4,4,3.244
1777577046286,-0.137,1.330,-0.046,-2.501,-0.419,0.423,72.418,3.700,1.338,2.571,4,4,3.266
1777577046299,-0.202,1.058,-0.160,-2.501,-0.284,0.425,74.907,4.366,1.089,2.553,4,4,3.250
1777577046312,-0.163,0.925,-0.152,-2.501,-0.130,0.274,77.231,4.891,0.951,2.520,5,5,3.863
1777577046326,-0.107,1.384,-0.135,-2.501,-0.008,0.142,78.977,4.844,1.394,2.505,5,5,3.249
1777577046340,-0.029,1.678,-0.227,-2.501,0.083,0.246,80.757,4.477,1.693,2.515,5,5,3.247
1777577046353,-0.031,1.689,-0.340,-2.501,0.176,0.442,82.718,4.149,1.723,2.546,5,5,3.249
1777577046366,-0.082,1.775,-0.474,-2.501,0.285,0.452,84.832,3.997,1.839,2.558,5,5,3.248
1777577046380,-0.198,2.003,-0.601,-2.501,0.447,0.303,86.912,4.130,2.101,2.559,5,5,3.835
1777577046394,-0.226,2.049,-0.903,-2.501,0.642,0.227,89.467,4.286,2.251,2.593,5,5,3.246
1777577046407,-0.190,1.882,-1.179,-2.501,0.807,0.195,92.568,4.345,2.229,2.635,5,5,3.283
1777577046420,-0.085,1.865,-1.450,-2.055,0.932,0.175,95.924,4.127,2.364,2.263,5,5,3.242
1777577046434,0.184,1.692,-1.682,-1.368,0.849,0.266,99.626,3.315,2.393,1.632,5,5,3.259
1777577046447,0.340,1.452,-1.826,-0.688,0.526,0.319,103.610,2.211,2.358,0.923,5,5,3.816
1777577046461,-0.147,1.095,-1.753,-0.109,0.280,0.251,107.832,2.388,2.072,0.392,5,5,3.278
1777577046474,-0.479,0.820,-1.610,0.203,0.230,0.093,112.131,3.575,1.869,0.321,5,5,3.253
1777577046488,-0.458,0.880,-1.457,0.485,0.222,-0.227,115.626,4.668,1.762,0.580,5,5,3.244
1777577046501,-0.289,0.960,-1.320,0.790,0.154,-0.411,118.321,5.177,1.657,0.904,5,5,3.278
1777577046514,1.145,-0.321,2.198,0.456,-0.235,0.528,106.277,2.092,2.499,0.736,1,1,3.850
1777577046528,0.640,1.593,1.401,1.345,-0.673,-0.137,100.798,0.297,2.216,1.510,1,1,3.276
1777577046542,0.054,0.909,-0.096,1.642,-0.672,-0.495,100.343,-0.053,0.916,1.842,1,1,3.251
1777577046555,-0.534,0.913,-0.113,1.547,-0.258,-0.230,100.028,2.819,1.064,1.585,1,1,3.261
1777577046568,0.074,0.893,-0.243,1.387,-0.073,-0.191,100.525,2.114,0.928,1.402,1,1,3.256
1777577046582,-0.004,0.920,-0.303,1.277,-0.077,-0.264,101.257,1.937,0.969,1.307,1,1,3.821
1777577046596,-0.129,0.961,-0.237,1.163,0.027,-0.207,101.502,2.459,0.998,1.182,1,1,3.297
1777577046609,-0.047,0.975,-0.231,1.163,0.006,-0.199,101.675,2.481,1.003,1.180,1,1,3.239
1777577046623,-0.066,1.002,-0.275,1.140,0.002,-0.171,102.026,2.589,1.042,1.153,1,1,3.296
1777577046636,-0.159,0.968,-0.351,1.076,0.015,-0.096,102.775,3.180,1.042,1.081,1,1,3.253
1777577046649,-0.117,0.965,-0.352,0.999,0.043,-0.023,103.467,3.498,1.034,1.000,1,1,3.829
1777577046663,-0.074,0.950,-0.368,0.935,0.064,-0.026,104.199,3.559,1.022,0.938,1,1,3.255
1777577046677,-0.091,0.955,-0.392,0.885,0.117,-0.005,104.970,3.701,1.037,0.892,1,1,3.243
1777577046690,-0.039,0.937,-0.375,0.825,0.131,0.011,105.621,3.561,1.010,0.835,1,1,3.252
1777577046703,-0.095,0.952,-0.394,0.783,0.147,0.042,106.273,3.722,1.035,0.798,1,1,3.246
1777577046717,-0.071,0.919,-0.431,0.739,0.131,0.083,107.113,3.750,1.018,0.755,1,1,3.836
1777577046731,-0.034,0.911,-0.485,0.700,0.169,0.086,108.152,3.574,1.032,0.726,1,1,3.247
1777577046744,-0.018,0.854,-0.534,0.574,0.142,0.058,109.471,3.333,1.008,0.594,1,1,3.260
1777577046757,-0.009,0.991,-0.394,0.556,0.157,0.028,109.678,3.063,1.067,0.578,1,1,3.246
1777577046771,0.009,0.962,-0.450,0.536,0.122,0.003,110.189,2.724,1.062,0.550,1,1,3.255
1777577046784,0.046,1.040,-0.421,0.577,0.100,-0.046,110.367,2.241,1.123,0.588,1,1,3.816
1777577046798,0.033,1.040,-0.535,0.647,0.212,-0.225,111.019,1.874,1.170,0.717,1,1,3.244
1777577046811,-0.448,0.722,-0.728,0.316,0.070,-0.051,113.323,3.940,1.118,0.328,1,1,3.271
1777577046825,0.066,0.945,-0.477,0.229,-0.034,-0.119,113.654,3.227,1.060,0.261,1,1,3.258
1777577046838,-0.257,0.895,-0.517,0.197,-0.025,-0.049,114.256,4.249,1.065,0.205,1,1,3.262
1777577046851,-0.017,0.920,-0.492,0.155,-0.019,-0.032,114.625,3.935,1.044,0.160,1,1,3.826
1777577046865,-0.077,0.959,-0.489,0.161,-0.025,-0.020,114.852,3.951,1.079,0.164,1,1,3.256
1777577046879,0.003,0.915,-0.499,0.153,-0.032,-0.028,115.208,3.558,1.042,0.159,1,1,3.252
1777577046892,-0.022,0.879,-0.516,0.124,-0.046,-0.032,115.704,3.337,1.019,0.136,1,1,3.249
1777577046905,0.016,0.911,-0.487,0.130,-0.059,-0.066,115.933,2.937,1.033,0.158,1,1,3.287
1777577046919,-0.031,0.905,-0.518,0.111,-0.070,-0.078,116.301,2.820,1.043,0.153,1,1,3.850
1777577046933,-0.069,0.907,-0.514,0.096,-0.061,-0.065,116.611,2.914,1.045,0.131,1,1,3.261
1777577046946,-0.054,0.906,-0.510,0.085,-0.060,-0.070,116.873,2.918,1.040,0.125,1,1,3.249
1777577046959,-0.066,0.905,-0.521,0.072,-0.042,-0.054,117.165,2.986,1.047,0.099,1,1,3.265
1777577046973,-0.063,0.909,-0.505,0.056,-0.031,-0.045,117.343,3.032,1.042,0.078,1,1,3.254
1777577046986,-0.074,0.913,-0.511,0.041,-0.014,-0.029,117.524,3.129,1.049,0.052,1,1,3.836
1777577047000,-0.093,0.945,-0.510,0.035,0.006,-0.009,117.604,3.303,1.077,0.037,1,1,3.617
1777577047014,-0.057,0.927,-0.492,0.026,0.020,0.002,117.640,3.283,1.051,0.033,1,1,3.238
1777577047027,-0.072,0.939,-0.495,0.023,0.030,0.017,117.656,3.341,1.064,0.041,1,1,3.266
1777577047040,-0.075,0.977,-0.489,0.029,0.033,0.042,117.554,3.397,1.095,0.061,1,1,3.243
1777577047054,0.006,1.003,-0.476,0.071,0.032,0.032,117.347,3.042,1.111,0.084,1,1,3.862
1777577047068,0.038,0.986,-0.541,0.075,0.027,-0.012,117.482,2.568,1.126,0.081,1,1,3.251
1777577047081,-0.091,0.999,-0.519,0.141,0.037,-0.069,117.477,2.762,1.130,0.161,1,1,3.246
1777577047094,-0.180,1.171,-0.501,0.207,0.018,0.080,117.068,3.264,1.286,0.222,1,1,3.250
1777577047108,-0.093,0.988,-0.522,0.329,0.025,0.210,117.145,3.407,1.121,0.391,1,1,3.248
1777577047121,0.000,1.099,-0.487,0.372,0.015,0.271,116.836,3.082,1.202,0.461,1,1,3.821
1777577047135,-0.014,1.007,-0.534,0.434,0.016,0.264,116.941,2.856,1.140,0.509,1,1,3.250
1777577047148,-0.027,1.059,-0.534,0.493,0.023,0.226,116.923,2.707,1.186,0.543,1,1,3.258
1777577047162,-0.095,1.117,-0.561,0.548,0.037,0.165,116.899,2.863,1.254,0.573,1,1,3.253
1777577047175,-0.089,1.125,-0.534,0.646,0.052,0.127,116.758,2.978,1.249,0.661,1,1,3.253
1777577047189,-0.106,0.997,-0.557,0.683,0.047,0.157,116.991,3.198,1.147,0.703,1,1,4.040
1777577047203,-0.093,1.173,-0.556,0.760,0.075,0.141,116.836,3.284,1.301,0.777,1,1,3.514
1777577047216,-0.015,1.146,-0.562,0.877,0.070,0.133,116.768,3.038,1.277,0.890,1,1,3.251
1777577047229,0.077,1.243,-0.566,1.016,0.037,0.075,116.550,2.440,1.368,1.020,1,1,3.245
1777577047243,0.104,1.195,-0.548,1.153,-0.007,0.017,116.368,1.777,1.318,1.153,1,1,3.257
1777577047256,0.114,1.131,-0.562,1.274,-0.044,-0.035,116.373,1.118,1.268,1.275,4,4,3.811
1777577047270,0.043,1.018,-0.589,1.356,-0.090,-0.053,116.724,0.814,1.177,1.360,4,4,3.256
1777577047283,-0.056,0.994,-0.615,1.428,-0.082,-0.065,117.202,0.998,1.170,1.432,4,4,3.255
1777577047297,-0.059,1.164,-0.593,1.530,-0.078,-0.045,117.180,1.149,1.308,1.533,4,4,3.255
1777577047310,0.050,1.419,-0.570,1.740,-0.065,-0.117,116.675,0.863,1.530,1.745,4,4,3.484
1777577047324,0.120,1.461,-0.583,2.011,-0.106,-0.197,116.206,0.365,1.577,2.023,4,4,3.837
1777577047338,-0.034,1.623,-0.609,2.315,-0.110,-0.202,115.669,0.437,1.734,2.327,4,4,3.265
1777577047351,-0.155,2.107,-0.569,2.501,-0.047,-0.240,114.664,0.782,2.188,2.513,4,4,3.246
1777577047364,-0.232,1.907,-0.685,2.501,-0.030,-0.137,114.197,1.330,2.040,2.505,4,4,3.271
1777577047378,-0.185,1.750,-0.628,2.501,0.089,-0.144,113.772,1.745,1.869,2.507,4,4,3.250
1777577047391,-0.163,1.193,-0.740,2.501,0.222,-0.106,114.536,2.207,1.413,2.513,4,4,3.821
1777577047405,-0.110,0.865,-0.778,2.501,0.201,-0.131,116.197,2.510,1.168,2.513,4,4,3.369
1777577047418,-0.216,0.804,-0.819,2.501,0.279,0.061,118.037,3.286,1.168,2.518,4,4,3.236
1777577047432,-0.099,0.637,-0.851,2.501,0.332,0.519,120.428,3.481,1.068,2.576,4,4,3.259
1777577047445,-0.124,0.828,-0.673,2.501,0.317,1.053,121.254,3.781,1.074,2.732,4,4,3.236
1777577047458,-0.170,1.095,-0.535,2.501,0.253,1.566,120.757,4.176,1.231,2.962,4,4,3.840
1777577047472,0.080,0.492,-0.320,2.501,0.106,1.625,120.976,3.044,0.592,2.985,4,4,3.256
1777577047486,0.968,-1.747,0.350,2.058,-0.306,0.933,101.985,0.043,2.028,2.280,4,4,3.256
1777577047499,0.105,-1.206,-0.653,1.077,-0.272,0.461,81.018,-0.380,1.376,1.203,4,4,3.253
1777577047512,-0.416,-0.772,-0.480,0.036,-0.186,-0.075,61.717,1.996,1.000,0.203,4,4,3.247
1777577047526,-0.282,-0.682,-0.155,-0.965,0.037,-0.688,46.067,3.897,0.754,1.186,4,4,3.843
1777577047540,-0.227,-0.392,-0.251,-1.813,0.173,-0.986,30.015,6.000,0.518,2.071,4,4,3.243
1777577047553,-0.213,-0.108,-0.214,-2.429,0.247,-0.930,12.594,9.384,0.320,2.612,4,4,3.430
1777577047566,-0.083,-0.015,-0.102,-2.501,0.240,-0.768,-4.913,12.185,0.133,2.627,4,4,3.248
1777577047580,0.029,0.049,-0.070,-2.501,0.120,-0.520,9.364,9.218,0.090,2.558,4,4,3.276
1777577047593,-0.039,0.257,-0.091,-2.501,-0.005,-0.099,18.891,9.107,0.275,2.503,4,4,3.886
1777577047608,0.009,0.466,-0.076,-2.501,-0.117,0.325,26.538,8.137,0.473,2.525,4,4,3.706
1777577047621,0.093,0.860,0.011,-2.501,-0.269,0.670,32.507,6.774,0.865,2.603,4,4,3.268
1777577047634,0.026,1.293,-0.176,-2.501,-0.392,1.005,38.714,6.022,1.305,2.724,4,4,3.256
1777577047648,-0.053,1.255,-0.373,-2.501,-0.499,1.030,45.168,5.669,1.310,2.751,4,4,3.278
1777577047661,-0.133,0.890,-0.471,-2.501,-0.598,0.708,52.087,5.845,1.016,2.667,4,4,3.885
1777577047675,-0.156,0.766,-0.469,-2.501,-0.704,0.124,58.690,6.229,0.912,2.601,4,4,3.518
1777577047689,-0.172,1.108,-0.539,-2.501,-0.804,-0.186,64.138,6.391,1.244,2.634,4,4,3.259
1777577047702,-0.142,1.200,-0.610,-2.501,-0.838,-0.168,69.163,6.356,1.354,2.643,4,4,3.267
1777577047715,-0.240,1.252,-0.710,-2.501,-0.763,0.071,73.957,6.653,1.460,2.616,4,4,3.265
1777577047729,-0.323,1.310,-0.800,-2.501,-0.566,0.223,78.471,7.151,1.568,2.574,5,5,3.885
1777577047743,-0.398,1.207,-0.862,-2.501,-0.274,0.176,82.948,7.900,1.536,2.523,5,5,3.276
1777577047756,-0.387,1.184,-0.852,-2.501,0.004,0.031,87.019,8.564,1.509,2.502,5,5,3.318
1777577047769,-0.322,1.374,-0.830,-2.501,0.225,-0.022,90.263,8.828,1.637,2.512,5,5,3.286
1777577047783,-0.260,1.490,-0.896,-2.501,0.390,0.069,93.188,8.799,1.757,2.532,5,5,3.265
1777577047796,-0.229,1.441,-0.957,-2.501,0.512,0.143,96.082,8.678,1.745,2.557,5,5,3.851
1777577047810,-0.230,1.378,-1.010,-2.501,0.648,0.122,98.950,8.582,1.724,2.587,5,5,3.272
1777577047824,-0.198,1.455,-1.025,-2.415,0.750,0.059,101.443,8.369,1.791,2.530,5,5,3.252
1777577047837,-0.094,1.559,-1.097,-2.153,0.777,0.004,103.698,7.843,1.909,2.289,5,5,3.256
1777577047850,0.018,1.455,-1.181,-1.873,0.745,-0.016,106.110,7.044,1.874,2.016,5,5,3.245
1777577047864,0.062,1.342,-1.217,-1.612,0.700,-0.015,108.593,6.189,1.813,1.758,1,1,3.905
1777577047878,0.014,1.220,-1.239,-1.311,0.696,0.019,111.147,5.557,1.739,1.484,1,1,3.249
1777577047891,0.123,1.084,-1.234,-1.020,0.658,0.064,113.767,4.620,1.647,1.216,1,1,3.269
1777577047904,0.264,1.100,-1.342,-0.680,0.495,0.150,116.324,3.359,1.755,0.854,1,1,3.252
1777577047918,0.203,1.007,-1.333,-0.309,0.301,0.165,118.853,2.381,1.683,0.462,1,1,3.251
1777577047931,0.084,0.958,-1.302,0.050,0.172,0.135,121.211,1.871,1.618,0.224,1,1,3.858
1777577047945,0.096,0.932,-1.215,0.381,0.061,-0.036,123.236,1.352,1.534,0.388,1,1,3.251
1777577047958,0.160,0.864,-1.136,0.618,-0.047,-0.198,125.093,0.615,1.436,0.651,1,1,3.285
1777577047972,0.221,0.937,-1.038,0.794,-0.154,-0.233,126.313,-0.299,1.416,0.841,1,1,3.260
1777577047985,1.018,4.000,4.000,1.887,-0.322,0.331,118.578,-1.241,5.748,1.943,1,1,3.278
1777577047998,0.603,-1.137,1.402,0.305,-0.330,0.149,103.583,-2.879,1.903,0.473,1,1,3.891
1777577048012,0.171,1.352,0.521,1.753,-0.505,-0.161,100.287,-3.246,1.458,1.831,1,1,3.322
1777577048026,-0.385,0.913,-0.293,1.837,-0.117,-0.099,101.003,-0.854,1.033,1.843,1,1,3.268
1777577048039,-0.119,0.913,-0.262,1.673,0.289,-0.023,101.477,-0.096,0.957,1.698,1,1,3.252
1777577048053,0.109,0.865,-0.352,1.554,0.120,-0.128,102.491,-0.722,0.940,1.564,1,1,3.257
1777577048066,-0.002,0.931,-0.404,1.436,0.039,-0.103,103.532,-0.642,1.015,1.440,1,1,3.899
1777577048080,-0.087,0.954,-0.449,1.294,0.010,0.015,104.645,-0.133,1.058,1.294,1,1,3.356
1777577048093,-0.122,0.955,-0.460,1.186,0.037,0.109,105.699,0.504,1.067,1.192,1,1,3.256
1777577048107,-0.074,0.918,-0.482,1.075,0.096,0.151,106.841,0.847,1.039,1.090,1,1,3.267
1777577048120,-0.053,0.884,-0.548,0.943,0.141,0.182,108.265,1.046,1.042,0.971,1,1,3.259
1777577048134,0.075,0.760,-0.641,0.763,0.117,0.158,110.346,0.537,0.998,0.787,1,1,3.886
1777577048148,-0.019,0.850,-0.534,0.604,0.122,0.109,111.468,0.588,1.004,0.626,1,1,3.262
1777577048161,-0.012,0.925,-0.448,0.547,0.139,0.108,111.883,0.597,1.028,0.574,1,1,3.268
1777577048174,0.018,0.918,-0.461,0.535,0.145,0.059,112.335,0.444,1.028,0.558,1,1,3.291
1777577048188,0.046,0.948,-0.434,0.527,0.140,0.029,112.552,0.163,1.043,0.546,1,1,3.261
1777577048201,0.072,0.981,-0.434,0.552,0.101,-0.059,112.676,-0.215,1.076,0.565,1,1,3.996
1777577048215,0.352,0.688,-0.676,0.242,-0.029,-0.226,114.752,-2.100,1.027,0.333,1,1,3.279
1777577048229,0.013,0.932,-0.467,0.201,-0.037,-0.201,114.928,-1.970,1.042,0.287,1,1,3.262
1777577048242,-0.073,0.880,-0.551,0.179,-0.049,-0.162,115.607,-1.401,1.041,0.246,1,1,3.258
1777577048255,-0.096,0.936,-0.501,0.141,-0.077,-0.108,115.849,-0.776,1.066,0.193,1,1,3.247
1777577048269,-0.092,0.958,-0.524,0.124,-0.040,-0.055,116.119,-0.245,1.096,0.142,1,1,3.905
1777577048283,-0.015,0.945,-0.520,0.125,-0.037,-0.042,116.377,-0.146,1.079,0.137,1,1,3.260
1777577048296,-0.000,0.922,-0.503,0.109,-0.040,-0.049,116.592,-0.130,1.050,0.126,1,1,3.275
1777577048309,-0.039,0.939,-0.519,0.095,-0.037,-0.031,116.814,0.082,1.074,0.107,1,1,3.262
1777577048323,-0.048,0.947,-0.512,0.092,-0.032,-0.008,116.963,0.316,1.077,0.097,1,1,3.523
1777577048336,-0.087,0.929,-0.521,0.072,-0.011,0.029,117.184,0.733,1.068,0.078,1,1,3.892
1777577048350,-0.068,0.957,-0.512,0.073,0.003,0.058,117.277,1.002,1.088,0.093,1,1,3.278
1777577048364,-0.007,0.925,-0.507,0.066,0.009,0.044,117.416,0.942,1.055,0.080,1,1,3.282
1777577048377,-0.022,0.929,-0.506,0.067,0.015,0.041,117.527,0.967,1.058,0.080,1,1,3.250
1777577048391,-0.025,0.898,-0.509,0.052,0.024,0.044,117.716,1.008,1.032,0.072,1,1,3.652
1777577048404,-0.041,0.916,-0.498,0.045,0.031,0.039,117.794,1.128,1.043,0.067,1,1,3.854
1777577048418,-0.067,0.938,-0.522,0.056,0.032,0.043,117.920,1.361,1.076,0.078,1,1,3.399
1777577048432,-0.061,0.907,-0.522,0.055,0.034,0.067,118.112,1.547,1.049,0.093,1,1,3.259
1777577048445,-0.020,0.944,-0.509,0.081,0.030,0.091,118.131,1.503,1.073,0.126,1,1,3.338
1777577048459,-0.023,0.938,-0.519,0.093,0.023,0.095,118.211,1.477,1.072,0.135,1,1,3.259
1777577048472,-0.061,0.890,-0.506,0.096,0.027,0.115,118.342,1.662,1.026,0.153,1,1,3.928
1777577048486,-0.034,0.992,-0.491,0.106,0.015,0.175,118.150,1.671,1.107,0.205,1,1,3.292
1777577048499,-0.068,0.976,-0.537,0.130,0.001,0.250,118.215,1.843,1.116,0.282,1,1,3.255
1777577048513,-0.020,0.975,-0.552,0.199,0.007,0.241,118.339,1.765,1.120,0.313,1,1,3.288
1777577048526,0.054,1.021,-0.506,0.248,-0.000,0.127,118.152,1.339,1.141,0.279,1,1,3.257
1777577048539,0.028,0.941,-0.541,0.261,-0.003,0.124,118.317,1.072,1.086,0.289,1,1,3.924
1777577048554,0.043,0.950,-0.531,0.287,-0.005,0.117,118.402,0.754,1.089,0.310,1,1,3.257
1777577048567,0.023,0.971,-0.549,0.312,-0.007,0.142,118.505,0.570,1.116,0.343,1,1,3.270
1777577048580,0.048,0.961,-0.550,0.342,-0.011,0.131,118.624,0.282,1.108,0.366,1,1,3.267
1777577048594,0.055,1.001,-0.548,0.383,-0.020,0.121,118.633,-0.009,1.142,0.402,1,1,3.262
1777577048607,0.025,1.019,-0.563,0.435,-0.016,0.089,118.661,-0.125,1.165,0.444,4,4,3.914
1777577048621,0.062,1.024,-0.561,0.487,-0.021,0.061,118.664,-0.403,1.169,0.492,4,4,3.309
1777577048634,-0.007,1.032,-0.602,0.534,-0.015,0.031,118.815,-0.334,1.195,0.535,4,4,3.272
1777577048648,-0.026,1.040,-0.591,0.573,-0.005,0.026,118.891,-0.185,1.196,0.573,4,4,3.257
1777577048661,-0.109,0.991,-0.605,0.620,0.016,0.063,119.131,0.341,1.167,0.624,4,4,3.266
1777577048675,-0.154,0.964,-0.608,0.645,0.039,0.111,119.426,1.042,1.150,0.656,4,4,3.892
1777577048689,-0.106,0.928,-0.634,0.670,0.052,0.163,119.893,1.454,1.129,0.691,4,4,3.367
1777577048702,-0.012,1.038,-0.614,0.722,0.061,0.185,119.962,1.372,1.206,0.748,4,4,3.286
1777577048716,0.070,1.051,-0.628,0.796,0.047,0.179,120.045,0.932,1.226,0.817,4,4,3.273
1777577048729,0.133,1.032,-0.612,0.876,0.027,0.163,120.105,0.242,1.208,0.892,4,4,3.275
1777577048742,0.110,1.026,-0.644,0.958,-0.003,0.124,120.298,-0.277,1.216,0.966,4,4,3.906
1777577048756,0.070,1.123,-0.646,1.071,-0.020,0.088,120.263,-0.545,1.297,1.075,4,4,3.276
1777577048770,0.093,1.128,-0.667,1.179,-0.039,0.082,120.294,-0.877,1.314,1.182,4,4,3.256
1777577048783,0.065,1.266,-0.669,1.343,-0.031,0.031,120.061,-1.041,1.433,1.344,4,4,3.262
1777577048796,0.125,1.372,-0.631,1.567,-0.035,-0.012,119.552,-1.393,1.515,1.567,4,4,3.264
1777577048810,0.100,1.366,-0.638,1.795,-0.064,-0.056,119.123,-1.621,1.511,1.797,4,4,3.854
1777577048824,0.123,1.455,-0.695,2.044,-0.038,-0.096,118.781,-1.883,1.617,2.046,4,4,3.404
1777577048837,0.053,1.793,-0.675,2.380,-0.030,-0.098,118.006,-1.853,1.917,2.382,4,4,3.251
1777577048851,0.149,1.573,-0.715,2.501,-0.073,-0.143,117.665,-2.146,1.734,2.506,4,4,3.274
1777577048864,0.198,1.724,-0.818,2.501,-0.117,-0.262,117.450,-2.506,1.918,2.518,4,4,3.249
1777577048877,0.260,1.694,-1.038,2.501,-0.166,-0.175,117.835,-2.975,2.004,2.513,4,4,3.853
1777577048891,0.237,1.229,-1.145,2.501,-0.210,0.302,119.276,-3.456,1.696,2.528,4,4,3.258
1777577048905,-0.026,1.444,-1.185,2.501,-0.213,0.347,120.236,-3.051,1.868,2.534,4,4,3.260
1777577048918,-0.015,1.831,-0.980,2.501,-0.147,0.799,120.040,-2.723,2.077,2.630,4,4,3.294
1777577048932,0.195,2.156,-0.663,2.501,-0.180,1.282,118.809,-2.934,2.265,2.817,4,4,3.263
1777577048945,0.278,1.898,-0.046,2.501,-0.317,1.528,116.201,-3.446,1.919,2.948,4,4,3.902
1777577048959,-0.260,-1.815,0.713,2.501,-0.233,0.916,98.626,-2.397,1.968,2.674,4,4,3.311
1777577048972,0.036,-0.534,-0.743,1.249,-0.101,0.458,75.521,-2.383,0.916,1.334,4,4,3.272
1777577048986,-0.272,0.359,-0.874,0.588,0.175,-0.125,83.337,-0.629,0.983,0.626,4,4,3.267
1777577048999,-0.021,0.069,-0.447,-0.058,0.342,-0.454,91.702,-0.319,0.452,0.572,4,4,3.261
1777577049012,0.008,0.501,-0.474,-0.451,0.412,-0.503,95.669,-0.350,0.690,0.792,4,4,3.920
1777577049026,0.055,0.570,-0.371,-0.635,0.396,-0.188,98.272,-0.760,0.683,0.772,4,4,3.259
1777577049040,0.149,0.366,-0.333,-0.832,0.325,0.178,101.509,-2.282,0.516,0.911,4,4,3.276
1777577049053,0.122,0.236,-0.297,-1.079,0.195,0.457,105.311,-3.761,0.399,1.188,4,4,3.259
1777577049067,-0.017,0.218,-0.249,-1.376,0.074,0.655,108.505,-3.126,0.331,1.526,4,4,3.281
1777577049080,-0.115,0.234,-0.217,-1.667,-0.042,0.655,110.819,-0.941,0.339,1.792,4,4,3.904
1777577049094,-0.190,0.274,-0.215,-1.946,-0.148,0.476,112.469,1.871,0.397,2.009,4,4,3.261
1777577049107,-0.249,0.342,-0.205,-2.180,-0.241,0.246,113.279,4.735,0.470,2.207,4,4,3.259
1777577049121,-0.310,0.429,-0.219,-2.373,-0.306,0.085,113.629,7.401,0.573,2.394,4,4,3.251
1777577049134,-0.322,0.478,-0.229,-2.501,-0.348,0.009,113.813,9.675,0.620,2.525,4,4,3.274
1777577049147,-0.285,0.560,-0.252,-2.501,-0.383,-0.047,113.855,11.124,0.677,2.531,4,4,3.842
1777577049161,-0.238,0.643,-0.282,-2.501,-0.428,-0.117,113.837,11.845,0.741,2.540,4,4,3.292
1777577049175,-0.176,0.731,-0.311,-2.501,-0.470,-0.162,113.759,11.905,0.813,2.550,4,4,3.250
1777577049188,-0.135,0.807,-0.353,-2.501,-0.496,-0.145,113.748,11.598,0.891,2.554,4,4,3.263
1777577049202,-0.070,0.867,-0.385,-2.501,-0.514,-0.066,113.763,10.894,0.951,2.554,4,4,3.260
1777577049215,-0.043,0.917,-0.397,-2.501,-0.507,0.054,113.731,10.093,1.000,2.553,5,5,3.917
1777577049229,-0.065,1.121,-0.457,-2.501,-0.462,0.161,113.582,9.425,1.212,2.549,5,5,3.269
1777577049242,-0.087,1.197,-0.555,-2.501,-0.380,0.199,113.705,8.889,1.323,2.538,5,5,3.249
1777577049256,-0.150,1.243,-0.689,-2.501,-0.230,0.196,114.210,8.616,1.429,2.520,5,5,3.260
1777577049269,-0.189,1.245,-0.855,-2.501,-0.029,0.194,115.189,8.475,1.522,2.509,5,5,3.248
1777577049282,-0.167,1.296,-1.097,-2.501,0.196,0.188,116.622,8.204,1.707,2.516,5,5,3.890
1777577049296,-0.054,1.409,-1.400,-2.501,0.400,0.182,118.353,7.573,1.987,2.540,5,5,3.255
1777577049310,0.073,1.543,-1.692,-2.501,0.511,0.276,120.188,6.678,2.291,2.568,5,5,3.262
1777577049323,0.273,1.690,-1.936,-2.501,0.464,0.441,121.965,5.465,2.584,2.582,5,5,3.267
1777577049336,0.298,1.630,-2.106,-2.501,0.355,0.604,123.895,4.337,2.680,2.598,5,5,3.253
1777577049350,0.237,1.468,-2.302,-2.299,0.252,0.699,126.138,3.453,2.741,2.416,5,5,3.932
1777577049364,0.087,1.140,-2.484,-1.881,0.217,0.620,128.918,2.952,2.735,1.993,5,5,3.255
1777577049377,-0.075,0.932,-2.521,-1.470,0.288,0.421,131.848,2.823,2.689,1.556,5,5,3.262
1777577049391,-0.069,0.898,-2.495,-0.939,0.382,0.227,134.545,2.696,2.653,1.039,5,5,3.279
1777577049404,-1.769,-0.374,-3.519,0.353,0.543,-0.791,105.202,4.966,3.957,1.022,5,5,3.273
1777577049417,0.667,1.741,-2.781,1.849,-0.190,-1.692,109.269,3.400,3.348,2.514,5,5,3.868
1777577049431,-2.370,1.228,-0.276,1.440,0.419,-0.690,108.643,8.978,2.684,1.651,5,5,3.260
1777577049445,-0.236,1.420,0.462,1.586,0.244,-0.442,105.154,8.979,1.512,1.665,5,5,3.261
1777577049458,-0.017,1.055,-0.199,1.973,-0.083,-0.542,104.731,8.209,1.074,2.048,5,5,3.254
1777577049471,-0.593,0.947,-0.551,1.846,0.097,-0.260,106.203,10.132,1.246,1.867,5,5,3.262
1777577049485,-0.157,0.957,-0.489,1.712,0.160,-0.121,107.235,9.961,1.086,1.724,1,1,3.852
1777577049499,-0.201,0.860,-0.609,1.489,0.165,0.018,108.955,10.039,1.073,1.498,1,1,3.263
1777577049512,0.007,0.496,-1.024,1.205,0.147,0.046,113.253,9.050,1.138,1.215,1,1,3.317
1777577049526,-0.087,0.748,-0.727,0.909,0.145,0.051,115.242,8.645,1.046,0.922,1,1,3.402
1777577049539,-0.043,0.861,-0.573,0.630,0.145,0.043,116.040,8.049,1.035,0.648,1,1,3.415
1777577049552,-0.065,0.943,-0.494,0.566,0.161,0.055,116.195,7.614,1.067,0.591,1,1,3.851
1777577049566,0.345,0.823,-0.532,0.299,0.024,-0.010,116.829,5.045,1.039,0.300,1,1,3.262
1777577049580,0.169,0.953,-0.464,0.235,0.004,0.012,116.746,3.703,1.073,0.235,1,1,3.250
1777577049593,0.070,0.933,-0.490,0.194,-0.075,-0.067,116.839,2.989,1.056,0.218,1,1,3.284
1777577049607,-0.040,0.913,-0.505,0.153,-0.075,-0.062,117.039,2.913,1.044,0.181,1,1,3.244
1777577049620,-0.109,0.925,-0.498,0.117,-0.058,-0.031,117.158,3.198,1.056,0.134,1,1,3.860
1777577049634,-0.133,0.971,-0.479,0.105,-0.003,0.038,117.070,3.562,1.091,0.112,1,1,3.251
1777577049647,-0.082,0.981,-0.467,0.118,0.037,0.078,116.919,3.635,1.089,0.146,1,1,3.288
1777577049661,-0.029,0.945,-0.505,0.117,0.053,0.073,117.033,3.438,1.072,0.147,1,1,3.262
1777577049674,-0.016,0.938,-0.504,0.116,0.046,0.054,117.152,3.192,1.065,0.136,1,1,3.248
1777577049687,-0.039,0.916,-0.504,0.102,0.034,0.038,117.313,3.090,1.046,0.114,1,1,3.891
1777577049701,0.024,0.921,-0.506,0.096,0.021,0.003,117.452,2.670,1.051,0.098,1,1,3.259
1777577049715,-0.011,0.911,-0.514,0.080,0.006,-0.020,117.641,2.475,1.046,0.083,1,1,3.372
1777577049728,0.014,0.925,-0.502,0.077,-0.010,-0.048,117.725,2.167,1.052,0.091,1,1,3.265
1777577049742,-0.051,0.906,-0.509,0.064,-0.008,-0.027,117.875,2.226,1.041,0.070,1,1,3.398
1777577049755,-0.026,0.940,-0.491,0.060,-0.015,-0.025,117.848,2.146,1.061,0.067,1,1,3.898
1777577049769,-0.036,0.905,-0.505,0.053,-0.014,-0.022,117.975,2.130,1.037,0.059,1,1,3.253
1777577049782,-0.028,0.882,-0.524,0.035,-0.006,-0.026,118.235,2.078,1.026,0.044,1,1,3.279
1777577049796,-0.033,0.898,-0.507,0.035,-0.006,-0.018,118.348,2.053,1.032,0.040,1,1,3.313
1777577049809,-0.033,0.920,-0.496,0.028,-0.009,-0.006,118.347,2.032,1.046,0.030,1,1,3.268
1777577049823,-0.038,0.950,-0.490,0.069,-0.024,0.006,118.246,2.032,1.069,0.073,1,1,3.857
1777577049837,-0.040,0.936,-0.490,0.071,-0.024,0.017,118.188,2.045,1.057,0.077,1,1,3.263
1777577049850,-0.024,0.945,-0.490,0.074,-0.040,0.012,118.115,1.972,1.065,0.084,1,1,3.260
1777577049863,0.036,0.991,-0.514,0.095,-0.057,-0.017,118.051,1.608,1.117,0.112,1,1,3.240
1777577049877,-0.009,1.016,-0.515,0.160,-0.070,-0.058,117.939,1.496,1.139,0.184,1,1,3.263
1777577049890,-0.144,1.065,-0.511,0.222,-0.058,0.004,117.722,2.016,1.190,0.230,1,1,3.858
1777577049904,-0.030,0.962,-0.523,0.265,-0.040,0.050,117.800,1.974,1.096,0.272,1,1,3.401
1777577049918,-0.049,0.997,-0.509,0.300,-0.028,0.073,117.728,2.023,1.120,0.310,1,1,3.259
1777577049931,0.002,0.969,-0.525,0.333,-0.023,0.105,117.796,1.823,1.102,0.349,1,1,3.260
1777577049944,-0.047,0.936,-0.549,0.364,-0.023,0.102,118.043,1.887,1.086,0.378,1,1,3.377
1777577049958,-0.108,0.917,-0.558,0.370,-0.003,0.097,118.354,2.252,1.079,0.383,4,4,3.850
1777577049972,-0.120,0.944,-0.552,0.375,0.021,0.105,118.539,2.636,1.100,0.390,4,4,3.496
1777577049985,-0.092,0.974,-0.551,0.389,0.052,0.115,118.632,2.833,1.123,0.408,4,4,3.280
1777577049999,-0.023,1.071,-0.569,0.439,0.063,0.090,118.571,2.669,1.213,0.452,4,4,3.280
1777577050012,0.011,1.201,-0.559,0.543,0.051,0.066,118.229,2.371,1.325,0.549,4,4,3.255
1777577050026,-0.011,1.237,-0.579,0.657,0.054,0.037,117.929,2.189,1.366,0.660,4,4,3.875
1777577050039,-0.004,1.258,-0.594,0.792,0.043,0.019,117.677,1.998,1.391,0.793,4,4,3.258
1777577050053,-0.003,1.355,-0.584,0.949,0.028,-0.016,117.263,1.821,1.476,0.950,4,4,3.254
1777577050066,-0.001,1.389,-0.567,1.112,0.007,-0.023,116.784,1.650,1.500,1.112,4,4,3.269
1777577050080,-0.044,1.482,-0.564,1.317,-0.016,-0.024,116.218,1.646,1.587,1.317,4,4,3.245
1777577050093,0.036,1.627,-0.526,1.580,-0.048,-0.027,115.427,1.375,1.710,1.581,4,4,3.915
1777577050107,0.012,1.694,-0.496,1.905,-0.101,-0.016,114.560,1.208,1.765,1.908,4,4,3.256
1777577050121,0.013,1.815,-0.435,2.261,-0.101,-0.082,113.505,1.055,1.867,2.265,4,4,3.286
1777577050134,0.130,1.930,-0.409,2.501,-0.108,-0.132,112.408,0.595,1.977,2.507,4,4,3.257
1777577050147,-0.106,2.243,-0.451,2.501,-0.099,-0.157,111.358,0.792,2.290,2.508,4,4,3.419
1777577050161,-0.119,2.314,-0.612,2.501,-0.037,-0.154,110.735,0.987,2.396,2.506,4,4,3.849
1777577050175,0.031,2.031,-0.789,2.501,0.025,-0.219,110.781,0.816,2.179,2.511,4,4,3.252
1777577050188,-0.005,1.552,-0.847,2.501,0.040,-0.129,111.527,0.753,1.768,2.505,4,4,3.275
1777577050202,0.064,1.815,-0.859,2.501,0.041,-0.298,111.888,0.508,2.009,2.519,4,4,3.248
1777577050215,0.161,1.815,-0.582,2.501,0.016,0.133,111.496,0.000,1.913,2.505,4,4,3.302
1777577050228,0.283,1.744,-0.095,2.501,-0.145,0.524,109.747,-0.875,1.769,2.560,4,4,3.847
1777577050242,0.319,1.908,0.440,2.501,-0.337,0.530,106.633,-1.673,1.984,2.579,4,4,3.264
1777577050256,0.355,0.313,0.260,2.501,-0.463,0.078,101.275,-5.426,0.540,2.545,4,4,3.252
1777577050269,0.197,-0.857,-0.203,2.501,-0.567,-0.363,81.814,-6.107,0.902,2.590,4,4,3.258
1777577050282,-0.058,-0.513,-0.382,1.583,-0.524,-0.565,61.987,-5.034,0.642,1.761,4,4,3.273
1777577050296,-0.313,-0.733,-0.237,0.378,-0.291,-0.643,45.827,-2.450,0.832,0.800,4,4,3.865
1777577050310,-0.284,-0.444,-0.083,-0.735,-0.013,-0.483,31.894,0.844,0.534,0.880,4,4,3.265
1777577050323,-0.276,-0.028,-0.089,-1.488,0.229,-0.256,13.392,7.552,0.291,1.527,4,4,3.260
1777577050337,-0.155,0.226,-0.005,-1.947,0.416,-0.176,20.809,10.110,0.275,1.999,4,4,3.294
1777577050350,-0.151,0.152,-0.001,-2.287,0.540,-0.183,27.425,13.407,0.214,2.357,4,4,3.424
1777577050363,-0.176,0.111,-0.049,-2.501,0.623,-0.143,35.664,17.402,0.213,2.582,4,4,3.852
1777577050377,-0.098,0.083,-0.056,-2.501,0.630,-0.192,44.085,19.959,0.140,2.587,4,4,3.257
1777577050391,0.073,0.199,-0.054,-2.501,0.515,-0.380,49.909,16.201,0.219,2.582,4,4,3.250
1777577050404,0.111,0.417,-0.075,-2.501,0.323,-0.543,54.694,13.264,0.438,2.580,4,4,3.292
1777577050417,0.204,0.589,-0.105,-2.501,0.112,-0.597,59.018,10.213,0.632,2.574,4,4,3.250
1777577050431,0.300,0.773,-0.182,-2.501,-0.120,-0.438,63.226,7.271,0.849,2.542,4,4,3.952
1777577050445,0.240,0.872,-0.283,-2.501,-0.306,-0.075,67.483,5.183,0.948,2.521,4,4,3.257
1777577050458,0.250,0.930,-0.353,-2.501,-0.428,0.166,71.600,3.346,1.026,2.543,4,4,3.266
1777577050472,0.220,0.956,-0.434,-2.501,-0.525,0.220,75.673,1.904,1.073,2.565,4,4,3.248
1777577050485,0.194,1.051,-0.461,-2.501,-0.593,0.156,79.288,0.809,1.164,2.576,4,4,3.263
1777577050498,0.156,1.187,-0.498,-2.501,-0.601,0.036,82.474,0.074,1.296,2.573,5,5,3.847
1777577050512,0.123,1.401,-0.624,-2.501,-0.553,-0.012,85.472,-0.370,1.538,2.562,5,5,3.262
1777577050526,0.101,1.432,-0.756,-2.501,-0.444,0.047,88.552,-0.676,1.622,2.541,5,5,3.269
1777577050539,0.112,1.439,-0.885,-2.501,-0.280,0.128,91.696,-0.971,1.694,2.520,5,5,3.251
1777577050553,0.148,1.525,-1.048,-2.501,-0.070,0.252,94.817,-1.313,1.856,2.515,5,5,3.590
1777577050566,0.183,1.740,-1.263,-2.501,0.127,0.482,97.780,-1.652,2.157,2.551,5,5,3.893
1777577050580,0.246,1.956,-1.604,-2.501,0.244,0.820,100.784,-2.023,2.541,2.644,5,5,3.268
1777577050593,0.152,1.965,-1.903,-2.501,0.312,1.124,103.952,-2.132,2.740,2.760,5,5,3.261
1777577050607,-0.173,1.915,-2.237,-2.501,0.380,1.286,107.328,-1.609,2.950,2.838,5,5,3.272
1777577050620,-0.587,1.722,-2.525,-2.471,0.529,1.153,110.978,-0.421,3.112,2.778,5,5,3.282
1777577050634,-0.219,1.299,-2.726,-1.783,0.448,0.424,115.121,0.014,3.027,1.886,1,1,3.934
1777577050648,-0.014,0.788,-2.988,-1.234,0.113,-0.107,119.887,0.038,3.090,1.244,1,1,3.279
1777577050661,-0.072,0.737,-3.025,-0.552,-0.168,-0.333,124.302,0.160,3.114,0.666,1,1,3.263
1777577050674,-0.538,0.696,-2.919,0.210,-0.155,-0.043,128.325,1.113,3.048,0.264,1,1,3.278
1777577050688,-0.091,4.000,-1.204,2.501,-0.502,-0.865,126.273,1.126,4.178,2.694,1,1,3.257
1777577050701,-0.509,1.527,0.126,1.872,0.210,-0.875,122.372,2.766,1.614,2.077,5,5,3.996
1777577050715,0.463,1.131,0.352,2.501,-0.169,-0.879,117.649,0.472,1.271,2.657,5,5,3.280
1777577050729,-0.274,0.910,-0.341,2.501,-0.169,-0.801,116.975,1.924,1.009,2.632,5,5,3.276
1777577050742,-0.238,0.805,-0.646,2.501,-0.147,-0.510,118.097,2.977,1.059,2.557,5,5,3.269
1777577050755,-0.284,0.774,-0.651,2.244,-0.115,-0.272,119.234,4.188,1.051,2.263,5,5,3.303
1777577050769,-0.402,0.851,-0.568,2.015,0.075,0.016,119.661,5.828,1.099,2.017,1,1,3.940
1777577050783,0.039,0.741,-0.741,1.767,0.203,0.001,121.120,5.071,1.048,1.779,1,1,3.264
1777577050796,0.081,0.689,-0.783,1.267,0.122,-0.067,122.789,4.165,1.046,1.274,1,1,3.290
1777577050810,-0.067,0.837,-0.526,0.944,0.154,-0.066,122.727,4.139,0.990,0.959,1,1,3.267
1777577050823,-0.045,0.899,-0.506,0.745,0.127,-0.095,122.408,3.985,1.033,0.762,1,1,3.275
1777577050836,0.230,0.922,-0.497,0.442,-0.076,-0.127,122.020,2.426,1.073,0.466,1,1,3.937
1777577050850,0.063,0.857,-0.540,0.273,-0.076,-0.120,122.037,1.858,1.014,0.308,1,1,3.269
1777577050864,-0.102,0.903,-0.512,0.211,-0.137,-0.122,121.804,2.214,1.043,0.279,1,1,3.334
1777577050877,-0.068,0.908,-0.508,0.120,-0.123,-0.095,121.557,2.360,1.042,0.197,1,1,3.264
1777577050891,-0.163,0.924,-0.506,0.082,-0.104,-0.028,121.287,2.971,1.066,0.136,1,1,3.271
1777577050904,-0.146,0.952,-0.491,0.066,-0.033,0.039,120.907,3.430,1.081,0.084,1,1,3.925
1777577050918,-0.146,0.965,-0.494,0.069,0.008,0.097,120.546,3.833,1.094,0.119,1,1,3.275
1777577050932,-0.107,0.939,-0.498,0.063,0.050,0.138,120.298,4.013,1.069,0.160,1,1,3.273
1777577050945,-0.078,0.960,-0.519,0.079,0.085,0.156,120.116,4.022,1.094,0.194,1,1,3.257
1777577050958,-0.045,0.935,-0.507,0.080,0.084,0.142,119.960,3.871,1.065,0.183,1,1,3.280
1777577050972,-0.027,0.910,-0.502,0.078,0.077,0.127,119.860,3.646,1.039,0.167,1,1,3.879
1777577050986,-0.047,0.916,-0.485,0.077,0.073,0.117,119.674,3.547,1.038,0.158,1,1,3.256
1777577050999,-0.024,0.886,-0.502,0.062,0.063,0.110,119.663,3.339,1.019,0.141,1,1,3.251
1777577051013,0.012,0.908,-0.489,0.050,0.047,0.067,119.534,2.959,1.032,0.096,1,1,3.384
1777577051026,0.041,0.896,-0.488,0.033,0.019,0.012,119.441,2.460,1.021,0.040,1,1,3.261
1777577051040,0.010,0.928,-0.476,0.037,-0.014,-0.025,119.223,2.175,1.043,0.047,1,1,4.548
1777577051054,-0.003,0.907,-0.491,0.036,-0.040,-0.046,119.146,1.986,1.031,0.071,1,1,3.258
1777577051068,-0.007,0.908,-0.503,0.050,-0.056,-0.069,119.131,1.833,1.038,0.102,1,1,3.286
1777577051081,-0.048,0.909,-0.498,0.050,-0.053,-0.067,119.089,1.909,1.038,0.099,1,1,3.270
1777577051094,-0.084,0.902,-0.517,0.056,-0.046,-0.053,119.157,2.169,1.043,0.090,1,1,3.261
1777577051108,-0.065,0.952,-0.495,0.063,-0.028,-0.049,118.997,2.291,1.075,0.085,1,1,3.913
1777577051122,-0.067,0.922,-0.497,0.066,-0.015,-0.040,118.935,2.422,1.050,0.079,1,1,3.261
1777577051137,-0.060,0.924,-0.510,0.061,-0.001,-0.006,118.933,2.501,1.057,0.062,1,1,3.302
1777577051151,-0.019,0.968,-0.513,0.074,0.005,-0.017,118.838,2.356,1.095,0.076,1,1,3.268
1777577051165,-0.006,0.993,-0.500,0.086,0.014,-0.034,118.636,2.159,1.112,0.094,1,1,3.720
1777577051178,-0.093,0.974,-0.508,0.095,0.036,-0.014,118.531,2.413,1.102,0.103,1,1,3.904
1777577051192,-0.106,0.994,-0.486,0.115,0.048,0.041,118.295,2.704,1.111,0.132,1,1,3.252
1777577051205,-0.193,1.125,-0.520,0.180,0.047,0.154,117.963,3.290,1.255,0.242,1,1,3.271
1777577051219,-0.186,0.965,-0.543,0.333,0.093,0.239,118.097,3.882,1.123,0.420,1,1,3.285
1777577051232,-0.064,1.042,-0.531,0.336,0.087,0.262,117.995,3.811,1.171,0.435,1,1,3.279
1777577051245,-0.035,1.046,-0.537,0.395,0.094,0.296,117.919,3.610,1.176,0.502,5,5,3.931
1777577051262,0.002,1.086,-0.519,0.482,0.098,0.255,117.691,3.255,1.203,0.555,5,5,3.310
1777577051275,-0.022,1.181,-0.532,0.569,0.091,0.206,117.366,3.038,1.296,0.611,5,5,3.265
1777577051288,-0.013,1.269,-0.568,0.688,0.091,0.160,117.057,2.800,1.391,0.713,5,5,3.261
1777577051302,0.014,1.344,-0.539,0.831,0.091,0.096,116.560,2.482,1.448,0.841,5,5,3.270
1777577051315,0.000,1.305,-0.533,0.985,0.070,0.083,116.146,2.246,1.410,0.991,4,4,3.929
1777577051329,0.019,1.341,-0.562,1.139,0.058,0.042,115.820,1.962,1.454,1.141,4,4,3.281
1777577051343,0.068,1.447,-0.531,1.341,0.004,0.039,115.280,1.535,1.543,1.342,4,4,3.263
1777577051356,0.002,1.499,-0.512,1.559,-0.034,0.049,114.669,1.383,1.584,1.560,4,4,3.329
1777577051369,-0.041,1.597,-0.481,1.833,-0.046,0.055,113.916,1.387,1.669,1.835,4,4,3.265
1777577051383,0.082,1.594,-0.441,2.110,-0.039,0.014,113.112,0.984,1.656,2.110,4,4,3.950
1777577051397,0.163,1.716,-0.403,2.499,-0.057,-0.035,112.170,0.387,1.770,2.500,4,4,3.264
1777577051410,0.105,1.852,-0.393,2.501,-0.081,-0.062,111.200,0.047,1.896,2.503,4,4,3.266
1777577051424,-0.166,2.055,-0.528,2.501,-0.020,-0.047,110.554,0.467,2.128,2.502,4,4,3.312
1777577051437,-0.112,2.426,-0.529,2.501,0.088,-0.048,109.770,0.668,2.486,2.503,4,4,3.263
1777577051450,-0.241,2.158,-0.783,2.501,0.159,0.027,109.787,1.174,2.308,2.506,4,4,3.942
1777577051464,-0.014,1.740,-0.851,2.501,0.211,0.280,110.383,1.103,1.937,2.526,4,4,3.281
1777577051478,-0.116,1.777,-0.863,2.501,0.245,0.268,110.907,1.317,1.979,2.528,4,4,3.275
1777577051491,0.109,1.818,-0.494,2.501,0.229,0.720,110.364,0.877,1.887,2.613,4,4,3.262
1777577051505,0.153,1.606,-0.059,2.501,0.088,1.363,108.627,0.275,1.614,2.850,4,4,3.280
1777577051518,0.248,1.736,0.384,2.501,-0.210,1.934,105.668,-0.506,1.796,3.169,4,4,3.932
1777577051532,0.308,1.151,0.103,2.501,-0.680,1.995,103.689,-1.878,1.196,3.271,4,4,3.264
1777577051545,0.207,-0.951,-0.195,2.501,-0.761,1.250,84.161,-2.841,0.993,2.898,4,4,3.293
1777577051559,-0.136,-1.246,-0.227,1.667,-0.809,0.529,66.612,-1.989,1.274,1.926,4,4,3.262
1777577051572,-0.551,-0.678,-0.323,0.550,-0.370,-0.521,49.293,1.650,0.931,0.844,4,4,3.286
1777577051586,-0.540,-0.527,-0.208,-0.513,0.044,-1.173,33.993,5.645,0.783,1.281,4,4,3.947
1777577051600,-0.316,-0.268,-0.080,-1.376,0.395,-1.483,20.618,9.729,0.422,2.062,4,4,3.276
1777577051613,-0.062,-0.142,-0.031,-2.085,0.496,-1.485,8.918,11.011,0.159,2.607,4,4,3.267
1777577051626,-0.012,-0.140,0.010,-2.501,0.470,-1.220,-0.113,10.445,0.141,2.822,4,4,3.265
1777577051640,0.172,-0.305,0.105,-2.501,0.286,-0.949,-6.862,6.784,0.366,2.690,4,4,3.265
1777577051653,0.269,-0.112,0.162,-2.501,-0.032,-0.673,-9.519,1.017,0.334,2.590,4,4,3.904
1777577051667,0.376,0.323,0.126,-2.501,-0.402,-0.438,-2.076,-3.584,0.512,2.571,4,4,3.328
1777577051680,0.250,0.559,0.082,-2.501,-0.698,-0.074,5.888,-5.513,0.617,2.598,4,4,3.257
1777577051694,0.170,1.026,-0.070,-2.501,-0.845,0.344,14.261,-5.882,1.043,2.662,4,4,3.277
1777577051707,0.123,0.987,-0.230,-2.501,-0.892,0.624,22.715,-5.982,1.021,2.728,4,4,3.258
1777577051721,0.093,0.788,-0.333,-2.501,-0.930,0.568,31.299,-6.005,0.860,2.728,5,5,3.986
1777577051735,-0.043,0.664,-0.345,-2.501,-0.926,0.356,39.492,-5.120,0.749,2.691,5,5,3.274
1777577051748,-0.130,0.777,-0.353,-2.501,-0.873,0.171,46.620,-3.809,0.863,2.655,5,5,3.263
1777577051761,-0.187,1.003,-0.376,-2.501,-0.756,0.085,52.703,-2.506,1.088,2.615,5,5,3.275
1777577051775,-0.179,1.307,-0.458,-2.501,-0.575,0.182,58.090,-1.567,1.396,2.573,5,5,3.268
1777577051788,-0.179,1.565,-0.650,-2.501,-0.334,0.393,63.270,-0.843,1.704,2.554,5,5,3.944
1777577051802,-0.119,1.454,-0.792,-2.501,-0.055,0.482,68.530,-0.373,1.660,2.548,5,5,3.256
1777577051816,-0.070,1.402,-0.918,-2.501,0.211,0.426,73.734,-0.109,1.677,2.546,5,5,3.284
1777577051829,0.069,1.422,-1.013,-2.501,0.427,0.325,78.656,-0.314,1.747,2.558,5,5,3.287
1777577051842,0.195,1.613,-1.152,-2.501,0.566,0.410,83.115,-0.818,1.992,2.597,5,5,3.267
1777577051856,0.215,1.953,-1.383,-2.501,0.635,0.817,87.129,-1.229,2.403,2.707,5,5,3.936
1777577051870,0.036,2.097,-1.698,-2.501,0.726,1.302,91.112,-1.184,2.699,2.912,5,5,3.286
1777577051883,-0.336,2.020,-2.022,-2.501,0.878,1.459,95.290,-0.433,2.877,3.026,5,5,3.276
1777577051897,-0.789,1.831,-2.326,-2.441,1.128,1.121,99.714,1.027,3.063,2.913,5,5,3.256
1777577051910,-0.223,1.551,-2.350,-1.818,1.310,-0.009,104.171,1.360,2.824,2.241,5,5,3.288
1777577051923,0.215,0.988,-2.875,-1.314,0.966,-0.443,109.581,0.847,3.048,1.690,1,1,3.933
1777577051937,0.371,0.963,-2.999,-0.530,0.531,-0.245,114.585,0.127,3.171,0.789,1,1,3.316
1777577051951,-0.260,0.740,-2.972,0.224,0.341,0.495,119.478,0.576,3.074,0.642,1,1,3.270
1777577051964,-3.232,-3.464,-0.583,1.503,0.707,-0.535,98.642,4.575,4.773,1.744,1,1,3.260
1777577051978,0.661,1.926,0.841,2.034,0.031,-0.582,95.577,2.479,2.203,2.116,1,1,3.288
1777577051991,0.422,1.060,0.186,2.501,-0.407,-0.826,94.102,0.206,1.156,2.666,1,1,3.919
1777577052005,-0.228,0.784,-0.244,2.501,-0.233,-0.705,95.358,1.662,0.852,2.609,1,1,3.281
1777577052018,0.020,0.836,-0.470,2.501,-0.315,-0.653,97.642,1.389,0.960,2.604,1,1,3.263
1777577052032,-0.332,0.884,-0.605,2.251,-0.202,-0.532,100.186,2.892,1.122,2.322,1,1,3.283
1777577052045,-0.360,0.921,-0.525,2.051,-0.098,-0.331,102.043,4.401,1.119,2.079,1,1,3.269
1777577052058,-0.198,0.844,-0.568,1.850,-0.007,-0.245,104.126,5.027,1.037,1.866,1,1,3.950
1777577052073,-0.231,0.528,-1.011,1.535,0.196,-0.125,108.722,5.636,1.163,1.553,1,1,3.337
1777577052086,-0.093,0.745,-0.654,1.153,0.076,-0.130,110.870,5.609,0.996,1.163,1,1,3.260
1777577052099,-0.068,0.781,-0.593,0.830,0.132,-0.089,112.424,5.450,0.983,0.845,1,1,3.284
1777577052113,-0.119,0.843,-0.524,0.696,0.092,-0.075,113.322,5.581,0.999,0.706,1,1,3.264
1777577052126,-0.257,0.863,-0.517,0.420,-0.026,-0.032,114.045,6.412,1.038,0.422,1,1,3.976
1777577052140,-0.185,0.846,-0.606,0.129,-0.026,0.050,115.146,6.763,1.057,0.141,1,1,3.275
1777577052154,-0.203,0.956,-0.495,0.060,0.013,0.164,115.359,7.135,1.096,0.176,1,1,3.287
1777577052167,-0.161,0.942,-0.472,0.011,0.029,0.244,115.481,7.284,1.066,0.246,1,1,3.270
1777577052180,-0.104,0.971,-0.455,0.032,0.057,0.276,115.447,7.117,1.077,0.284,1,1,3.270
1777577052194,-0.089,0.992,-0.459,0.047,0.072,0.291,115.389,6.882,1.097,0.303,1,1,3.943
1777577052208,-0.112,0.924,-0.519,0.035,0.106,0.326,115.760,6.802,1.066,0.344,1,1,3.269
1777577052221,-0.133,0.947,-0.492,0.030,0.137,0.387,115.919,6.829,1.076,0.412,1,1,3.277
1777577052235,-0.094,0.925,-0.479,0.017,0.155,0.418,116.058,6.669,1.046,0.446,1,1,3.265
1777577052248,-0.050,0.873,-0.478,0.013,0.151,0.432,116.307,6.307,0.996,0.457,1,1,3.281
1777577052261,0.053,0.896,-0.459,0.022,0.131,0.376,116.388,5.419,1.008,0.399,1,1,3.936
1777577052275,0.175,0.956,-0.425,0.076,0.096,0.240,116.160,3.999,1.061,0.269,1,1,3.394
1777577052289,0.223,0.961,-0.445,0.124,0.059,0.044,116.033,2.488,1.083,0.144,1,1,3.274
1777577052302,0.176,0.927,-0.468,0.147,0.021,-0.143,116.102,1.335,1.054,0.206,1,1,3.257
1777577052316,0.099,0.925,-0.480,0.148,0.000,-0.249,116.229,0.691,1.047,0.289,1,1,3.269
1777577052329,-0.026,0.916,-0.497,0.131,-0.005,-0.258,116.446,0.762,1.042,0.290,1,1,3.941
1777577052343,-0.100,0.923,-0.512,0.115,-0.001,-0.197,116.689,1.204,1.060,0.228,1,1,3.305
1777577052356,-0.118,0.920,-0.517,0.096,0.016,-0.122,116.940,1.696,1.062,0.156,1,1,3.276
1777577052370,-0.086,0.911,-0.512,0.077,0.034,-0.067,117.168,1.983,1.048,0.108,1,1,3.276
1777577052383,-0.056,0.932,-0.498,0.066,0.045,-0.030,117.255,2.084,1.058,0.086,1,1,3.274
1777577052397,-0.018,0.945,-0.496,0.059,0.049,-0.020,117.298,1.979,1.068,0.079,1,1,3.938
1777577052411,0.079,0.899,-0.514,0.028,0.058,-0.098,117.534,1.375,1.039,0.117,1,1,3.264
1777577052424,0.044,0.907,-0.515,0.044,0.014,-0.116,117.732,1.012,1.044,0.125,1,1,3.259
1777577052437,0.047,0.974,-0.477,0.055,-0.044,-0.128,117.575,0.682,1.085,0.146,1,1,3.291
1777577052451,0.023,0.996,-0.464,0.087,-0.090,-0.120,117.330,0.502,1.099,0.174,1,1,3.264
1777577052464,-0.023,0.935,-0.480,0.113,-0.120,-0.054,117.317,0.576,1.052,0.174,4,4,3.962
1777577052478,-0.019,1.049,-0.497,0.161,-0.136,-0.005,117.129,0.608,1.161,0.211,4,4,3.301
1777577052492,-0.031,1.263,-0.452,0.314,-0.122,-0.057,116.422,0.678,1.342,0.342,4,4,3.297
1777577052505,-0.097,1.057,-0.488,0.444,-0.077,-0.028,116.266,1.065,1.168,0.451,4,4,3.278
1777577052518,-0.028,1.033,-0.524,0.455,-0.076,0.015,116.327,1.095,1.159,0.462,4,4,3.263
1777577052532,-0.063,0.938,-0.565,0.488,-0.068,0.057,116.780,1.305,1.097,0.496,4,4,3.936
1777577052546,-0.168,1.033,-0.492,0.494,-0.044,0.085,116.654,1.975,1.157,0.504,4,4,3.273
1777577052559,-0.111,0.971,-0.561,0.505,-0.006,0.052,116.974,2.325,1.127,0.507,4,4,3.286
1777577052573,-0.078,0.958,-0.594,0.520,0.022,0.044,117.430,2.482,1.130,0.522,4,4,3.270
1777577052586,-0.044,1.084,-0.566,0.582,0.045,0.008,117.444,2.443,1.224,0.584,4,4,3.280
1777577052599,-0.037,1.072,-0.577,0.630,0.060,-0.005,117.526,2.378,1.218,0.633,4,4,3.922
1777577052613,-0.092,1.114,-0.597,0.717,0.079,0.010,117.589,2.546,1.267,0.721,4,4,3.273
1777577052627,-0.027,1.112,-0.583,0.790,0.065,0.008,117.597,2.421,1.255,0.793,4,4,3.271
1777577052640,-0.032,1.173,-0.604,0.898,0.065,0.017,117.562,2.322,1.320,0.901,4,4,3.268
1777577052653,-0.060,1.185,-0.617,0.992,0.021,0.043,117.558,2.344,1.337,0.994,4,4,3.278
1777577052667,-0.152,1.290,-0.589,1.127,0.039,0.068,117.273,2.703,1.426,1.130,1,1,3.940
1777577052681,-0.074,1.275,-0.556,1.294,-0.009,0.102,116.921,2.735,1.393,1.298,1,1,3.352
1777577052694,-0.106,1.366,-0.585,1.481,-0.019,0.133,116.567,2.865,1.490,1.487,1,1,3.263
1777577052708,-0.072,1.359,-0.559,1.690,-0.011,0.131,116.167,2.860,1.472,1.695,1,1,3.284
1777577052721,0.036,1.450,-0.506,1.951,-0.009,0.081,115.508,2.461,1.536,1.953,1,1,3.270
1777577052734,0.232,1.605,-0.479,2.290,-0.066,-0.029,114.663,1.477,1.691,2.291,4,4,3.925
1777577052749,0.100,1.779,-0.487,2.501,-0.089,-0.081,113.772,1.043,1.847,2.504,4,4,3.274
1777577052762,-0.040,2.022,-0.552,2.501,-0.036,-0.061,112.964,1.048,2.097,2.502,4,4,3.269
1777577052775,-0.103,2.224,-0.676,2.501,0.057,0.007,112.389,1.189,2.326,2.502,4,4,3.290
1777577052789,-0.153,1.964,-0.866,2.501,0.100,0.279,112.522,1.464,2.152,2.519,4,4,3.271
1777577052802,-0.109,1.630,-0.844,2.501,0.119,0.298,112.984,1.649,1.839,2.522,4,4,3.977
1777577052816,-0.263,1.689,-1.001,2.501,0.155,0.328,113.714,2.218,1.981,2.527,4,4,3.264
1777577052829,-0.143,1.639,-0.775,2.501,0.226,0.895,113.866,2.437,1.819,2.666,4,4,3.267
1777577052843,0.020,1.480,-0.480,2.501,0.135,1.585,113.305,2.135,1.556,2.965,4,4,3.280
1777577052856,0.015,1.425,0.055,2.501,-0.101,2.124,110.876,1.874,1.426,3.283,4,4,3.269
1777577052870,0.390,1.613,0.180,2.501,-0.531,2.118,108.283,0.412,1.669,3.320,4,4,3.952
1777577052884,0.117,-1.646,-0.602,2.501,-0.671,1.080,87.511,0.008,1.757,2.806,4,4,3.352
1777577052897,-0.107,-1.577,-0.217,0.901,-0.814,0.291,69.881,0.372,1.595,1.249,4,4,3.281
1777577052911,-0.552,-0.528,-0.434,-0.244,-0.541,-0.474,50.922,4.041,0.879,0.760,4,4,3.261
1777577052924,-0.571,-0.187,-0.297,-1.088,-0.289,-0.845,32.013,9.217,0.670,1.407,4,4,3.279
1777577052937,-0.417,-0.005,-0.165,-1.673,-0.097,-1.164,11.998,14.842,0.448,2.040,4,4,3.931
1777577052951,-0.118,0.017,-0.015,-2.150,-0.138,-1.414,23.331,20.943,0.120,2.577,4,4,3.266
1777577052965,0.062,-0.030,0.058,-2.501,-0.393,-1.358,18.494,14.842,0.090,2.873,4,4,3.277
1777577052978,0.039,0.156,0.086,-2.501,-0.686,-0.894,22.548,12.255,0.183,2.744,4,4,3.264
1777577052991,0.137,0.415,0.110,-2.501,-0.962,-0.371,27.557,9.408,0.450,2.705,4,4,3.293
1777577053005,0.130,0.563,0.055,-2.501,-1.204,-0.023,32.964,7.284,0.581,2.776,4,4,3.929
1777577053019,0.095,0.437,0.002,-2.501,-1.427,0.034,38.362,5.420,0.447,2.880,4,4,3.286
1777577053032,-0.067,0.283,-0.010,-2.501,-1.531,0.074,43.467,6.177,0.291,2.934,4,4,3.271
1777577053046,-0.240,0.345,-0.003,-2.501,-1.492,0.139,47.940,8.906,0.420,2.916,4,4,3.299
1777577053059,-0.307,0.604,-0.057,-2.501,-1.338,0.083,52.455,10.616,0.680,2.838,4,4,3.275
1777577053072,-0.311,0.889,-0.184,-2.501,-1.104,0.022,57.140,11.407,0.959,2.734,5,5,3.926
1777577053086,-0.186,0.988,-0.327,-2.501,-0.883,0.073,62.006,11.284,1.057,2.654,5,5,3.292
1777577053100,-0.165,1.238,-0.517,-2.501,-0.669,0.276,66.824,10.876,1.352,2.604,5,5,3.266
1777577053113,-0.070,1.213,-0.629,-2.501,-0.473,0.430,71.637,10.119,1.368,2.582,5,5,3.295
1777577053127,-0.023,1.259,-0.701,-2.501,-0.269,0.410,76.153,9.242,1.441,2.549,5,5,3.254
1777577053140,0.057,1.359,-0.726,-2.501,-0.047,0.369,80.143,8.163,1.542,2.529,5,5,3.904
1777577053154,0.186,1.476,-0.759,-2.501,0.147,0.566,83.667,6.778,1.670,2.569,5,5,3.256
1777577053167,0.288,1.658,-0.777,-2.501,0.276,0.911,86.658,5.283,1.853,2.676,5,5,3.259
1777577053181,0.282,1.863,-0.847,-2.501,0.380,1.212,89.303,4.035,2.066,2.805,5,5,3.271
1777577053194,0.174,2.024,-0.960,-2.501,0.541,1.367,91.784,3.229,2.247,2.901,5,5,3.257
1777577053207,0.034,2.134,-1.079,-2.501,0.709,1.500,94.165,2.845,2.391,3.002,5,5,3.925
1777577053221,-0.698,2.105,-1.158,-2.501,0.989,1.839,96.510,4.115,2.502,3.258,5,5,3.284
1777577053235,-0.877,2.197,-1.547,-2.501,1.161,2.112,99.235,5.444,2.827,3.474,5,5,3.290
1777577053248,-0.690,2.061,-1.724,-2.501,1.238,1.331,102.154,6.297,2.774,3.092,5,5,3.262
1777577053262,-0.191,1.482,-2.422,-2.127,0.773,0.478,106.565,6.064,2.846,2.313,5,5,3.256
1777577053275,0.568,1.548,-2.740,-1.392,0.141,-0.322,110.749,4.514,3.198,1.435,1,1,3.927
1777577053289,-0.102,1.109,-3.014,-0.367,-0.269,0.719,115.415,4.258,3.214,0.851,1,1,3.256
1777577053302,-0.976,0.277,-2.968,0.209,-0.251,1.540,121.051,5.577,3.137,1.574,1,1,3.302
1777577053316,-1.617,0.317,-2.703,0.621,0.076,0.436,126.023,7.968,3.166,0.763,1,1,3.262
1777577053329,-0.713,3.085,-1.286,0.093,0.809,-0.931,124.749,8.355,3.417,1.237,1,1,3.269
1777577053342,2.330,2.313,3.519,2.313,-0.053,-0.402,116.052,4.807,4.813,2.348,1,1,3.933
1777577053356,0.778,1.099,0.073,2.501,-0.751,-1.197,113.213,0.997,1.348,2.873,1,1,3.281
1777577053370,-0.410,0.724,-0.330,2.501,-0.287,-1.072,113.334,3.496,0.895,2.737,1,1,3.276
1777577053383,-0.209,0.845,-0.326,2.501,-0.244,-0.853,113.120,4.402,0.930,2.654,1,1,3.262
1777577053397,-0.547,0.797,-0.599,2.501,-0.037,-0.645,114.435,6.718,1.138,2.583,1,1,3.279
1777577053410,-0.478,0.866,-0.537,2.232,0.275,-0.324,115.133,8.469,1.126,2.272,1,1,3.928
1777577053424,-0.163,0.824,-0.652,1.990,0.217,-0.147,116.389,8.504,1.063,2.007,1,1,3.284
1777577053437,-0.336,0.505,-0.912,1.666,0.334,0.064,119.684,9.397,1.095,1.700,1,1,3.265
1777577053451,0.059,0.683,-0.747,1.279,0.142,-0.026,121.385,8.184,1.013,1.287,1,1,3.280
1777577053464,-0.064,0.840,-0.571,0.965,0.179,-0.114,121.655,7.750,1.018,0.988,1,1,3.271
1777577053478,0.033,0.822,-0.504,0.525,-0.058,-0.072,121.641,6.823,0.964,0.533,1,1,3.932
1777577053492,-0.192,0.796,-0.611,0.304,-0.011,0.069,122.199,7.207,1.022,0.311,1,1,3.278
1777577053505,-0.229,0.936,-0.488,0.211,0.061,0.118,121.757,7.688,1.080,0.249,1,1,3.263
1777577053518,-0.047,0.906,-0.516,0.170,0.058,0.139,121.559,7.201,1.044,0.227,1,1,3.282
1777577053532,0.009,1.064,-0.437,0.181,0.034,0.101,120.680,6.475,1.150,0.210,1,1,3.257
1777577053545,-0.090,0.911,-0.552,0.138,0.004,0.078,120.730,6.317,1.069,0.158,1,1,3.924
1777577053559,-0.178,0.867,-0.545,0.080,0.050,0.133,120.865,6.655,1.040,0.163,1,1,3.261
1777577053572,-0.095,0.897,-0.530,0.056,0.079,0.160,120.838,6.517,1.047,0.186,1,1,3.274
1777577053586,-0.102,0.919,-0.542,0.046,0.114,0.184,120.808,6.417,1.072,0.221,1,1,3.503
1777577053599,-0.071,0.938,-0.519,0.042,0.140,0.185,120.629,6.165,1.075,0.235,1,1,3.305
1777577053613,-0.046,0.880,-0.511,0.030,0.142,0.167,120.584,5.827,1.019,0.221,1,1,3.913
1777577053627,-0.049,0.921,-0.520,0.033,0.124,0.153,120.477,5.526,1.059,0.200,1,1,3.257
1777577053640,-0.046,0.895,-0.531,0.002,0.132,0.120,120.499,5.241,1.042,0.178,1,1,3.263
1777577053654,-0.012,0.887,-0.532,0.007,0.120,0.110,120.544,4.807,1.035,0.163,1,1,3.263
1777577053667,-0.038,0.910,-0.533,0.010,0.089,0.104,120.528,4.544,1.055,0.138,1,1,3.265
1777577053680,-0.035,0.902,-0.521,-0.009,0.080,0.056,120.477,4.295,1.042,0.098,1,1,3.922
1777577053695,0.023,0.920,-0.489,-0.003,0.053,0.020,120.239,3.767,1.042,0.057,1,1,3.297
1777577053710,0.069,0.939,-0.508,-0.005,0.020,-0.025,120.066,3.059,1.070,0.033,1,1,3.267
1777577053723,0.016,0.918,-0.516,-0.004,0.002,-0.053,119.996,2.683,1.053,0.054,1,1,3.255
1777577053737,-0.007,0.967,-0.495,0.010,-0.013,-0.061,119.721,2.461,1.086,0.064,1,1,3.271
1777577053754,0.001,0.931,-0.507,0.022,-0.030,-0.089,119.609,2.222,1.060,0.096,1,1,3.964
1777577053769,-0.036,0.922,-0.500,0.024,-0.044,-0.087,119.500,2.197,1.050,0.100,1,1,3.285
1777577053782,0.008,0.939,-0.502,0.034,-0.063,-0.103,119.369,1.947,1.065,0.125,1,1,3.265
1777577053797,-0.019,0.929,-0.503,0.053,-0.083,-0.119,119.280,1.861,1.057,0.154,1,1,4.731
1777577053811,-0.054,0.909,-0.505,0.064,-0.092,-0.124,119.259,1.968,1.041,0.167,1,1,3.263
1777577053825,-0.062,0.902,-0.522,0.055,-0.091,-0.106,119.335,2.106,1.044,0.150,5,5,5.060
1777577053839,-0.055,0.905,-0.525,0.062,-0.093,-0.110,119.409,2.193,1.047,0.157,5,5,3.265
1777577053853,-0.124,0.910,-0.520,0.054,-0.076,-0.075,119.440,2.626,1.056,0.120,5,5,3.266
1777577053866,-0.087,0.928,-0.526,0.057,-0.064,-0.059,119.449,2.821,1.071,0.104,5,5,3.265
1777577053879,-0.094,0.928,-0.523,0.063,-0.054,-0.044,119.444,3.030,1.069,0.094,5,5,3.262
1777577053893,-0.078,0.916,-0.520,0.062,-0.044,-0.026,119.458,3.146,1.056,0.080,1,1,3.897
1777577053907,-0.075,0.912,-0.528,0.063,-0.035,-0.019,119.515,3.236,1.056,0.075,1,1,3.260
1777577053922,-0.075,0.894,-0.534,0.067,-0.031,-0.008,119.644,3.320,1.044,0.075,1,1,4.576
1777577053935,-0.068,0.907,-0.526,0.077,-0.033,0.008,119.690,3.358,1.051,0.084,1,1,3.270
1777577053948,-0.096,0.881,-0.528,0.079,-0.026,0.023,119.807,3.546,1.032,0.086,1,1,3.314
1777577053962,-0.107,0.913,-0.526,0.080,-0.012,0.038,119.820,3.760,1.059,0.089,1,1,3.941
1777577053976,-0.130,0.910,-0.534,0.074,-0.002,0.054,119.875,4.068,1.063,0.092,1,1,3.275
1777577053989,-0.101,0.904,-0.542,0.084,0.008,0.055,119.975,4.201,1.059,0.101,1,1,3.267
1777577054003,-0.119,0.929,-0.529,0.088,0.020,0.065,119.944,4.404,1.075,0.112,1,1,3.268
1777577054016,-0.065,0.919,-0.532,0.104,0.017,0.060,119.955,4.317,1.064,0.121,1,1,3.277
1777577054030,-0.043,0.943,-0.536,0.119,0.016,0.055,119.920,4.124,1.086,0.132,1,1,3.937
1777577054044,-0.075,0.920,-0.533,0.128,0.018,0.067,119.934,4.117,1.066,0.146,1,1,3.341
1777577054057,-0.091,0.913,-0.552,0.131,0.025,0.082,120.047,4.188,1.071,0.157,1,1,3.258
1777577054071,-0.101,0.897,-0.551,0.132,0.027,0.094,120.191,4.311,1.057,0.164,1,1,4.025
1777577054085,-0.071,0.936,-0.554,0.146,0.035,0.092,120.232,4.258,1.090,0.176,1,1,3.264
1777577054098,-0.023,0.948,-0.555,0.157,0.027,0.088,120.240,3.965,1.099,0.182,4,4,3.958
1777577054112,-0.016,0.946,-0.562,0.184,0.029,0.078,120.286,3.666,1.100,0.202,4,4,3.264
1777577054125,-0.036,0.971,-0.543,0.205,0.020,0.076,120.184,3.494,1.113,0.220,4,4,3.255
1777577054141,-0.038,0.963,-0.569,0.236,0.022,0.073,120.221,3.346,1.119,0.248,4,4,5.903
1777577054155,-0.068,1.031,-0.575,0.275,0.027,0.071,120.122,3.340,1.182,0.285,4,4,3.276
1777577054168,-0.068,1.039,-0.599,0.324,0.048,0.078,120.106,3.329,1.201,0.337,4,4,3.955
1777577054182,-0.088,1.094,-0.590,0.389,0.047,0.065,119.938,3.399,1.246,0.397,4,4,3.273
1777577054196,-0.076,1.127,-0.589,0.475,0.056,0.049,119.712,3.401,1.274,0.481,4,4,3.286
1777577054209,-0.075,1.133,-0.589,0.549,0.065,0.044,119.498,3.397,1.279,0.554,4,4,3.302
1777577054222,-0.054,1.138,-0.579,0.638,0.061,0.044,119.255,3.303,1.278,0.642,4,4,3.264
1777577054236,-0.052,1.150,-0.597,0.736,0.064,0.047,119.081,3.208,1.297,0.741,4,4,3.928
1777577054250,-0.048,1.146,-0.588,0.844,0.061,0.035,118.899,3.106,1.289,0.847,4,4,3.256
1777577054263,-0.041,1.094,-0.595,0.944,0.043,0.024,118.868,2.990,1.246,0.945,4,4,3.283
1777577054277,-0.026,1.038,-0.624,1.032,0.025,0.010,119.071,2.823,1.211,1.033,4,4,3.255
1777577054290,0.012,1.088,-0.612,1.123,0.012,-0.004,119.099,2.503,1.249,1.123,4,4,3.294
1777577054303,0.012,1.008,-0.608,1.213,-0.016,-0.034,119.288,2.210,1.177,1.213,4,4,3.933
1777577054317,0.076,1.061,-0.663,1.304,-0.055,-0.060,119.547,1.669,1.253,1.306,4,4,3.297
1777577054331,0.134,1.023,-0.663,1.404,-0.097,-0.099,119.870,0.915,1.226,1.411,4,4,3.262
1777577054344,0.102,1.167,-0.672,1.549,-0.121,-0.094,119.878,0.418,1.350,1.556,4,4,3.257
1777577054357,0.010,1.158,-0.677,1.693,-0.134,-0.099,119.921,0.338,1.342,1.702,4,4,3.267
1777577054371,-0.002,1.258,-0.723,1.878,-0.138,-0.062,119.919,0.313,1.451,1.884,4,4,3.919
1777577054385,-0.040,1.403,-0.711,2.123,-0.136,0.068,119.630,0.422,1.573,2.128,4,4,3.285
1777577054398,-0.058,1.392,-0.783,2.377,-0.154,0.252,119.605,0.579,1.598,2.395,4,4,3.271
1777577054412,-0.176,1.447,-0.832,2.501,-0.118,0.458,119.632,1.096,1.678,2.546,4,4,3.307
1777577054425,-0.078,1.155,-0.801,2.501,-0.108,0.523,120.116,1.293,1.408,2.558,4,4,3.295
1777577054438,-0.136,1.118,-0.905,2.501,-0.123,0.425,120.959,1.685,1.445,2.540,4,4,3.936
1777577054452,-0.201,1.008,-0.946,2.501,-0.094,0.294,122.119,2.313,1.397,2.520,4,4,3.266
1777577054466,-0.053,0.897,-0.875,2.501,-0.067,0.585,123.279,2.323,1.254,2.570,4,4,3.261
1777577054479,0.018,0.829,-0.860,2.501,-0.074,0.933,124.494,2.020,1.194,2.671,4,4,3.277
1777577054493,0.051,0.748,-0.649,2.501,-0.172,1.111,125.110,1.550,0.992,2.742,4,4,3.282
1777577054506,-0.012,1.013,-0.492,2.501,-0.314,1.189,124.233,1.460,1.126,2.787,4,4,3.973
1777577054520,-0.054,0.192,-0.208,2.501,-0.417,0.962,125.481,2.349,0.288,2.712,4,4,3.264
1777577054533,-0.001,-0.886,0.214,2.212,-0.489,0.356,106.272,2.130,0.912,2.293,4,4,3.287
1777577054547,-0.344,-0.608,-0.685,1.437,-0.274,0.194,82.998,3.887,0.978,1.476,4,4,3.261
1777577054560,-0.439,-0.909,-0.419,0.414,-0.002,-0.038,64.186,5.772,1.093,0.416,4,4,3.267
1777577054574,-0.360,-1.181,-0.272,-0.843,0.257,-0.191,48.284,6.796,1.264,0.902,4,4,3.948
1777577054588,-0.263,-0.672,-0.276,-1.923,0.433,-0.114,33.005,8.044,0.773,1.974,4,4,3.266
1777577054601,-0.025,-0.500,-0.198,-2.501,0.445,-0.062,19.246,7.528,0.538,2.541,4,4,3.288
1777577054614,-0.056,-0.270,-0.253,-2.501,0.344,0.139,4.746,7.638,0.374,2.529,4,4,3.377
1777577054628,0.069,-0.115,-0.353,-2.501,0.236,0.242,-11.106,5.907,0.377,2.524,4,4,3.277
1777577054641,0.094,0.310,-0.355,-2.501,0.045,0.415,3.160,4.276,0.481,2.536,4,4,3.932
1777577054655,0.097,0.589,-0.601,-2.501,-0.139,0.693,15.755,3.241,0.847,2.599,4,4,3.269
1777577054669,0.076,0.409,-0.751,-2.501,-0.342,0.680,28.658,2.450,0.859,2.614,4,4,3.264
1777577054682,-0.054,0.100,-0.794,-2.501,-0.510,0.377,42.373,2.584,0.802,2.581,4,4,3.264
1777577054695,-0.228,0.183,-0.860,-2.501,-0.600,0.002,54.321,3.722,0.908,2.572,4,4,3.275
1777577054709,-0.306,0.414,-0.927,-2.501,-0.595,-0.236,63.987,4.965,1.061,2.582,5,5,3.934
1777577054723,-0.381,0.608,-1.044,-2.324,-0.501,-0.297,72.151,6.159,1.267,2.395,5,5,3.285
1777577054736,-0.439,0.581,-1.117,-2.044,-0.334,-0.332,79.798,7.403,1.334,2.097,5,5,3.268
1777577054750,-0.499,0.502,-1.137,-1.872,-0.112,-0.353,87.065,8.780,1.340,1.908,5,5,3.267
1777577054763,-0.462,0.488,-1.129,-1.796,0.125,-0.341,93.682,9.902,1.314,1.832,5,5,3.269
1777577054776,-0.344,0.570,-1.103,-1.718,0.313,-0.364,99.293,10.433,1.289,1.784,1,1,3.938
1777577054790,-0.235,0.611,-1.085,-1.592,0.448,-0.378,104.175,10.457,1.268,1.697,1,1,3.278
1777577054804,-0.167,0.633,-1.050,-1.448,0.544,-0.339,108.431,10.198,1.238,1.583,1,1,3.270
1777577054817,-0.068,0.583,-0.981,-1.363,0.594,-0.313,112.315,9.551,1.143,1.519,1,1,3.286
1777577054831,0.010,0.579,-0.909,-1.341,0.600,-0.290,115.666,8.591,1.078,1.497,1,1,3.271
1777577054844,0.107,0.674,-0.869,-1.316,0.566,-0.225,118.189,7.245,1.105,1.450,5,5,3.939
1777577054858,0.115,0.720,-0.854,-1.262,0.525,-0.046,120.251,5.999,1.123,1.368,5,5,3.265
1777577054871,0.122,0.717,-0.812,-1.273,0.471,0.081,121.994,4.818,1.090,1.360,5,5,3.277
1777577054885,0.090,0.848,-0.779,-1.261,0.424,0.108,122.998,3.936,1.155,1.335,5,5,3.273
1777577054898,0.101,0.951,-0.758,-1.196,0.342,0.094,123.525,3.111,1.220,1.248,5,5,3.264
1777577054912,0.095,1.004,-0.753,-1.152,0.221,0.129,123.842,2.404,1.259,1.180,5,5,3.958
1777577054926,0.058,1.142,-0.751,-1.051,0.070,0.125,123.793,1.943,1.368,1.061,5,5,3.278
1777577054939,0.009,1.226,-0.769,-0.867,-0.041,0.034,123.633,1.723,1.447,0.869,5,5,3.277
1777577054952,-0.025,1.248,-0.784,-0.669,-0.097,0.021,123.491,1.653,1.474,0.677,5,5,3.258
1777577054966,-0.073,1.276,-0.786,-0.439,-0.067,0.168,123.316,1.760,1.500,0.474,5,5,3.272
1777577054979,0.707,4.000,-2.710,2.501,-0.203,-0.240,123.392,0.800,4.883,2.521,1,1,3.936
1777577054993,-0.619,-1.199,-0.353,0.058,0.084,-0.034,101.535,3.230,1.395,0.107,1,1,3.299
1777577055007,0.039,1.028,-0.384,-0.020,-0.009,-0.008,102.384,2.731,1.098,0.023,1,1,3.286
1777577055020,-0.075,1.122,-0.330,0.177,0.026,-0.034,102.763,2.823,1.172,0.182,1,1,3.263
1777577055033,0.026,0.897,-0.516,0.087,-0.011,-0.076,104.392,2.415,1.035,0.116,1,1,3.282
1777577055047,0.031,0.931,-0.459,0.058,-0.023,-0.072,105.520,2.023,1.038,0.095,1,1,3.925
1777577055061,0.003,0.948,-0.449,0.080,-0.038,-0.103,106.456,1.816,1.049,0.136,1,1,3.280
1777577055074,-0.004,0.907,-0.477,0.049,-0.067,-0.144,107.527,1.663,1.025,0.166,1,1,3.262
1777577055087,-0.042,0.927,-0.476,0.035,-0.084,-0.161,108.446,1.726,1.043,0.185,1,1,3.266
1777577055101,-0.063,0.934,-0.462,0.035,-0.097,-0.152,109.197,1.893,1.044,0.184,1,1,3.278
1777577055114,-0.073,0.948,-0.460,0.040,-0.102,-0.152,109.835,2.088,1.056,0.187,1,1,3.936
1777577055128,-0.114,0.949,-0.469,0.040,-0.090,-0.123,110.450,2.473,1.065,0.158,1,1,3.290
1777577055142,-0.127,0.953,-0.463,0.039,-0.073,-0.091,110.969,2.887,1.067,0.123,1,1,3.256
1777577055155,-0.126,0.952,-0.471,0.033,-0.046,-0.055,111.480,3.257,1.070,0.079,1,1,3.281
1777577055168,-0.122,0.944,-0.476,0.025,-0.023,-0.019,111.984,3.574,1.064,0.039,1,1,3.253
1777577055182,-0.121,0.948,-0.461,0.016,-0.006,0.014,112.361,3.858,1.062,0.022,1,1,3.907
1777577055196,-0.102,0.955,-0.469,0.013,0.006,0.042,112.722,4.011,1.069,0.044,1,1,3.264
1777577055209,-0.096,0.947,-0.465,0.011,0.014,0.057,113.047,4.125,1.060,0.059,1,1,3.252
1777577055222,-0.082,0.944,-0.462,0.017,0.017,0.060,113.335,4.157,1.055,0.065,1,1,3.277
1777577055236,-0.074,0.930,-0.466,0.016,0.015,0.057,113.647,4.150,1.043,0.061,1,1,3.269
1777577055249,-0.070,0.928,-0.469,0.014,0.009,0.046,113.950,4.123,1.042,0.049,1,1,3.955
1777577055263,-0.066,0.921,-0.471,0.008,0.004,0.040,114.250,4.080,1.037,0.041,1,1,3.272
1777577055277,-0.064,0.932,-0.468,0.009,0.000,0.031,114.479,4.026,1.044,0.032,1,1,3.285
1777577055290,-0.064,0.927,-0.469,0.007,-0.002,0.023,114.701,3.978,1.041,0.024,1,1,3.267
1777577055303,-0.074,0.921,-0.468,0.005,-0.003,0.022,114.914,3.990,1.036,0.022,1,1,3.264
1777577055317,-0.064,0.922,-0.472,0.001,-0.003,0.021,115.124,3.945,1.038,0.021,1,1,3.943
1777577055331,-0.073,0.927,-0.472,-0.005,0.001,0.022,115.299,3.951,1.043,0.023,1,1,3.262
1777577055344,-0.080,0.934,-0.470,-0.005,0.000,0.027,115.434,3.992,1.049,0.027,1,1,3.281
1777577055358,-0.074,0.936,-0.472,-0.005,0.004,0.030,115.561,3.996,1.051,0.031,1,1,3.254
1777577055371,-0.071,0.938,-0.475,-0.004,0.002,0.033,115.684,3.985,1.054,0.033,1,1,3.274
1777577055384,-0.076,0.936,-0.470,-0.002,0.003,0.038,115.778,4.001,1.051,0.038,1,1,3.933
1777577055398,-0.068,0.933,-0.470,-0.002,0.002,0.041,115.870,3.975,1.047,0.041,1,1,3.278
1777577055412,-0.084,0.934,-0.472,-0.007,0.007,0.050,115.959,4.033,1.050,0.051,1,1,3.273
1777577055425,-0.074,0.936,-0.468,-0.007,0.011,0.057,116.016,4.034,1.049,0.058,1,1,3.266
1777577055438,-0.076,0.936,-0.476,-0.007,0.014,0.066,116.108,4.043,1.053,0.067,1,1,3.270
1777577055452,-0.073,0.934,-0.472,-0.006,0.014,0.071,116.174,4.038,1.049,0.073,1,1,3.916
1777577055466,-0.056,0.942,-0.465,-0.000,0.016,0.070,116.183,3.943,1.052,0.072,1,1,3.318
1777577055479,-0.056,0.934,-0.469,-0.002,0.019,0.074,116.230,3.862,1.047,0.077,1,1,3.266
1777577055493,-0.053,0.931,-0.462,-0.001,0.020,0.072,116.247,3.771,1.040,0.075,1,1,3.284
1777577055506,-0.049,0.936,-0.472,0.001,0.020,0.072,116.298,3.669,1.050,0.075,1,1,3.268
1777577055519,-0.043,0.938,-0.461,0.006,0.018,0.070,116.286,3.544,1.046,0.072,1,1,3.937
1777577055534,-0.043,0.939,-0.463,0.009,0.019,0.068,116.282,3.430,1.048,0.071,1,1,3.338
1777577055547,-0.048,0.936,-0.471,0.010,0.018,0.064,116.323,3.351,1.049,0.067,1,1,3.256
1777577055560,-0.046,0.931,-0.474,0.014,0.020,0.062,116.384,3.270,1.046,0.066,1,1,3.279
1777577055574,-0.050,0.932,-0.470,0.014,0.020,0.061,116.423,3.218,1.045,0.066,1,1,3.266
1777577055587,-0.042,0.944,-0.465,0.013,0.022,0.063,116.406,3.127,1.053,0.068,2,2,3.945
1777577055601,-0.054,0.933,-0.481,0.012,0.024,0.066,116.487,3.110,1.051,0.071,2,2,3.275
1777577055614,-0.048,0.927,-0.472,0.016,0.025,0.070,116.532,3.064,1.041,0.076,2,2,3.267
1777577055628,-0.042,0.933,-0.474,0.018,0.028,0.067,116.568,2.993,1.048,0.075,2,2,3.271
1777577055641,-0.026,0.929,-0.466,0.021,0.025,0.060,116.575,2.844,1.040,0.068,2,2,3.261
1777577055655,-0.034,0.932,-0.474,0.021,0.023,0.053,116.611,2.752,1.046,0.062,2,2,3.948
1777577055669,-0.023,0.923,-0.473,0.015,0.025,0.045,116.659,2.609,1.038,0.054,2,2,3.258
1777577055682,-0.014,0.923,-0.471,0.012,0.016,0.027,116.694,2.437,1.036,0.034,2,2,3.283
1777577055695,-0.033,0.924,-0.482,0.008,0.016,0.025,116.779,2.379,1.043,0.031,2,2,3.274
1777577055709,-0.030,0.942,-0.471,0.006,0.013,0.021,116.760,2.306,1.054,0.025,2,2,3.276
1777577055722,-0.012,0.950,-0.471,0.013,0.007,0.009,116.722,2.149,1.061,0.017,2,2,3.976
1777577055736,-0.025,0.954,-0.475,0.014,0.006,0.002,116.696,2.070,1.066,0.015,2,2,3.274
1777577055750,-0.025,0.953,-0.458,0.013,0.005,-0.001,116.600,2.003,1.058,0.014,2,2,3.271
1777577055763,-0.031,0.950,-0.471,0.013,0.003,0.000,116.577,1.972,1.060,0.014,2,2,3.255
1777577055776,-0.044,0.950,-0.476,0.016,0.004,0.003,116.580,2.012,1.064,0.017,2,2,3.296
1777577055790,-0.037,0.949,-0.474,0.017,0.008,0.008,116.577,2.011,1.062,0.021,2,2,3.954
1777577055804,-0.028,0.948,-0.476,0.019,0.005,0.004,116.587,1.963,1.061,0.019,2,2,3.296
1777577055817,-0.026,0.944,-0.472,0.018,0.004,0.001,116.586,1.908,1.056,0.019,2,2,3.268
1777577055830,-0.023,0.937,-0.475,0.017,0.001,-0.003,116.614,1.845,1.050,0.017,2,2,3.274
1777577055844,-0.026,0.933,-0.478,0.014,0.001,-0.008,116.664,1.806,1.049,0.016,2,2,3.265
1777577055857,-0.022,0.929,-0.476,0.017,-0.001,-0.013,116.708,1.748,1.044,0.021,1,1,3.924
1777577055871,-0.024,0.921,-0.480,0.011,-0.002,-0.022,116.784,1.706,1.039,0.025,1,1,3.271
1777577055885,-0.019,0.926,-0.480,0.008,-0.006,-0.026,116.844,1.643,1.043,0.028,1,1,3.262
1777577055898,-0.028,0.936,-0.471,0.006,-0.005,-0.032,116.829,1.633,1.048,0.033,1,1,3.288
1777577055911,-0.024,0.917,-0.481,0.001,-0.007,-0.033,116.910,1.605,1.035,0.033,1,1,3.265
1777577055925,-0.045,0.922,-0.476,-0.000,-0.001,-0.030,116.948,1.690,1.039,0.030,2,2,3.993
1777577055939,-0.039,0.924,-0.481,-0.004,-0.002,-0.027,117.000,1.731,1.043,0.027,2,2,3.329
1777577055952,-0.036,0.923,-0.485,-0.007,0.002,-0.025,117.070,1.756,1.043,0.026,2,2,3.256
1777577055966,-0.028,0.917,-0.477,-0.008,0.007,-0.030,117.112,1.735,1.034,0.032,2,2,3.264
1777577055979,-0.035,0.920,-0.483,-0.013,0.004,-0.038,117.166,1.752,1.039,0.040,2,2,3.261
1777577055992,-0.040,0.929,-0.472,-0.016,0.001,-0.041,117.142,1.792,1.043,0.044,2,2,3.943
1777577056006,-0.041,0.940,-0.469,-0.012,0.002,-0.039,117.082,1.832,1.051,0.041,2,2,3.266
1777577056020,-0.067,0.957,-0.477,-0.010,0.008,-0.020,117.027,2.001,1.071,0.024,2,2,3.278
1777577056033,-0.054,0.974,-0.477,-0.003,0.009,-0.005,116.938,2.084,1.086,0.010,2,2,3.259
1777577056047,-0.053,0.969,-0.479,0.003,0.009,-0.001,116.877,2.151,1.082,0.009,2,2,3.259
1777577056060,-0.051,0.958,-0.480,0.006,0.005,0.011,116.852,2.205,1.073,0.014,1,1,3.939
1777577056074,-0.016,0.961,-0.478,0.011,-0.004,0.002,116.812,2.074,1.074,0.012,1,1,3.257
1777577056087,-0.028,0.950,-0.470,0.017,-0.011,-0.012,116.765,2.021,1.060,0.023,1,1,3.273
1777577056101,-0.037,0.953,-0.485,0.023,-0.019,-0.018,116.786,2.016,1.070,0.035,1,1,3.265
1777577056114,-0.031,0.960,-0.477,0.030,-0.031,-0.023,116.752,1.983,1.073,0.049,1,1,3.288
1777577056127,0.007,0.973,-0.464,0.052,-0.051,-0.030,116.632,1.758,1.078,0.078,4,4,3.933
1777577056142,0.024,0.931,-0.461,0.076,-0.080,-0.052,116.606,1.463,1.040,0.122,4,4,3.406
1777577056155,0.047,0.955,-0.447,0.102,-0.106,-0.074,116.461,1.083,1.055,0.165,4,4,3.265
1777577056168,0.132,0.941,-0.450,0.122,-0.182,-0.073,116.377,0.294,1.052,0.231,4,4,3.256
1777577056182,0.329,1.120,-0.383,0.165,-0.327,0.102,115.665,-1.211,1.228,0.380,4,4,3.268
1777577056195,0.853,1.104,-0.301,0.120,-0.811,0.506,114.672,-4.587,1.428,0.963,3,3,3.924
1777577056209,1.425,1.685,-0.077,0.224,-1.777,1.084,112.574,-7.973,2.208,2.094,3,3,3.285
1777577056223,1.194,1.061,-0.177,0.190,-2.501,1.492,111.330,-11.780,1.607,2.919,3,3,3.263
1777577056236,1.212,1.013,-0.100,0.151,-2.501,1.738,109.837,-15.414,1.583,3.049,3,3,3.284
1777577056249,1.147,1.093,-0.202,0.143,-2.501,2.008,108.944,-18.313,1.597,3.211,3,3,3.266
1777577056263,0.951,1.051,-0.283,0.184,-2.501,2.189,108.578,-20.487,1.445,3.329,4,4,3.928
1777577056277,0.543,0.890,-0.402,0.205,-2.501,1.991,109.123,-21.303,1.117,3.204,4,4,3.267
1777577056290,0.287,0.945,-0.307,0.156,-2.501,1.369,109.016,-20.809,1.034,2.856,4,4,3.254
1777577056304,-0.294,0.726,-0.227,0.068,-2.501,1.370,108.856,-16.818,0.815,2.853,4,4,3.276
1777577056317,-0.281,1.039,-0.303,0.103,-2.501,1.491,108.607,-13.836,1.118,2.914,4,4,3.264
1777577056330,-0.270,1.074,-0.372,0.287,-2.501,1.513,108.656,-11.251,1.168,2.938,4,4,3.995
1777577056344,-0.247,1.169,-0.410,0.531,-2.501,1.634,108.718,-9.107,1.263,3.034,4,4,3.273
1777577056358,-0.278,1.155,-0.444,0.733,-2.501,1.934,108.938,-7.037,1.268,3.245,4,4,3.268
1777577056371,-0.241,1.111,-0.471,0.839,-2.501,2.158,109.323,-5.291,1.231,3.408,4,4,3.264
1777577056384,-0.166,1.012,-0.444,0.821,-2.501,2.035,109.738,-3.976,1.117,3.327,4,4,3.273
1777577056398,-0.068,1.098,-0.408,0.810,-2.501,1.624,109.799,-3.280,1.173,3.090,4,4,3.933
1777577056412,0.010,1.182,-0.332,0.884,-2.501,1.191,109.408,-3.015,1.228,2.908,4,4,3.263
1777577056425,-0.001,1.225,-0.205,0.974,-2.501,0.934,108.466,-2.722,1.242,2.842,4,4,3.290
1777577056439,0.078,1.166,-0.051,1.032,-2.501,0.701,106.948,-2.828,1.170,2.795,4,4,3.349
1777577056452,0.034,1.180,0.032,1.036,-2.501,0.652,105.189,-2.718,1.181,2.785,4,4,3.285
1777577056466,0.175,1.115,0.089,0.973,-2.501,0.656,103.309,-3.305,1.132,2.763,4,4,3.935
1777577056480,0.342,1.038,0.146,0.834,-2.501,0.574,101.283,-4.710,1.102,2.698,4,4,3.284
1777577056493,0.422,1.001,0.194,0.684,-2.458,0.553,99.164,-6.399,1.103,2.610,4,4,3.282
1777577056506,0.428,0.962,0.214,0.493,-2.316,0.691,97.098,-8.022,1.075,2.467,4,4,3.263
1777577056520,0.484,1.032,0.249,0.351,-2.199,0.871,95.133,-9.588,1.167,2.391,4,4,3.271
1777577056533,0.531,1.057,0.264,0.257,-2.144,1.038,93.312,-11.149,1.212,2.396,4,4,3.920
1777577056547,0.545,1.008,0.251,0.143,-2.155,1.282,91.665,-12.721,1.173,2.512,4,4,3.299
1777577056561,0.505,1.000,0.230,0.020,-2.212,1.499,90.276,-14.004,1.144,2.672,4,4,3.264
1777577056574,0.406,1.009,0.183,-0.090,-2.266,1.621,89.271,-14.726,1.103,2.787,4,4,3.277
1777577056587,0.242,1.020,0.101,-0.178,-2.287,1.679,88.801,-14.587,1.053,2.843,4,4,3.274
1777577056601,0.040,1.066,-0.008,-0.214,-2.242,1.673,88.956,-13.402,1.066,2.806,4,4,3.948
1777577056616,-0.247,1.100,-0.087,-0.185,-2.049,1.628,89.486,-10.925,1.131,2.624,4,4,3.282
1777577056630,-0.593,1.325,-0.150,0.068,-1.660,1.627,90.148,-7.604,1.459,2.326,4,4,3.644
1777577056643,-0.162,0.051,-0.966,-0.226,-1.219,0.899,98.409,-5.978,0.981,1.531,4,4,3.378
1777577056657,-3.720,4.000,-1.280,-0.190,-0.241,-0.260,99.297,-1.459,5.610,0.402,4,4,3.307
1777577056670,0.147,1.471,-0.111,-0.195,-0.027,0.126,98.823,-1.861,1.482,0.234,1,1,3.993
1777577056685,-0.105,1.067,-0.440,0.082,0.039,0.200,100.117,-1.187,1.159,0.220,1,1,3.314
1777577056698,0.081,0.977,-0.461,0.045,0.029,0.115,101.558,-1.480,1.084,0.126,1,1,3.337
1777577056712,0.025,1.005,-0.424,0.091,-0.007,0.053,102.632,-1.463,1.091,0.106,1,1,3.370
1777577056725,0.121,0.934,-0.481,0.116,-0.049,-0.051,104.022,-1.950,1.057,0.135,1,1,3.313
1777577056739,-0.008,0.894,-0.479,0.101,-0.068,-0.091,105.368,-1.720,1.014,0.152,1,1,3.913
1777577056756,-0.095,0.882,-0.508,0.084,-0.055,-0.063,106.753,-1.046,1.022,0.119,1,1,3.299
1777577056769,-0.092,0.927,-0.486,0.061,-0.035,-0.011,107.790,-0.470,1.051,0.071,1,1,3.295
1777577056783,0.006,0.944,-0.472,0.047,-0.048,-0.024,108.624,-0.456,1.055,0.071,1,1,3.294
1777577056796,0.058,0.943,-0.499,0.048,-0.080,-0.092,109.503,-0.709,1.069,0.131,1,1,3.819
1777577056810,-0.055,0.917,-0.491,0.053,-0.093,-0.110,110.325,-0.353,1.042,0.153,1,1,3.860
1777577056824,-0.037,0.917,-0.501,0.056,-0.098,-0.123,111.119,-0.125,1.046,0.167,1,1,3.238
1777577056837,-0.045,0.919,-0.483,0.055,-0.103,-0.127,111.749,0.125,1.040,0.172,1,1,3.228
1777577056850,-0.046,0.945,-0.488,0.065,-0.113,-0.142,112.276,0.351,1.065,0.193,1,1,3.232
1777577056864,-0.045,0.931,-0.497,0.070,-0.118,-0.159,112.830,0.551,1.057,0.210,1,1,3.228
1777577056877,-0.090,0.937,-0.493,0.082,-0.118,-0.142,113.298,0.962,1.063,0.202,1,1,3.709
1777577056891,-0.115,0.951,-0.497,0.076,-0.089,-0.110,113.705,1.450,1.079,0.160,1,1,3.231
1777577056904,-0.168,0.954,-0.520,0.061,-0.046,-0.055,114.170,2.150,1.100,0.094,1,1,3.225
1777577056918,-0.150,0.950,-0.515,0.046,-0.011,0.008,114.577,2.698,1.091,0.049,1,1,3.254
1777577056931,-0.100,0.937,-0.509,0.038,0.007,0.039,114.954,2.951,1.071,0.055,1,1,3.228
1777577056944,-0.080,0.939,-0.496,0.040,0.010,0.049,115.229,3.082,1.066,0.064,1,1,3.801
1777577056958,-0.063,0.937,-0.500,0.050,0.002,0.039,115.501,3.113,1.063,0.063,1,1,3.223
1777577056971,-0.035,0.938,-0.495,0.063,-0.005,0.016,115.722,2.997,1.062,0.066,1,1,3.229
1777577056985,-0.042,0.929,-0.489,0.073,-0.019,-0.009,115.916,2.931,1.051,0.076,1,1,3.228
1777577056998,-0.063,0.909,-0.512,0.074,-0.023,-0.023,116.247,2.981,1.045,0.081,1,1,3.219
1777577057012,-0.066,0.903,-0.519,0.072,-0.020,-0.025,116.593,3.042,1.043,0.079,1,1,4.000
1777577057026,-0.095,0.910,-0.510,0.061,-0.011,-0.013,116.846,3.250,1.047,0.063,1,1,3.229
1777577057039,-0.086,0.910,-0.501,0.057,-0.010,-0.006,117.033,3.390,1.042,0.058,1,1,3.276
1777577057052,-0.080,0.917,-0.503,0.048,-0.006,0.002,117.194,3.485,1.049,0.048,1,1,3.240
1777577057066,-0.072,0.898,-0.515,0.046,-0.008,-0.004,117.447,3.533,1.038,0.047,1,1,3.238
1777577057079,-0.062,0.914,-0.510,0.044,-0.012,-0.013,117.609,3.517,1.048,0.047,1,1,3.701
1777577057093,-0.053,0.915,-0.509,0.047,-0.013,-0.035,117.751,3.458,1.049,0.060,1,1,3.226
1777577057106,-0.035,0.930,-0.512,0.055,-0.020,-0.053,117.857,3.311,1.062,0.079,1,1,3.240
1777577057119,-0.052,0.915,-0.513,0.063,-0.026,-0.072,117.991,3.267,1.050,0.099,1,1,3.224
1777577057133,-0.084,0.912,-0.521,0.065,-0.029,-0.075,118.158,3.391,1.053,0.104,1,1,3.241
1777577057146,-0.129,0.896,-0.524,0.053,-0.022,-0.058,118.366,3.741,1.046,0.081,1,1,3.696
1777577057160,-0.122,0.890,-0.529,0.035,-0.008,-0.031,118.590,4.026,1.042,0.047,1,1,3.302
1777577057173,-0.102,0.881,-0.520,0.012,0.003,-0.009,118.775,4.185,1.028,0.016,1,1,3.273
1777577057187,-0.119,0.891,-0.522,-0.001,0.018,0.010,118.926,4.414,1.040,0.021,1,1,3.236
1777577057200,-0.100,0.915,-0.517,-0.009,0.021,0.027,118.975,4.510,1.056,0.035,1,1,3.227
1777577057214,-0.066,0.930,-0.520,-0.004,0.019,0.019,118.997,4.420,1.068,0.027,1,1,3.926
1777577057227,-0.066,0.909,-0.506,-0.001,0.011,0.003,119.008,4.343,1.043,0.012,1,1,3.236
1777577057241,-0.084,0.892,-0.532,-0.006,0.010,0.001,119.179,4.371,1.042,0.012,1,1,3.221
1777577057254,-0.081,0.869,-0.525,-0.018,0.008,-0.008,119.364,4.389,1.018,0.022,1,1,3.246
1777577057267,-0.137,0.837,-0.543,-0.055,0.012,0.024,119.708,4.714,1.007,0.061,1,1,3.226
1777577057281,-0.078,0.865,-0.526,-0.088,0.026,0.041,119.858,4.686,1.016,0.100,4,4,3.722
1777577057294,-0.037,0.962,-0.496,-0.079,0.013,0.001,119.614,4.427,1.083,0.080,4,4,3.227
1777577057308,-0.122,0.960,-0.504,-0.055,0.019,0.012,119.431,4.615,1.091,0.060,4,4,3.224
1777577057321,-0.090,0.961,-0.503,-0.035,0.019,0.018,119.258,4.625,1.088,0.044,4,4,3.228
1777577057334,-0.114,0.940,-0.515,-0.026,0.027,0.033,119.207,4.760,1.078,0.051,4,4,3.221
1777577057348,-0.099,0.913,-0.514,-0.030,0.040,0.052,119.223,4.821,1.052,0.073,4,4,3.746
1777577057362,-0.087,0.927,-0.509,-0.025,0.039,0.055,119.180,4.811,1.062,0.072,4,4,3.220
1777577057375,-0.104,0.893,-0.517,-0.037,0.043,0.070,119.263,4.903,1.037,0.090,4,4,3.296
1777577057388,-0.096,0.890,-0.515,-0.055,0.044,0.080,119.338,4.942,1.033,0.107,4,4,3.229
1777577057402,-0.083,0.956,-0.495,-0.046,0.039,0.090,119.149,4.893,1.080,0.108,4,4,3.227
1777577057415,-0.040,0.953,-0.505,-0.020,0.028,0.072,119.032,4.630,1.079,0.080,2,2,3.704
1777577057429,-0.047,0.979,-0.491,0.006,0.016,0.042,118.806,4.421,1.096,0.045,2,2,3.224
1777577057442,-0.011,1.086,-0.463,0.072,0.003,-0.008,118.260,4.054,1.181,0.073,2,2,3.252
1777577057455,-0.041,1.027,-0.495,0.087,0.001,-0.024,118.019,3.863,1.141,0.090,2,2,3.224
1777577057469,-0.040,0.990,-0.509,0.106,-0.005,-0.010,117.943,3.689,1.113,0.106,2,2,3.248
1777577057482,-0.002,1.003,-0.504,0.099,-0.029,0.105,117.822,3.349,1.122,0.147,2,2,3.710
1777577057496,-0.331,1.531,-0.430,0.337,0.034,0.145,116.669,4.149,1.625,0.368,2,2,3.298
1777577057509,-0.031,1.135,-0.513,0.389,0.032,0.252,116.447,3.891,1.247,0.464,2,2,3.227
1777577057523,0.006,1.312,-0.492,0.563,0.032,0.266,115.888,3.496,1.401,0.624,2,2,3.226
1777577057536,-0.067,1.474,-0.522,0.707,0.043,0.212,115.280,3.398,1.566,0.740,2,2,3.265
1777577057550,-0.107,1.817,-0.495,0.959,0.061,0.141,114.325,3.385,1.887,0.971,4,4,3.694
1777577057563,-0.082,1.660,-0.512,1.250,0.064,0.158,113.642,3.321,1.740,1.261,4,4,3.250
1777577057577,0.038,1.852,-0.445,1.541,-0.002,0.141,112.678,2.897,1.905,1.548,4,4,3.220
1777577057590,0.134,1.853,-0.471,1.875,-0.089,0.115,111.877,2.240,1.917,1.881,4,4,3.257
1777577057604,0.190,1.840,-0.395,2.226,-0.177,0.117,110.947,1.477,1.891,2.237,4,4,3.223
1777577057617,0.248,1.754,-0.416,2.501,-0.328,0.162,110.222,0.592,1.820,2.528,4,4,3.815
1777577057632,0.298,1.675,-0.408,2.501,-0.423,0.088,109.600,-0.396,1.749,2.538,4,4,3.230
1777577057645,0.312,1.432,-0.498,2.501,-0.498,0.095,109.558,-1.466,1.548,2.552,4,4,3.225
1777577057658,0.283,1.105,-0.558,2.501,-0.570,0.115,110.246,-2.550,1.269,2.568,4,4,3.233
1777577057672,0.050,0.865,-0.648,2.501,-0.606,-0.075,111.824,-2.560,1.082,2.575,4,4,3.221
1777577057685,0.004,0.851,-0.667,2.501,-0.576,0.137,113.371,-2.336,1.081,2.570,1,1,3.710
1777577057699,0.048,0.501,-0.502,2.501,-0.671,0.086,115.436,-2.479,0.711,2.591,1,1,3.222
1777577057713,-0.027,0.205,-0.396,2.497,-0.700,-0.223,118.975,-1.909,0.446,2.603,1,1,3.290
1777577057726,-0.087,0.110,-0.260,2.163,-0.718,-0.646,122.590,-0.104,0.295,2.369,1,1,3.234
1777577057740,-0.465,-0.523,-0.257,1.447,-0.433,-0.823,99.879,3.577,0.746,1.720,1,1,3.224
1777577057753,-0.472,-0.545,-0.409,0.577,-0.111,-0.557,78.306,6.538,0.829,0.809,4,4,3.696
1777577057767,-0.290,-0.481,-0.160,-0.496,0.178,-0.061,60.551,8.747,0.584,0.531,4,4,3.219
1777577057780,-0.156,0.162,-0.148,-1.064,0.303,0.316,67.397,11.289,0.270,1.150,4,4,3.259
1777577057793,-0.043,0.465,-0.116,-1.283,0.318,0.491,70.878,10.703,0.481,1.410,4,4,3.215
1777577057809,-0.006,0.511,-0.129,-1.351,0.255,0.512,74.047,9.746,0.527,1.467,4,4,5.006
1777577057822,0.058,0.448,-0.140,-1.454,0.091,0.425,77.212,8.150,0.473,1.517,4,4,3.726
1777577057836,0.074,0.413,-0.148,-1.615,-0.120,0.334,80.301,6.457,0.445,1.653,4,4,3.886
1777577057850,0.081,0.409,-0.135,-1.846,-0.324,0.310,82.967,4.836,0.438,1.900,4,4,3.227
1777577057863,0.065,0.467,-0.101,-2.081,-0.509,0.350,84.801,3.639,0.482,2.171,4,4,3.224
1777577057877,0.037,0.523,-0.065,-2.326,-0.654,0.435,85.966,2.913,0.529,2.455,4,4,3.238
1777577057890,-0.042,0.705,-0.045,-2.485,-0.724,0.533,86.698,2.961,0.708,2.643,4,4,3.691
1777577057904,-0.157,0.841,-0.097,-2.501,-0.694,0.624,87.641,3.682,0.861,2.670,4,4,3.263
1777577057917,-0.254,0.873,-0.145,-2.501,-0.577,0.691,88.760,4.858,0.920,2.659,4,4,3.217
1777577057930,-0.273,0.883,-0.204,-2.501,-0.422,0.666,90.115,5.992,0.946,2.623,4,4,3.268
1777577057944,-0.235,0.925,-0.213,-2.501,-0.269,0.551,91.338,6.745,0.978,2.576,4,4,3.229
1777577057958,-0.226,1.129,-0.269,-2.501,-0.133,0.514,92.487,7.152,1.183,2.557,5,5,4.309
1777577057972,-0.205,1.143,-0.330,-2.501,-0.001,0.654,93.783,7.400,1.207,2.585,5,5,3.228
1777577057985,-0.176,1.179,-0.356,-2.501,0.122,0.837,95.021,7.470,1.244,2.640,5,5,3.215
1777577057998,-0.184,1.298,-0.389,-2.501,0.231,0.906,96.130,7.496,1.368,2.670,5,5,3.235
1777577058012,-0.257,1.407,-0.398,-2.501,0.357,1.007,97.049,7.731,1.484,2.720,5,5,3.215
1777577058026,-0.320,1.771,-0.440,-2.501,0.565,1.126,97.705,7.940,1.853,2.801,5,5,4.543
1777577058039,-0.269,1.902,-0.596,-2.501,0.757,1.063,98.627,7.916,2.011,2.821,5,5,3.223
1777577058053,-0.198,1.879,-0.757,-2.501,0.883,0.832,99.895,7.693,2.035,2.780,5,5,3.247
1777577058066,-0.092,1.771,-0.934,-2.501,0.958,0.527,101.599,7.210,2.005,2.730,5,5,3.235
1777577058079,0.077,1.646,-1.083,-2.351,0.966,0.266,103.666,6.311,1.972,2.556,5,5,3.231
1777577058093,0.259,1.593,-1.233,-1.999,0.885,0.168,105.956,5.015,2.031,2.193,5,5,3.705
1777577058107,0.315,1.460,-1.315,-1.543,0.700,0.194,108.434,3.671,1.990,1.705,5,5,3.226
1777577058120,0.156,1.236,-1.351,-1.121,0.526,0.224,111.203,2.858,1.838,1.258,5,5,3.240
1777577058133,-0.055,1.134,-1.434,-0.724,0.344,0.169,114.101,2.751,1.829,0.819,5,5,3.227
1777577058147,-0.257,1.176,-1.495,-0.213,0.213,-0.098,116.736,3.220,1.919,0.317,5,5,3.254
1777577058160,-0.347,1.025,-1.463,0.248,0.151,-0.427,119.424,3.961,1.819,0.517,1,1,3.696
1777577058174,-0.242,1.012,-1.350,0.630,0.101,-0.616,121.681,4.359,1.705,0.887,1,1,3.235
1777577058187,-1.135,-1.562,0.394,1.135,-0.004,0.100,102.892,7.291,1.971,1.140,1,1,3.240
1777577058200,0.968,1.659,0.915,1.676,-0.867,-0.425,98.919,4.024,2.127,1.934,1,1,3.222
1777577058214,0.436,1.052,0.130,1.932,-0.929,-0.794,97.401,1.515,1.146,2.286,1,1,3.229
1777577058227,-0.320,0.954,-0.167,1.945,-0.664,-0.686,97.640,3.113,1.020,2.167,1,1,3.952
1777577058241,-0.195,0.906,-0.163,1.858,-0.283,-0.512,97.884,3.955,0.941,1.948,1,1,3.249
1777577058254,-0.132,0.906,-0.328,1.707,-0.175,-0.491,99.027,4.321,0.973,1.784,1,1,3.230
1777577058268,-0.204,0.907,-0.333,1.515,-0.025,-0.396,100.088,5.045,0.988,1.567,1,1,3.243
1777577058281,-0.131,0.931,-0.298,1.407,0.031,-0.295,100.818,5.293,0.987,1.438,1,1,3.233
1777577058294,-0.141,0.946,-0.306,1.333,0.015,-0.156,101.497,5.559,1.004,1.342,1,1,3.727
1777577058308,-0.272,0.972,-0.305,1.279,0.068,0.049,102.062,6.451,1.054,1.281,1,1,3.238
1777577058321,-0.134,1.027,-0.270,1.300,0.088,0.215,102.317,6.522,1.070,1.320,1,1,3.222
1777577058335,-0.107,1.040,-0.294,1.363,0.151,0.320,102.648,6.440,1.086,1.408,1,1,3.239
1777577058348,0.055,1.006,-0.339,1.407,0.247,0.312,103.215,5.543,1.063,1.462,1,1,3.226
1777577058361,0.125,0.696,-0.686,1.276,0.277,0.193,106.201,4.320,0.985,1.320,1,1,3.733
1777577058375,0.058,0.648,-0.694,0.958,0.271,0.062,109.125,3.577,0.951,0.997,1,1,3.230
1777577058389,0.045,0.780,-0.594,0.712,0.224,-0.001,110.852,2.989,0.981,0.746,1,1,3.243
1777577058402,0.058,0.892,-0.545,0.604,0.156,-0.034,111.859,2.404,1.047,0.625,1,1,3.233
1777577058415,0.381,0.650,-0.735,0.271,-0.071,-0.184,114.394,0.156,1.053,0.335,1,1,3.225
1777577058429,0.019,0.932,-0.497,0.144,-0.037,-0.140,114.743,0.044,1.056,0.204,1,1,4.086
1777577058443,-0.122,0.919,-0.532,0.088,-0.045,-0.093,115.247,0.663,1.069,0.136,1,1,3.221
1777577058456,-0.023,0.950,-0.499,0.049,-0.056,-0.074,115.478,0.716,1.073,0.105,1,1,3.252
1777577058469,-0.126,0.939,-0.498,0.038,-0.021,0.014,115.713,1.289,1.070,0.046,1,1,3.227
1777577058483,-0.094,0.958,-0.485,0.015,-0.002,0.086,115.821,1.641,1.078,0.087,1,1,3.261
1777577058496,-0.083,0.949,-0.501,0.011,0.021,0.143,116.013,1.906,1.076,0.145,1,1,3.710
1777577058510,-0.061,0.952,-0.485,0.005,0.034,0.198,116.106,2.033,1.070,0.201,1,1,3.234
1777577058523,-0.041,0.952,-0.490,-0.001,0.050,0.225,116.214,2.047,1.071,0.230,1,1,3.236
1777577058536,-0.034,0.933,-0.495,-0.011,0.071,0.260,116.377,2.026,1.057,0.270,1,1,3.227
1777577058550,0.007,0.926,-0.490,-0.017,0.082,0.264,116.520,1.795,1.047,0.277,1,1,3.242
1777577058563,0.043,0.964,-0.460,-0.013,0.082,0.242,116.425,1.407,1.069,0.256,1,1,3.703
1777577058577,0.059,0.937,-0.466,-0.009,0.085,0.202,116.424,0.964,1.048,0.220,1,1,3.249
1777577058590,0.049,0.919,-0.463,-0.013,0.069,0.179,116.456,0.612,1.030,0.192,1,1,3.237
1777577058604,0.083,0.931,-0.457,-0.007,0.072,0.145,116.423,0.118,1.041,0.162,1,1,3.237
1777577058617,0.114,0.931,-0.459,0.013,0.065,0.086,116.409,-0.487,1.044,0.108,1,1,3.235
1777577058631,0.113,0.915,-0.464,0.021,0.044,0.024,116.455,-1.036,1.032,0.054,1,1,4.055
1777577058645,0.119,0.927,-0.466,0.029,0.033,-0.035,116.477,-1.562,1.044,0.056,1,1,3.237
1777577058658,0.095,0.936,-0.462,0.052,0.015,-0.086,116.458,-1.911,1.048,0.101,1,1,3.249
1777577058671,0.086,0.927,-0.473,0.066,0.002,-0.139,116.510,-2.180,1.045,0.154,1,1,3.254
1777577058685,0.137,0.950,-0.462,0.083,-0.023,-0.220,116.457,-2.677,1.065,0.237,1,1,3.227
1777577058698,0.099,0.961,-0.465,0.101,-0.047,-0.306,116.397,-2.926,1.072,0.325,1,1,3.755
1777577058712,0.094,0.929,-0.496,0.091,-0.062,-0.370,116.560,-3.133,1.057,0.387,1,1,3.272
1777577058725,0.039,0.925,-0.503,0.090,-0.067,-0.425,116.748,-3.037,1.054,0.439,1,1,3.230
1777577058739,0.008,0.949,-0.478,0.085,-0.072,-0.433,116.746,-2.788,1.063,0.447,1,1,3.231
1777577058752,-0.033,0.938,-0.487,0.083,-0.083,-0.414,116.809,-2.350,1.058,0.430,1,1,3.220
1777577058765,-0.063,0.941,-0.500,0.079,-0.095,-0.372,116.920,-1.803,1.068,0.392,4,4,3.720
1777577058779,-0.061,0.991,-0.471,0.102,-0.107,-0.332,116.779,-1.330,1.100,0.364,4,4,3.227
1777577058792,-0.134,0.912,-0.520,0.111,-0.123,-0.262,117.057,-0.510,1.058,0.310,4,4,3.234
1777577058806,-0.079,0.938,-0.513,0.140,-0.165,-0.202,117.211,-0.059,1.073,0.296,4,4,3.237
1777577058819,-0.120,0.937,-0.518,0.155,-0.159,-0.134,117.376,0.557,1.077,0.260,4,4,3.226
1777577058832,-0.107,0.921,-0.512,0.161,-0.151,-0.079,117.537,1.055,1.059,0.234,4,4,3.711
1777577058846,-0.038,1.004,-0.490,0.181,-0.129,-0.070,117.390,1.139,1.118,0.233,4,4,3.226
1777577058859,0.061,0.999,-0.501,0.179,-0.102,-0.082,117.317,0.735,1.119,0.222,4,4,3.231
1777577058873,0.103,0.866,-0.556,0.230,-0.103,-0.044,117.826,0.121,1.034,0.255,4,4,3.224
1777577058886,0.196,1.191,-0.611,0.240,-0.121,-0.126,117.763,-0.683,1.353,0.297,4,4,3.229
1777577058899,-0.253,1.510,-0.564,0.460,-0.088,0.089,117.069,0.232,1.632,0.477,4,4,3.688
1777577058913,-0.147,1.116,-0.578,0.744,0.007,0.284,117.097,0.845,1.265,0.796,4,4,3.232
1777577058926,-0.240,1.331,-0.557,0.795,0.046,0.293,116.680,1.665,1.463,0.848,4,4,3.224
1777577058940,-0.430,1.612,-0.481,0.975,0.157,0.208,115.723,2.871,1.737,1.009,4,4,3.231
1777577058953,-0.183,1.753,-0.497,1.278,0.193,0.185,114.781,3.144,1.831,1.306,4,4,3.222
1777577058966,-0.067,1.544,-0.480,1.489,0.180,0.187,114.066,3.070,1.618,1.511,4,4,3.684
1777577058980,-0.097,1.671,-0.415,1.740,0.135,0.229,113.102,3.086,1.724,1.761,4,4,3.227
1777577058993,-0.102,1.732,-0.381,2.027,0.071,0.246,112.084,3.106,1.777,2.043,4,4,3.224
1777577059007,0.007,1.941,-0.344,2.400,0.019,0.211,110.940,2.792,1.972,2.410,4,4,3.232
1777577059020,0.118,2.057,-0.223,2.501,0.019,0.107,109.536,2.216,2.073,2.504,4,4,3.224
1777577059033,0.152,2.371,-0.272,2.501,-0.063,0.039,108.302,1.658,2.391,2.502,4,4,3.727
1777577059047,-0.038,2.709,-0.330,2.501,-0.024,0.024,107.221,1.577,2.729,2.502,4,4,3.227
1777577059060,-0.197,2.523,-0.497,2.501,0.139,-0.084,106.643,1.842,2.579,2.507,4,4,3.224
1777577059074,-0.271,1.883,-0.617,2.501,0.271,-0.083,106.786,2.407,2.000,2.517,4,4,3.228
1777577059087,0.012,1.819,-0.878,2.501,0.195,0.064,107.641,2.146,2.020,2.510,4,4,3.224
1777577059100,-0.012,1.558,-0.733,2.501,0.194,0.882,108.360,1.981,1.722,2.659,4,4,3.686
1777577059114,-0.055,1.966,0.041,2.501,0.061,1.570,106.500,1.944,1.967,2.954,4,4,3.236
1777577059127,1.113,-1.929,1.515,2.501,-0.122,1.377,91.437,-0.563,2.694,2.858,4,4,3.241
1777577059141,0.322,-1.599,-0.552,1.005,-0.580,0.939,72.368,-1.535,1.722,1.493,4,4,3.236
1777577059154,-0.265,-0.160,-0.362,-0.059,-0.326,0.205,50.637,1.832,0.476,0.389,4,4,3.221
1777577059167,-0.041,0.053,-0.022,-0.756,-0.200,-0.650,56.558,5.007,0.071,1.016,4,4,3.710
1777577059181,-0.233,0.586,-0.133,-0.910,-0.014,-0.891,60.959,6.549,0.644,1.274,4,4,3.227
1777577059195,-0.060,0.446,-0.094,-0.900,0.130,-0.858,64.853,6.637,0.460,1.250,4,4,3.240
1777577059208,0.074,0.216,-0.072,-1.009,0.173,-0.682,69.003,4.280,0.239,1.230,4,4,3.230
1777577059221,0.153,0.091,-0.039,-1.249,0.151,-0.520,73.216,-1.549,0.183,1.362,4,4,3.237
1777577059235,0.120,-0.017,-0.015,-1.581,0.103,-0.382,53.866,-8.941,0.122,1.630,4,4,3.700
1777577059248,0.084,-0.031,-0.020,-1.976,0.048,-0.227,37.026,-14.382,0.092,1.990,4,4,3.227
1777577059262,0.080,0.045,-0.036,-2.340,-0.011,-0.160,45.692,-18.155,0.098,2.346,4,4,3.226
1777577059275,0.057,0.199,-0.091,-2.501,-0.074,-0.179,52.237,-17.817,0.226,2.509,4,4,3.226
1777577059288,0.028,0.335,-0.151,-2.501,-0.120,-0.214,58.138,-16.530,0.369,2.513,4,4,3.242
1777577059302,0.021,0.429,-0.221,-2.501,-0.169,-0.244,63.765,-15.197,0.483,2.519,4,4,3.691
1777577059315,0.054,0.492,-0.319,-2.501,-0.224,-0.286,69.392,-14.254,0.589,2.528,4,4,3.242
1777577059329,0.062,0.581,-0.399,-2.501,-0.285,-0.283,74.637,-13.376,0.707,2.533,4,4,3.229
1777577059342,0.072,0.666,-0.479,-2.501,-0.339,-0.200,79.493,-12.578,0.823,2.532,4,4,3.331
1777577059355,0.058,0.777,-0.556,-2.501,-0.379,-0.094,83.877,-11.710,0.957,2.532,4,4,3.231
1777577059369,0.048,0.948,-0.612,-2.501,-0.392,0.003,87.582,-10.827,1.130,2.532,5,5,3.695
1777577059383,0.022,1.161,-0.680,-2.501,-0.359,0.080,90.701,-9.885,1.346,2.528,5,5,3.235
1777577059396,0.007,1.299,-0.770,-2.501,-0.307,0.139,93.549,-8.970,1.510,2.524,5,5,3.225
1777577059409,-0.008,1.256,-0.826,-2.501,-0.250,0.108,96.384,-8.087,1.503,2.516,5,5,3.233
1777577059423,-0.027,1.278,-0.883,-2.501,-0.187,0.000,99.074,-7.222,1.553,2.508,5,5,3.225
1777577059436,-0.080,1.327,-0.938,-2.501,-0.088,-0.007,101.563,-6.266,1.627,2.503,5,5,3.721
1777577059450,-0.153,1.465,-1.107,-2.501,0.045,0.227,103.990,-5.218,1.843,2.512,5,5,3.232
1777577059463,-0.168,1.653,-1.383,-2.501,0.176,0.544,106.457,-4.297,2.162,2.566,5,5,3.228
1777577059476,-0.189,1.726,-1.761,-2.501,0.248,0.729,109.228,-3.471,2.473,2.617,5,5,3.234
1777577059490,-0.344,1.654,-2.114,-2.501,0.330,0.694,112.342,-2.447,2.706,2.617,5,5,3.225
1777577059503,-0.460,1.479,-2.393,-2.207,0.428,0.353,115.761,-1.331,2.850,2.276,5,5,3.710
1777577059517,-0.371,1.174,-2.557,-1.595,0.482,-0.281,119.525,-0.490,2.838,1.689,5,5,3.227
1777577059530,-0.137,0.903,-2.610,-0.982,0.408,-0.725,123.462,-0.172,2.765,1.287,5,5,3.238
1777577059544,-0.054,0.667,-2.717,-0.419,0.230,-0.347,127.527,-0.051,2.798,0.591,5,5,3.515
1777577059557,-0.512,4.000,-3.365,2.501,0.090,-0.352,127.770,0.485,5.252,2.528,5,5,3.232
1777577059570,-0.111,1.303,0.260,1.898,0.044,0.011,123.103,0.893,1.333,1.899,1,1,3.714
1777577059584,-0.007,1.643,0.602,2.166,-0.241,-0.086,118.040,0.830,1.750,2.181,1,1,3.227
1777577059597,-0.009,1.182,-0.150,2.501,-0.441,-0.190,116.059,0.793,1.191,2.547,1,1,3.232
1777577059611,-0.465,0.909,-0.487,2.404,-0.073,-0.011,116.261,3.029,1.131,2.405,1,1,3.229
1777577059624,0.016,0.819,-0.629,2.170,0.076,0.005,117.334,2.654,1.033,2.171,1,1,3.241
1777577059637,-0.239,0.662,-0.823,1.795,0.279,0.024,119.605,3.613,1.083,1.817,1,1,3.694
1777577059651,0.142,0.792,-0.733,1.210,0.187,-0.062,120.858,2.559,1.089,1.226,1,1,3.248
1777577059664,-0.108,0.743,-0.705,0.821,0.178,-0.063,122.060,2.890,1.030,0.842,1,1,3.230
1777577059678,-0.061,0.826,-0.635,0.656,0.107,-0.036,122.580,2.933,1.044,0.666,1,1,3.226
1777577059691,0.043,0.810,-0.533,0.291,-0.085,-0.068,122.656,2.411,0.971,0.311,1,1,3.228
1777577059704,0.052,0.860,-0.553,0.163,-0.020,-0.043,122.664,1.907,1.024,0.170,1,1,3.700
1777577059718,-0.052,0.880,-0.534,0.115,-0.023,-0.023,122.532,2.001,1.031,0.119,1,1,3.243
1777577059732,-0.097,0.939,-0.514,0.063,-0.008,0.038,122.168,2.302,1.075,0.074,1,1,3.224
1777577059745,-0.073,0.943,-0.506,0.058,0.001,0.046,121.794,2.452,1.073,0.074,1,1,3.745
1777577059759,-0.033,0.963,-0.476,0.057,0.008,0.031,121.272,2.385,1.075,0.065,1,1,3.225
1777577059772,-0.027,0.929,-0.501,0.054,-0.010,0.002,120.992,2.299,1.056,0.055,1,1,3.706
1777577059786,-0.038,0.923,-0.500,0.049,-0.012,-0.023,120.748,2.279,1.051,0.055,1,1,3.229
1777577059799,-0.052,0.930,-0.501,0.044,-0.013,-0.028,120.515,2.329,1.058,0.053,1,1,3.223
1777577059812,-0.056,0.935,-0.487,0.038,-0.016,-0.036,120.230,2.399,1.056,0.054,1,1,3.232
1777577059826,-0.054,0.936,-0.502,0.035,-0.010,-0.038,120.038,2.447,1.063,0.052,1,1,3.221
1777577059839,-0.068,0.957,-0.479,0.044,-0.008,-0.029,119.707,2.558,1.072,0.054,1,1,3.731
1777577059853,-0.058,0.908,-0.523,0.041,-0.007,-0.029,119.731,2.617,1.049,0.051,1,1,3.229
1777577059866,-0.022,0.921,-0.507,0.040,-0.019,-0.053,119.645,2.482,1.052,0.069,1,1,3.232
1777577059880,-0.078,0.899,-0.490,0.041,-0.035,-0.069,119.543,2.660,1.027,0.088,1,1,3.231
1777577059893,-0.037,0.932,-0.472,0.047,-0.066,-0.096,119.287,2.600,1.045,0.125,1,1,3.221
1777577059906,-0.015,0.928,-0.486,0.057,-0.109,-0.124,119.129,2.432,1.048,0.174,1,1,3.710
1777577059920,-0.041,0.915,-0.481,0.066,-0.122,-0.139,118.996,2.418,1.035,0.196,1,1,3.224
1777577059933,-0.101,0.929,-0.483,0.069,-0.094,-0.117,118.849,2.711,1.052,0.165,1,1,3.240
1777577059947,-0.155,0.918,-0.520,0.060,-0.061,-0.066,118.912,3.246,1.066,0.108,1,1,3.388
1777577059960,-0.182,0.912,-0.517,0.039,-0.009,0.008,118.972,3.874,1.064,0.041,1,1,3.229
1777577059974,-0.131,0.913,-0.507,0.029,0.020,0.057,118.977,4.187,1.052,0.067,1,1,3.701
1777577059987,-0.106,0.934,-0.505,0.024,0.042,0.090,118.925,4.330,1.067,0.102,1,1,3.228
1777577060001,-0.084,0.926,-0.496,0.029,0.048,0.085,118.853,4.354,1.054,0.102,1,1,3.232
1777577060014,-0.076,0.917,-0.507,0.032,0.051,0.087,118.862,4.333,1.050,0.106,1,1,3.220
1777577060027,-0.084,0.921,-0.502,0.033,0.057,0.087,118.838,4.358,1.053,0.109,1,1,3.240
1777577060041,-0.101,0.928,-0.507,0.035,0.062,0.094,118.821,4.460,1.062,0.118,1,1,3.699
1777577060054,-0.061,0.931,-0.493,0.036,0.063,0.104,118.732,4.351,1.055,0.127,1,1,3.236
1777577060068,-0.079,0.925,-0.511,0.035,0.068,0.112,118.750,4.343,1.060,0.135,1,1,3.232
1777577060081,-0.073,0.953,-0.503,0.038,0.072,0.121,118.663,4.297,1.080,0.146,1,1,3.231
1777577060094,-0.038,0.914,-0.513,0.042,0.073,0.117,118.724,4.085,1.049,0.144,1,1,3.234
1777577060108,-0.030,0.938,-0.494,0.050,0.059,0.123,118.635,3.852,1.060,0.145,1,1,3.695
1777577060121,-0.072,1.089,-0.454,0.104,0.033,0.126,118.063,3.816,1.182,0.166,1,1,3.232
1777577060135,-0.025,0.958,-0.525,0.135,0.023,0.121,118.125,3.578,1.093,0.183,1,1,3.229
1777577060148,0.039,0.896,-0.555,0.126,0.009,0.148,118.473,3.037,1.054,0.194,1,1,3.302
1777577060161,-0.100,1.161,-0.523,0.192,0.003,0.217,118.072,3.175,1.278,0.290,1,1,3.225
1777577060175,-0.291,1.570,-0.481,0.464,0.047,0.140,117.022,3.829,1.668,0.487,4,4,3.714
1777577060189,0.116,1.078,-0.545,0.569,0.058,0.217,117.002,2.942,1.213,0.611,4,4,3.231
1777577060202,-0.060,1.298,-0.539,0.706,0.064,0.309,116.577,2.896,1.406,0.774,4,4,3.229
1777577060215,-0.096,1.297,-0.558,0.818,0.070,0.299,116.262,2.992,1.415,0.874,4,4,3.230
1777577060229,-0.138,1.677,-0.524,1.053,0.133,0.223,115.414,3.134,1.762,1.085,4,4,3.230
1777577060242,0.020,1.730,-0.494,1.342,0.086,0.124,114.512,2.776,1.799,1.350,4,4,3.695
1777577060256,0.016,1.707,-0.469,1.635,0.057,0.124,113.641,2.463,1.771,1.641,4,4,3.228
1777577060269,0.053,1.784,-0.410,1.934,0.002,0.126,112.623,2.069,1.831,1.938,4,4,3.233
1777577060282,0.010,1.799,-0.363,2.285,0.001,0.099,111.555,1.843,1.835,2.287,4,4,3.225
1777577060296,-0.025,1.855,-0.304,2.501,-0.043,0.096,110.390,1.740,1.880,2.504,4,4,3.233
1777577060309,-0.271,2.156,-0.344,2.501,0.023,0.170,109.313,2.248,2.200,2.507,4,4,3.699
1777577060323,-0.408,2.674,-0.394,2.501,0.159,0.198,108.273,2.851,2.733,2.514,4,4,3.225
1777577060336,-0.472,2.573,-0.554,2.501,0.357,0.205,107.690,3.548,2.673,2.535,4,4,3.236
1777577060349,-0.306,2.164,-0.783,2.501,0.492,0.247,107.900,3.932,2.322,2.561,4,4,3.225
1777577060363,0.152,1.878,-0.631,2.501,0.407,0.397,107.964,3.141,1.987,2.565,4,4,3.252
1777577060376,-0.102,2.332,-0.736,2.501,0.448,0.770,107.921,3.069,2.448,2.655,4,4,3.692
1777577060390,-0.000,1.807,0.293,2.501,0.315,1.376,105.339,2.778,1.831,2.872,4,4,3.246
1777577060403,0.050,1.817,0.663,2.501,0.123,2.031,101.972,2.373,1.935,3.225,4,4,3.232
1777577060416,1.285,-1.417,0.326,2.501,-0.465,1.759,84.943,-1.796,1.941,3.093,4,4,3.227
1777577060430,0.291,-0.514,-0.020,1.878,-0.740,0.945,68.092,-4.430,0.591,2.229,4,4,3.231
1777577060443,-0.036,-0.647,-0.201,0.712,-0.723,-0.057,51.414,-3.718,0.679,1.017,4,4,3.698
1777577060457,-0.342,-0.289,-0.054,-0.245,-0.560,-0.913,36.957,1.324,0.451,1.098,4,4,3.245
1777577060470,-0.397,0.018,-0.027,-0.895,-0.336,-1.241,47.406,9.320,0.399,1.567,4,4,3.220
1777577060484,-0.225,0.131,0.076,-1.341,-0.199,-1.375,48.592,13.767,0.271,1.931,4,4,3.234
1777577060497,0.023,-0.057,0.146,-1.836,-0.227,-1.378,41.949,11.663,0.158,2.307,4,4,3.234
1777577060510,0.106,-0.010,0.121,-2.351,-0.378,-1.149,37.499,6.646,0.161,2.644,4,4,3.719
1777577060524,0.107,0.063,0.151,-2.501,-0.548,-0.725,36.102,2.848,0.196,2.661,4,4,3.238
1777577060537,0.070,0.258,0.137,-2.501,-0.670,-0.250,38.566,1.295,0.301,2.602,4,4,3.229
1777577060551,0.087,0.535,0.061,-2.501,-0.755,0.114,42.844,0.294,0.545,2.615,4,4,3.235
1777577060564,0.110,0.672,-0.074,-2.501,-0.821,0.263,47.930,-0.616,0.685,2.646,4,4,3.228
1777577060577,0.106,0.650,-0.229,-2.501,-0.892,0.241,53.776,-1.389,0.697,2.667,4,4,3.723
1777577060591,-0.007,0.683,-0.336,-2.501,-0.914,0.186,59.711,-1.204,0.761,2.670,4,4,3.228
1777577060604,-0.099,0.759,-0.423,-2.501,-0.869,0.183,65.364,-0.474,0.875,2.654,4,4,3.243
1777577060618,-0.141,0.839,-0.476,-2.501,-0.784,0.256,70.519,0.364,0.975,2.634,4,4,3.234
1777577060631,-0.115,0.972,-0.521,-2.501,-0.697,0.332,75.052,0.894,1.109,2.618,4,4,3.229
1777577060644,-0.097,1.170,-0.586,-2.501,-0.614,0.411,79.006,1.213,1.312,2.608,5,5,3.701
1777577060658,-0.129,1.405,-0.678,-2.501,-0.508,0.505,82.502,1.547,1.566,2.602,5,5,3.228
1777577060671,-0.121,1.352,-0.731,-2.501,-0.395,0.536,85.915,1.827,1.542,2.589,5,5,3.241
1777577060685,-0.149,1.369,-0.774,-2.501,-0.269,0.495,89.109,2.169,1.579,2.564,5,5,3.228
1777577060698,-0.173,1.488,-0.831,-2.501,-0.080,0.445,91.969,2.514,1.713,2.542,5,5,3.231
1777577060711,-0.198,1.637,-0.925,-2.501,0.137,0.458,94.585,2.847,1.891,2.547,5,5,3.705
1777577060725,-0.258,1.740,-1.102,-2.501,0.378,0.599,97.225,3.255,2.075,2.600,5,5,3.238
1777577060739,-0.306,1.873,-1.343,-2.501,0.594,0.740,99.928,3.665,2.325,2.675,5,5,3.234
1777577060752,-0.326,1.904,-1.673,-2.501,0.735,0.690,102.911,4.015,2.555,2.697,5,5,3.225
1777577060765,-0.388,1.740,-2.024,-2.501,0.861,0.413,106.373,4.420,2.697,2.677,5,5,3.239
1777577060779,-0.193,1.453,-2.233,-2.334,0.934,-0.184,110.232,4.395,2.671,2.521,1,1,3.696
1777577060792,0.276,1.186,-2.563,-1.687,0.681,-0.487,114.508,3.445,2.837,1.884,1,1,3.244
1777577060806,0.539,1.038,-2.825,-0.940,0.287,-0.143,118.819,2.152,3.058,0.994,1,1,3.226
1777577060819,0.225,0.759,-2.887,-0.157,-0.049,0.471,123.238,1.538,2.993,0.499,1,1,3.239
1777577060832,-0.403,0.517,-2.762,0.491,-0.125,0.577,127.630,2.168,2.839,0.768,1,1,3.234
1777577060846,2.053,4.000,1.831,2.501,-0.177,-0.907,121.711,-0.419,4.855,2.667,5,5,3.690
1777577060859,0.708,1.325,-0.387,2.501,0.053,-0.438,120.242,-2.962,1.551,2.540,5,5,3.248
1777577060873,0.194,1.399,0.386,2.501,-0.141,-0.545,115.898,-3.404,1.464,2.564,5,5,3.221
1777577060886,-0.197,0.715,-0.435,2.501,-0.090,-0.509,116.410,-1.820,0.860,2.554,5,5,3.238
1777577060899,-0.303,0.755,-0.734,2.501,0.325,-0.210,118.101,-0.122,1.096,2.531,5,5,3.227
1777577060913,0.022,0.596,-1.022,2.501,0.134,-0.215,121.110,-0.214,1.183,2.514,1,1,3.711
1777577060926,0.161,0.630,-0.908,1.668,0.089,-0.218,123.406,-0.984,1.117,1.684,1,1,3.237
1777577060940,-0.151,0.647,-0.863,1.173,0.043,-0.328,125.283,-0.133,1.089,1.218,1,1,3.230
1777577060953,0.356,0.158,-0.943,0.428,-0.315,-0.403,129.584,-2.065,1.020,0.667,1,1,3.235
1777577060966,-0.473,0.635,-0.625,0.326,-0.170,-0.228,130.054,0.789,1.009,0.433,1,1,3.225
1777577060980,-0.315,0.882,-0.567,0.206,-0.103,-0.048,129.358,2.302,1.095,0.235,1,1,3.716
1777577060994,-0.228,0.898,-0.585,0.121,0.009,0.088,128.760,3.224,1.096,0.150,1,1,3.228
1777577061007,-0.127,0.975,-0.502,0.114,0.046,0.120,127.665,3.548,1.104,0.172,1,1,3.235
1777577061020,-0.107,0.915,-0.540,0.096,0.047,0.111,126.988,3.760,1.068,0.154,1,1,3.232
1777577061034,-0.195,0.899,-0.543,0.060,0.068,0.154,126.430,4.403,1.068,0.179,1,1,3.238
1777577061047,-0.137,0.935,-0.508,0.042,0.092,0.175,125.677,4.685,1.072,0.202,1,1,3.713
1777577061061,-0.129,0.902,-0.530,0.021,0.109,0.180,125.178,4.906,1.054,0.212,1,1,3.496
1777577061074,-0.083,0.936,-0.518,0.010,0.138,0.200,124.589,4.862,1.073,0.243,1,1,3.229
1777577061088,-0.058,0.931,-0.505,0.024,0.142,0.176,124.006,4.698,1.061,0.227,1,1,3.227
1777577061101,-0.041,0.907,-0.519,0.025,0.125,0.131,123.603,4.462,1.046,0.183,1,1,3.249
1777577061114,-0.042,0.922,-0.509,0.024,0.103,0.096,123.153,4.257,1.054,0.142,1,1,3.702
1777577061128,-0.090,0.896,-0.528,0.012,0.099,0.097,122.903,4.323,1.044,0.139,1,1,3.240
1777577061141,-0.084,0.889,-0.525,0.001,0.101,0.105,122.683,4.353,1.036,0.146,1,1,3.239
1777577061155,-0.083,0.895,-0.534,-0.018,0.100,0.125,122.507,4.371,1.045,0.161,1,1,3.224
1777577061168,-0.034,0.928,-0.501,-0.018,0.092,0.124,122.114,4.131,1.056,0.156,1,1,3.232
1777577061181,-0.030,0.926,-0.502,-0.028,0.081,0.117,121.768,3.893,1.053,0.145,1,1,3.699
1777577061195,-0.030,0.941,-0.502,-0.019,0.068,0.113,121.417,3.676,1.067,0.133,1,1,3.244
1777577061209,-0.021,0.914,-0.525,0.012,0.048,0.115,121.269,3.435,1.054,0.125,1,1,3.224
1777577061222,-0.066,0.937,-0.510,0.036,0.026,0.145,121.012,3.447,1.069,0.152,1,1,3.240
1777577061235,-0.014,0.894,-0.523,0.055,0.016,0.134,120.948,3.195,1.036,0.146,1,1,3.237
1777577061249,-0.021,0.941,-0.512,0.074,-0.001,0.138,120.722,3.000,1.072,0.157,1,1,3.732
1777577061263,-0.062,0.926,-0.548,0.096,-0.010,0.177,120.715,3.031,1.078,0.201,1,1,3.550
1777577061276,0.034,1.146,-0.472,0.182,-0.019,0.125,119.925,2.593,1.240,0.221,1,1,3.223
1777577061289,0.015,1.041,-0.512,0.268,-0.016,0.094,119.571,2.276,1.160,0.285,1,1,3.255
1777577061303,-0.034,0.947,-0.514,0.302,-0.021,0.103,119.469,2.232,1.078,0.320,1,1,3.226
1777577061316,-0.017,0.967,-0.542,0.319,-0.021,0.098,119.448,2.105,1.108,0.334,5,5,3.721
1777577061330,-0.002,0.932,-0.539,0.335,-0.017,0.126,119.506,1.914,1.077,0.358,5,5,3.234
1777577061343,0.028,0.924,-0.553,0.350,-0.019,0.120,119.639,1.588,1.077,0.370,5,5,3.241
1777577061356,-0.064,0.945,-0.573,0.369,-0.004,0.128,119.792,1.751,1.107,0.390,5,5,3.233
1777577061370,-0.058,0.889,-0.584,0.372,0.005,0.116,120.125,1.882,1.065,0.390,5,5,3.228
1777577061383,-0.163,0.884,-0.582,0.374,0.040,0.128,120.433,2.537,1.071,0.397,5,5,3.695
1777577061397,-0.109,0.962,-0.601,0.376,0.064,0.145,120.581,2.817,1.139,0.408,5,5,3.226
1777577061410,-0.017,1.031,-0.572,0.433,0.080,0.134,120.433,2.629,1.179,0.460,5,5,3.238
1777577061424,-0.006,1.086,-0.581,0.487,0.082,0.115,120.217,2.405,1.232,0.507,5,5,3.226
1777577061437,0.006,1.166,-0.595,0.586,0.080,0.075,119.916,2.151,1.309,0.597,5,5,3.237
1777577061450,0.005,1.150,-0.600,0.694,0.074,0.063,119.690,1.924,1.298,0.701,5,5,3.707
1777577061464,0.026,1.292,-0.609,0.819,0.059,0.049,119.266,1.641,1.429,0.823,5,5,3.637
1777577061478,0.004,1.393,-0.616,0.990,0.043,0.048,118.750,1.470,1.523,0.992,5,5,3.227
1777577061491,0.051,1.549,-0.610,1.237,0.029,0.032,118.060,1.165,1.665,1.238,5,5,3.220
1777577061504,0.067,1.630,-0.563,1.508,-0.028,0.039,117.204,0.843,1.726,1.509,5,5,3.242
1777577061518,-0.011,1.699,-0.542,1.806,-0.021,0.014,116.298,0.797,1.783,1.806,4,4,3.691
1777577061531,0.060,1.694,-0.531,2.141,-0.059,0.004,115.453,0.536,1.776,2.142,4,4,3.255
1777577061545,-0.091,1.859,-0.495,2.501,-0.040,-0.000,114.451,0.742,1.926,2.502,4,4,3.227
1777577061558,-0.162,1.982,-0.552,2.501,-0.012,0.014,113.605,1.099,2.064,2.501,4,4,3.242
1777577061571,-0.143,1.967,-0.601,2.501,0.039,-0.044,112.975,1.373,2.062,2.502,4,4,3.230
1777577061585,0.017,1.918,-0.760,2.501,0.077,-0.104,112.845,1.198,2.063,2.505,4,4,3.692
1777577061599,0.004,1.629,-0.776,2.501,0.099,0.154,113.096,1.071,1.805,2.508,4,4,3.237
1777577061612,0.068,1.755,-0.914,2.501,0.064,0.227,113.514,0.781,1.980,2.512,4,4,3.225
1777577061625,-0.022,1.910,-0.714,2.501,0.139,0.814,113.227,0.767,2.039,2.634,4,4,3.253
1777577061639,-0.093,2.094,-0.409,2.501,0.070,1.520,112.070,0.930,2.135,2.928,4,4,3.226
1777577061652,0.044,1.092,0.518,2.501,-0.039,1.916,107.557,0.643,1.209,3.151,4,4,3.748
1777577061666,0.788,-2.519,-0.008,2.446,-0.753,1.723,88.747,-1.070,2.639,3.085,4,4,3.254
1777577061679,-0.196,-0.173,-0.743,0.652,-0.794,1.464,64.432,0.403,0.788,1.788,4,4,3.234
1777577061692,-0.146,-0.119,-0.331,-0.421,-0.640,0.871,43.056,2.515,0.381,1.160,4,4,3.233
1777577061706,-0.288,0.638,-0.282,-0.829,-0.507,0.425,49.794,4.411,0.755,1.061,4,4,3.226
1777577061719,-0.394,0.907,-0.328,-0.776,-0.306,0.172,55.507,6.106,1.042,0.852,4,4,3.711
1777577061733,-0.266,0.637,-0.255,-0.675,-0.156,-0.138,60.863,7.540,0.736,0.707,4,4,3.231
1777577061746,-0.265,0.381,-0.203,-0.745,-0.040,-0.420,66.306,9.822,0.506,0.856,4,4,3.299
1777577061760,-0.255,0.143,-0.064,-0.998,0.065,-0.559,70.848,14.441,0.299,1.146,4,4,3.269
1777577061773,-0.168,0.033,0.037,-1.369,0.119,-0.580,68.089,20.052,0.176,1.492,4,4,3.272
1777577061786,-0.081,0.098,0.088,-1.734,0.109,-0.480,66.185,21.133,0.155,1.803,4,4,3.931
1777577061800,0.001,0.207,0.097,-2.038,0.047,-0.331,66.067,19.087,0.228,2.065,4,4,3.264
1777577061814,-0.028,0.271,0.052,-2.265,-0.023,-0.190,67.317,17.814,0.278,2.273,4,4,3.279
1777577061827,-0.075,0.348,-0.017,-2.470,-0.061,-0.087,69.742,17.273,0.357,2.472,4,4,3.263
1777577061841,-0.081,0.466,-0.092,-2.501,-0.100,-0.053,72.725,16.545,0.482,2.504,4,4,3.308
1777577061854,-0.070,0.565,-0.174,-2.501,-0.141,-0.055,75.999,15.616,0.596,2.506,4,4,3.933
1777577061868,-0.031,0.636,-0.250,-2.501,-0.194,-0.042,79.370,14.376,0.684,2.509,4,4,3.623
