timestamp,ax,ay,az,gx,gy,gz,roll,pitch_k,acc_norm,gyro_norm,classe_prevista_raw,classe_prevista,delay_ms
1780148242426,0.118041,0.409804,0.193749,-0.144424,-0.157227,-0.130363,58.8198,-13.2702,0.702388,0.425074,0,0,3.488
1780148242442,0.164,0.490,0.210,-0.285,-0.173,-0.160,63.717,-16.348,0.694,0.597,0,0,3.305
1780148242455,0.208,0.509,0.207,-0.419,-0.193,-0.152,65.872,-20.205,0.671,0.828,0,0,3.267
1780148242469,0.252,0.516,0.197,-0.540,-0.233,-0.127,67.738,-24.079,0.693,1.053,0,0,3.495
1780148242482,0.290,0.515,0.185,-0.657,-0.289,-0.090,69.314,-27.618,0.696,1.323,0,0,3.232
1780148242496,0.309,0.513,0.172,-0.776,-0.353,-0.048,70.929,-29.649,0.658,1.614,0,0,3.468
1780148242509,0.322,0.526,0.164,-0.891,-0.414,-0.006,72.270,-30.210,0.740,1.856,0,0,3.231
1780148242523,0.323,0.554,0.154,-0.992,-0.468,0.036,73.995,-29.195,0.828,1.982,0,0,3.620
1780148242536,0.313,0.587,0.134,-1.081,-0.506,0.079,76.331,-27.335,0.882,2.050,0,0,3.356
1780148242550,0.288,0.623,0.108,-1.156,-0.526,0.122,79.034,-24.421,0.954,2.042,0,0,3.353
1780148242563,0.253,0.659,0.077,-1.221,-0.520,0.162,81.833,-20.889,1.044,2.013,0,0,3.247
1780148242577,0.217,0.698,0.046,-1.278,-0.489,0.199,84.376,-17.582,1.150,1.997,0,0,3.246
1780148242590,0.188,0.738,0.015,-1.330,-0.441,0.235,86.714,-14.919,1.236,2.050,0,0,3.239
1780148242607,0.164,0.781,-0.017,-1.377,-0.379,0.267,88.930,-12.755,1.359,2.108,0,0,3.537
1780148242621,0.146,0.824,-0.050,-1.416,-0.314,0.294,91.022,-11.099,1.438,2.113,0,0,3.495
1780148242634,0.135,0.864,-0.082,-1.448,-0.248,0.318,92.990,-9.900,1.492,2.108,0,0,3.379
1780148242648,0.127,0.905,-0.113,-1.472,-0.182,0.339,94.720,-8.955,1.570,2.089,0,0,3.396
1780148242662,0.120,0.947,-0.142,-1.486,-0.116,0.359,96.274,-8.145,1.642,2.033,0,0,3.385
1780148242676,0.115,0.983,-0.169,-1.492,-0.052,0.379,97.720,-7.465,1.630,1.981,0,0,3.749
1780148242689,0.112,1.017,-0.194,-1.490,0.008,0.396,98.950,-6.953,1.657,1.899,0,0,3.426
1780148242703,0.110,1.049,-0.218,-1.480,0.061,0.411,100.168,-6.547,1.672,1.758,0,0,3.406
1780148242718,0.110,1.069,-0.245,-1.468,0.104,0.423,101.742,-6.260,1.552,1.646,0,0,4.430
1780148242731,0.109,1.082,-0.272,-1.460,0.137,0.430,103.422,-6.043,1.499,1.609,0,0,3.365
1780148242745,0.105,1.102,-0.300,-1.454,0.163,0.433,104.877,-5.541,1.643,1.564,0,0,3.469
1780148242758,0.097,1.113,-0.330,-1.444,0.184,0.434,106.627,-4.875,1.558,1.467,0,0,3.299
1780148242772,0.086,1.119,-0.361,-1.431,0.204,0.434,108.592,-3.988,1.530,1.386,0,0,3.289
1780148242785,0.073,1.123,-0.392,-1.417,0.226,0.432,110.523,-3.009,1.545,1.370,0,0,3.272
1780148242799,0.060,1.121,-0.423,-1.400,0.252,0.426,112.614,-2.054,1.495,1.348,0,0,3.276
1780148242812,0.051,1.123,-0.454,-1.379,0.278,0.418,114.470,-1.426,1.547,1.271,0,0,3.231
1780148242825,0.045,1.122,-0.484,-1.350,0.303,0.410,116.298,-1.091,1.535,1.130,5,5,3.751
1780148242839,0.043,1.119,-0.516,-1.314,0.324,0.401,118.225,-0.986,1.541,0.972,5,5,3.301
1780148242853,0.042,1.115,-0.546,-1.271,0.342,0.391,120.120,-0.965,1.537,0.822,5,5,3.237
1780148242866,0.041,1.110,-0.576,-1.222,0.356,0.380,121.896,-0.955,1.538,0.698,5,5,3.370
1780148242880,0.040,1.103,-0.604,-1.166,0.368,0.367,123.611,-0.922,1.518,0.648,5,5,3.363
1780148242893,0.039,1.096,-0.629,-1.105,0.380,0.352,125.159,-0.917,1.486,0.707,1,1,3.779
1780148242907,0.038,1.098,-0.653,-1.043,0.397,0.332,126.058,-0.910,1.597,0.876,1,1,3.248
1780148242920,0.020,1.095,-0.673,-0.975,0.433,0.296,127.069,0.411,1.521,1.484,1,1,3.234
1780148242934,0.007,1.094,-0.676,-0.900,0.470,0.260,126.815,1.467,1.341,1.668,1,1,3.296
1780148242947,-0.007,1.147,-0.608,-0.810,0.496,0.243,121.451,2.018,2.383,1.688,1,1,3.288
1780148242961,-0.004,1.157,-0.549,-0.729,0.508,0.230,116.027,1.565,1.530,1.442,1,1,3.861
1780148242974,0.005,1.153,-0.537,-0.658,0.510,0.212,114.992,0.547,1.110,1.178,1,1,3.259
1780148242988,0.012,1.141,-0.548,-0.584,0.489,0.203,116.486,-0.308,1.199,1.181,1,1,3.233
1780148243001,0.010,1.129,-0.538,-0.529,0.455,0.200,115.932,0.020,0.932,0.877,1,1,3.288
1780148243015,0.010,1.125,-0.516,-0.491,0.420,0.197,113.765,-0.088,1.040,0.620,1,1,3.334
1780148243028,0.021,1.121,-0.500,-0.454,0.390,0.187,112.351,-1.390,1.075,0.574,1,1,3.761
1780148243042,0.044,1.115,-0.488,-0.421,0.368,0.172,111.477,-3.837,1.142,0.453,1,1,3.228
1780148243055,0.054,1.106,-0.478,-0.389,0.350,0.153,110.950,-4.930,0.998,0.514,1,1,3.236
1780148243068,0.074,1.100,-0.467,-0.359,0.332,0.131,110.291,-7.003,1.125,0.569,1,1,3.298
1780148243082,0.084,1.096,-0.459,-0.330,0.313,0.105,109.808,-7.835,1.077,0.684,1,1,3.299
1780148243095,0.076,1.090,-0.452,-0.301,0.297,0.077,109.596,-6.615,1.007,0.754,1,1,3.722
1780148243109,0.056,1.086,-0.441,-0.273,0.282,0.056,108.887,-4.065,1.101,0.634,1,1,3.424
1780148243123,0.043,1.082,-0.431,-0.246,0.267,0.044,108.258,-2.485,1.044,0.514,1,1,3.272
1780148243140,0.040,1.077,-0.422,-0.220,0.255,0.035,107.720,-2.106,1.007,0.465,1,1,7.318
1780148243154,0.039,1.073,-0.413,-0.197,0.241,0.032,107.280,-1.986,1.004,0.409,1,1,3.706
1780148243168,0.038,1.069,-0.405,-0.174,0.230,0.030,106.931,-1.856,1.019,0.390,1,1,3.948
1780148243183,0.034,1.066,-0.399,-0.154,0.220,0.023,106.715,-1.425,1.025,0.379,1,1,4.733
1780148243197,0.031,1.063,-0.393,-0.135,0.210,0.022,106.544,-1.148,1.026,0.361,1,1,3.378
1780148243214,0.029,1.059,-0.387,-0.116,0.200,0.019,106.407,-0.943,1.010,0.354,1,1,3.496
1780148243228,0.034,1.056,-0.383,-0.101,0.193,0.008,106.382,-1.635,1.052,0.403,1,1,3.408
1780148243241,0.032,1.051,-0.379,-0.085,0.185,0.006,106.444,-1.385,0.973,0.315,1,1,4.000
1780148243256,0.033,1.046,-0.375,-0.071,0.177,0.003,106.536,-1.541,0.991,0.285,1,1,3.556
1780148243270,0.033,1.042,-0.372,-0.059,0.169,0.001,106.675,-1.609,0.999,0.255,1,1,3.690
1780148243283,0.031,1.038,-0.369,-0.050,0.163,-0.006,106.779,-1.297,1.004,0.263,1,1,3.369
1780148243297,0.025,1.037,-0.365,-0.040,0.157,-0.007,106.653,-0.697,1.057,0.218,1,1,3.334
1780148243311,0.021,1.036,-0.362,-0.030,0.152,-0.006,106.577,-0.225,1.069,0.210,1,1,4.897
1780148243325,0.017,1.036,-0.359,-0.022,0.148,-0.005,106.519,0.109,1.064,0.210,1,1,3.260
1780148243339,0.017,1.035,-0.357,-0.013,0.146,-0.005,106.571,-0.019,1.078,0.212,1,1,3.419
1780148243352,0.017,1.035,-0.355,-0.006,0.143,-0.004,106.599,-0.051,1.062,0.205,1,1,3.462
1780148243366,0.016,1.032,-0.354,0.001,0.142,-0.004,106.789,-0.038,1.025,0.203,1,1,3.243
1780148243380,0.016,1.028,-0.353,0.007,0.140,-0.003,107.025,-0.097,1.003,0.194,1,1,4.404
1780148243394,0.015,1.025,-0.352,0.012,0.138,-0.003,107.221,-0.055,1.007,0.171,1,1,3.365
1780148243407,0.016,1.022,-0.351,0.017,0.136,-0.002,107.479,-0.248,1.015,0.145,1,1,3.321
1780148243421,0.018,1.018,-0.352,0.020,0.133,-0.001,107.849,-0.569,1.007,0.115,1,1,3.425
1780148243434,0.019,1.014,-0.352,0.022,0.128,-0.000,108.179,-0.783,0.998,0.087,1,1,3.349
1780148243449,0.019,1.010,-0.352,0.023,0.125,0.001,108.439,-0.732,0.987,0.068,1,1,5.002
1780148243463,0.017,1.006,-0.352,0.023,0.122,0.003,108.654,-0.598,0.995,0.067,1,1,3.430
1780148243477,0.016,1.004,-0.352,0.022,0.119,0.005,108.735,-0.498,1.020,0.071,1,1,3.397
1780148243491,0.016,1.003,-0.352,0.021,0.116,0.007,108.827,-0.482,1.024,0.074,1,1,3.472
1780148243504,0.014,1.001,-0.351,0.020,0.113,0.009,108.869,-0.318,1.027,0.086,1,1,3.248
1780148243518,0.014,1.001,-0.350,0.019,0.111,0.012,108.868,-0.322,1.042,0.085,2,2,3.709
1780148243532,0.014,1.001,-0.350,0.018,0.108,0.014,108.843,-0.434,1.059,0.071,2,2,3.232
1780148243545,0.014,1.000,-0.349,0.016,0.104,0.015,108.854,-0.438,1.048,0.062,2,2,3.235
1780148243558,0.014,0.999,-0.349,0.015,0.102,0.016,108.879,-0.495,1.029,0.059,2,2,3.421
1780148243572,0.014,0.998,-0.348,0.015,0.099,0.018,108.914,-0.511,1.027,0.053,2,2,3.602
1780148243586,0.014,0.997,-0.348,0.014,0.096,0.018,108.949,-0.568,1.038,0.045,2,2,3.815
1780148243600,0.015,0.995,-0.348,0.013,0.093,0.019,109.059,-0.651,1.018,0.042,2,2,3.386
1780148243613,0.014,0.994,-0.348,0.012,0.090,0.020,109.098,-0.606,1.017,0.048,2,2,3.766
1780148243627,0.015,0.992,-0.348,0.011,0.088,0.020,109.154,-0.743,1.023,0.042,2,2,3.373
1780148243640,0.016,0.992,-0.347,0.010,0.085,0.021,109.126,-0.814,1.040,0.034,2,2,3.234
1780148243654,0.017,0.991,-0.347,0.009,0.082,0.021,109.133,-0.919,1.043,0.029,2,2,3.735
1780148243668,0.016,0.991,-0.347,0.009,0.080,0.021,109.110,-0.886,1.040,0.028,2,2,3.358
1780148243682,0.016,0.991,-0.346,0.008,0.077,0.021,109.099,-0.861,1.041,0.028,2,2,3.270
1780148243695,0.017,0.991,-0.346,0.008,0.075,0.021,109.081,-0.979,1.052,0.013,2,2,3.503
1780148243709,0.018,0.991,-0.346,0.007,0.072,0.020,109.044,-1.094,1.056,0.007,2,2,3.246
1780148243722,0.020,0.991,-0.345,0.007,0.068,0.019,109.051,-1.256,1.041,0.021,2,2,3.729
1780148243736,0.021,0.990,-0.345,0.007,0.065,0.017,109.057,-1.400,1.034,0.033,2,2,3.262
1780148243751,0.021,0.990,-0.345,0.008,0.061,0.016,109.075,-1.355,1.041,0.047,2,2,4.847
1780148243764,0.020,0.990,-0.344,0.008,0.057,0.014,109.022,-1.202,1.041,0.054,2,2,3.296
1780148243778,0.019,0.990,-0.344,0.009,0.054,0.012,109.032,-1.160,1.040,0.054,2,2,3.235
1780148243791,0.019,0.989,-0.344,0.009,0.051,0.010,109.045,-1.135,1.030,0.054,2,2,4.002
1780148243805,0.018,0.988,-0.344,0.009,0.047,0.008,109.065,-1.022,1.032,0.056,2,2,3.239
1780148243818,0.019,0.988,-0.344,0.009,0.044,0.007,109.111,-1.050,1.035,0.056,2,2,3.238
1780148243832,0.018,0.987,-0.344,0.009,0.042,0.005,109.175,-0.949,1.043,0.058,2,2,3.832
1780148243846,0.016,0.987,-0.344,0.008,0.039,0.003,109.125,-0.736,1.037,0.059,2,2,3.232
1780148243859,0.015,0.987,-0.344,0.008,0.036,0.001,109.118,-0.670,1.038,0.055,2,2,3.738
1780148243873,0.014,0.987,-0.343,0.007,0.033,-0.000,109.060,-0.545,1.033,0.058,2,2,3.268
1780148243886,0.013,0.985,-0.343,0.005,0.031,-0.002,109.094,-0.478,1.013,0.061,2,2,3.268
1780148243900,0.011,0.983,-0.342,0.003,0.029,-0.003,109.164,-0.220,1.001,0.067,2,2,3.272
1780148243913,0.010,0.981,-0.343,0.001,0.027,-0.004,109.282,-0.143,1.000,0.077,2,2,3.240
1780148243926,0.010,0.980,-0.342,-0.002,0.025,-0.005,109.293,-0.172,1.013,0.087,2,2,3.737
1780148243941,0.010,0.980,-0.342,-0.005,0.023,-0.007,109.226,-0.179,1.033,0.092,2,2,3.242
1780148243954,0.010,0.981,-0.341,-0.008,0.021,-0.008,109.147,-0.216,1.056,0.090,2,2,3.224
1780148243968,0.009,0.983,-0.341,-0.010,0.020,-0.009,108.990,-0.112,1.068,0.081,2,2,3.238
1780148243981,0.007,0.985,-0.340,-0.012,0.019,-0.011,108.868,0.047,1.080,0.081,2,2,3.234
1780148243995,0.006,0.986,-0.339,-0.014,0.018,-0.013,108.691,0.121,1.064,0.085,2,2,4.447
1780148244009,0.004,0.987,-0.338,-0.015,0.019,-0.015,108.600,0.322,1.051,0.087,2,2,3.576
1780148244023,0.002,0.987,-0.337,-0.016,0.020,-0.017,108.533,0.459,1.043,0.102,2,2,3.341
1780148244036,0.002,0.987,-0.336,-0.017,0.021,-0.019,108.452,0.483,1.039,0.111,2,2,3.246
1780148244049,0.001,0.987,-0.335,-0.019,0.022,-0.022,108.372,0.513,1.033,0.110,2,2,3.258
1780148244063,0.000,0.986,-0.334,-0.020,0.024,-0.024,108.298,0.578,1.017,0.122,2,2,3.732
1780148244077,-0.002,0.985,-0.333,-0.022,0.026,-0.027,108.292,0.806,1.011,0.144,2,2,3.240
1780148244091,-0.003,0.983,-0.332,-0.024,0.028,-0.030,108.280,0.867,0.998,0.153,2,2,3.764
1780148244104,-0.004,0.982,-0.331,-0.027,0.030,-0.032,108.274,0.957,1.000,0.169,2,2,3.354
1780148244117,-0.005,0.981,-0.331,-0.030,0.033,-0.035,108.289,0.947,1.006,0.184,2,2,3.252
1780148244131,-0.004,0.979,-0.330,-0.034,0.034,-0.038,108.312,0.812,0.983,0.196,3,3,3.762
1780148244145,-0.004,0.976,-0.329,-0.039,0.036,-0.041,108.393,0.724,0.965,0.210,3,3,3.329
1780148244159,-0.004,0.972,-0.329,-0.045,0.037,-0.043,108.541,0.636,0.951,0.237,3,3,3.703
1780148244173,-0.001,0.969,-0.328,-0.053,0.037,-0.045,108.598,0.251,0.946,0.269,3,3,4.318
1780148244187,0.002,0.964,-0.328,-0.062,0.036,-0.046,108.745,-0.129,0.933,0.308,3,3,3.518
1780148244201,0.003,0.959,-0.327,-0.073,0.035,-0.047,108.831,-0.323,0.883,0.369,3,3,9.502
1780148244220,0.001,0.950,-0.324,-0.088,0.035,-0.048,108.936,-0.014,0.806,0.488,3,3,3.426
1780148244234,0.003,0.944,-0.322,-0.106,0.035,-0.049,108.887,-0.272,0.867,0.576,3,3,3.389
1780148244247,0.006,0.944,-0.319,-0.126,0.033,-0.053,108.489,-0.672,0.983,0.657,3,3,3.401
1780148244261,0.000,0.957,-0.315,-0.146,0.031,-0.057,107.763,-0.057,1.256,0.692,3,3,3.432
1780148244275,-0.011,0.975,-0.308,-0.163,0.031,-0.059,106.667,0.932,1.399,0.612,3,3,4.024
1780148244289,-0.018,0.980,-0.304,-0.176,0.034,-0.056,106.110,1.722,1.138,0.528,3,3,3.353
1780148244304,-0.025,0.985,-0.301,-0.186,0.037,-0.050,105.715,2.441,1.125,0.477,3,3,4.860
1780148244318,-0.026,0.987,-0.298,-0.193,0.040,-0.041,105.490,2.461,1.059,0.441,3,3,3.227
1780148244332,-0.027,0.987,-0.299,-0.199,0.041,-0.031,105.684,2.447,1.046,0.418,3,3,3.387
1780148244345,-0.030,0.985,-0.297,-0.207,0.041,-0.022,105.665,2.712,0.976,0.484,5,5,3.738
1780148244359,-0.027,0.985,-0.291,-0.218,0.039,-0.015,105.040,2.308,1.004,0.519,5,5,3.226
1780148244373,-0.027,0.984,-0.287,-0.231,0.038,-0.009,104.690,2.231,0.981,0.583,5,5,3.325
1780148244386,-0.025,0.987,-0.277,-0.248,0.033,-0.006,103.617,1.866,1.057,0.711,5,5,3.239
1780148244400,-0.017,0.990,-0.276,-0.267,0.027,-0.007,103.603,0.908,1.100,0.770,5,5,3.246
1780148244413,-0.004,0.994,-0.278,-0.288,0.021,-0.014,103.866,-0.538,1.146,0.876,3,3,3.699
1780148244427,0.002,0.997,-0.273,-0.307,0.021,-0.024,103.475,-1.082,1.082,0.838,3,3,3.226
1780148244440,0.005,0.999,-0.268,-0.323,0.028,-0.036,102.996,-1.335,1.062,0.830,3,3,3.499
1780148244454,0.011,1.001,-0.264,-0.335,0.039,-0.048,102.692,-1.957,1.066,0.823,3,3,3.317
1780148244467,0.018,1.003,-0.261,-0.342,0.048,-0.062,102.473,-2.687,1.081,0.718,3,3,3.227
1780148244481,0.022,1.006,-0.258,-0.345,0.045,-0.070,102.221,-2.996,1.097,0.520,5,5,3.681
1780148244494,0.024,1.065,-0.258,-0.354,0.025,-0.043,101.645,-2.874,2.360,1.018,5,5,3.241
1780148244508,0.061,0.987,-0.279,-0.344,-0.017,-0.016,78.954,-6.439,1.344,1.309,5,5,3.497
1780148244522,0.048,1.019,-0.283,-0.323,-0.043,-0.010,81.150,-5.093,1.756,0.786,5,5,3.246
1780148244535,0.033,1.017,-0.283,-0.298,-0.059,-0.002,83.527,-3.018,1.073,0.620,5,5,3.379
1780148244549,0.018,1.015,-0.280,-0.269,-0.063,0.004,85.310,-1.121,1.043,0.536,5,5,3.810
1780148244563,0.009,1.009,-0.272,-0.241,-0.061,0.008,86.377,0.104,0.899,0.499,5,5,3.605
1780148244576,0.008,1.003,-0.258,-0.213,-0.058,0.011,86.417,0.224,0.860,0.511,5,5,3.249
1780148244590,0.012,0.997,-0.237,-0.185,-0.057,0.015,85.441,-0.369,0.905,0.547,5,5,3.247
1780148244603,0.015,0.991,-0.212,-0.159,-0.060,0.019,83.761,-0.894,0.926,0.563,5,5,3.227
1780148244616,0.015,0.984,-0.182,-0.136,-0.065,0.024,81.587,-0.854,0.962,0.519,5,5,3.736
1780148244630,0.009,0.978,-0.151,-0.118,-0.069,0.028,79.353,-0.055,1.011,0.421,5,5,3.223
1780148244644,0.001,0.974,-0.121,-0.104,-0.069,0.031,77.374,0.860,1.034,0.287,5,5,3.356
1780148244657,-0.005,0.971,-0.094,-0.094,-0.067,0.033,75.895,1.519,1.038,0.184,5,5,3.559
1780148244671,-0.009,0.969,-0.071,-0.088,-0.064,0.035,74.804,1.818,1.033,0.115,5,5,3.220
1780148244684,-0.009,0.967,-0.052,-0.084,-0.060,0.037,74.217,1.736,1.007,0.097,1,1,3.742
1780148244699,-0.009,0.967,-0.037,-0.083,-0.056,0.040,74.177,1.552,1.007,0.128,1,1,3.337
1780148244712,-0.008,0.968,-0.026,-0.083,-0.052,0.042,74.503,1.312,1.016,0.150,1,1,3.318
1780148244726,-0.007,0.970,-0.018,-0.084,-0.046,0.045,75.069,1.215,1.008,0.172,1,1,3.315
1780148244739,-0.009,0.970,-0.011,-0.086,-0.040,0.047,75.790,1.286,0.983,0.214,1,1,3.261
1780148244754,-0.010,0.971,-0.006,-0.088,-0.032,0.049,76.598,1.365,1.007,0.249,1,1,4.125
1780148244768,-0.010,0.973,-0.003,-0.091,-0.025,0.050,77.424,1.352,1.009,0.246,1,1,3.244
1780148244781,-0.011,0.974,0.000,-0.093,-0.019,0.052,78.276,1.413,0.997,0.228,1,1,3.226
1780148244795,-0.012,0.974,0.003,-0.096,-0.015,0.053,79.108,1.467,0.987,0.194,1,1,3.329
1780148244808,-0.014,0.973,0.004,-0.098,-0.014,0.053,79.888,1.615,0.954,0.173,1,1,3.434
1780148244822,-0.017,0.972,0.006,-0.101,-0.014,0.052,80.672,1.941,0.952,0.163,1,1,3.766
1780148244836,-0.023,0.971,0.006,-0.102,-0.014,0.050,81.509,2.571,0.960,0.141,1,1,3.314
1780148244849,-0.031,0.970,0.004,-0.102,-0.014,0.046,82.516,3.495,0.971,0.109,1,1,3.275
1780148244862,-0.042,0.969,0.000,-0.100,-0.010,0.041,83.712,4.715,0.998,0.145,1,1,3.236
1780148244877,-0.051,0.968,-0.006,-0.096,-0.003,0.032,85.173,5.753,0.986,0.272,1,1,3.771
1780148244891,-0.059,0.966,-0.016,-0.090,0.007,0.021,86.910,6.523,0.978,0.369,1,1,3.873
1780148244905,-0.064,0.965,-0.027,-0.083,0.018,0.009,88.680,6.794,0.989,0.433,1,1,3.243
1780148244918,-0.065,0.964,-0.038,-0.073,0.027,-0.003,90.464,6.687,0.987,0.456,1,1,3.293
1780148244932,-0.064,0.962,-0.052,-0.061,0.032,-0.017,92.336,6.285,0.991,0.471,1,1,3.388
1780148244945,-0.061,0.966,-0.066,-0.050,0.029,-0.026,93.979,5.657,1.111,0.371,1,1,3.253
1780148244959,-0.043,0.963,-0.081,-0.035,0.010,-0.024,95.935,3.235,1.047,0.597,5,5,3.921
1780148244973,-0.018,0.959,-0.094,-0.016,-0.026,-0.023,97.648,0.178,1.106,1.077,5,5,3.243
1780148244986,0.015,0.987,-0.087,0.022,-0.065,-0.014,96.692,-2.170,1.747,1.494,5,5,3.224
1780148244999,0.028,1.022,-0.069,0.064,-0.093,-0.018,95.046,-2.909,1.849,1.397,5,5,3.234
1780148245013,0.013,1.027,-0.063,0.086,-0.108,-0.025,94.308,-1.117,1.176,0.870,5,5,3.597
1780148245026,-0.001,1.023,-0.077,0.106,-0.108,-0.031,96.020,0.510,1.058,0.673,5,5,3.950
1780148245040,-0.009,1.013,-0.100,0.121,-0.095,-0.038,98.969,1.535,1.002,0.576,5,5,3.251
1780148245054,-0.020,1.010,-0.100,0.128,-0.070,-0.040,98.666,2.769,0.996,0.655,5,5,3.303
1780148245067,-0.033,1.013,-0.091,0.139,-0.035,-0.036,97.288,4.088,1.121,0.993,5,5,3.234
1780148245080,-0.041,1.014,-0.092,0.157,0.004,-0.027,97.273,4.838,1.071,1.191,5,5,3.244
1780148245094,-0.037,1.009,-0.110,0.173,0.025,-0.016,99.381,4.102,1.024,0.883,5,5,4.284
1780148245108,-0.030,1.003,-0.122,0.182,0.024,-0.005,100.706,3.000,0.979,0.497,5,5,3.246
1780148245122,-0.032,1.005,-0.128,0.189,0.023,0.009,100.986,3.149,1.069,0.527,5,5,3.304
1780148245135,-0.023,1.005,-0.135,0.195,0.026,0.018,101.490,1.925,1.061,0.456,5,5,3.355
1780148245149,-0.013,1.003,-0.142,0.200,0.028,0.023,101.993,0.682,1.037,0.345,5,5,3.236
1780148245170,-0.011,1.003,-0.150,0.203,0.028,0.027,102.614,0.410,1.038,0.311,1,1,11.655
1780148245184,-0.008,1.002,-0.158,0.203,0.028,0.029,103.123,0.014,1.031,0.240,1,1,3.448
1780148245198,-0.006,1.000,-0.164,0.203,0.027,0.032,103.497,-0.136,1.023,0.219,1,1,3.408
1780148245211,-0.006,0.999,-0.171,0.201,0.027,0.035,103.989,-0.072,1.022,0.192,1,1,3.398
1780148245225,-0.005,0.998,-0.177,0.198,0.027,0.037,104.343,-0.162,1.018,0.165,1,1,3.460
1780148245246,-0.004,0.996,-0.183,0.195,0.027,0.040,104.636,-0.230,1.014,0.157,1,1,8.624
1780148245260,-0.003,0.996,-0.188,0.192,0.027,0.043,104.876,-0.353,1.024,0.162,1,1,3.331
1780148245274,-0.001,0.995,-0.192,0.189,0.027,0.045,105.035,-0.498,1.032,0.162,1,1,3.375
1780148245287,0.001,0.995,-0.197,0.186,0.026,0.048,105.191,-0.726,1.031,0.156,1,1,3.688
1780148245302,0.003,0.995,-0.202,0.183,0.026,0.049,105.443,-0.942,1.037,0.142,1,1,3.418
1780148245315,0.006,0.994,-0.207,0.180,0.026,0.051,105.627,-1.127,1.039,0.126,1,1,3.700
1780148245329,0.008,0.994,-0.211,0.176,0.025,0.052,105.776,-1.312,1.037,0.110,1,1,3.228
1780148245346,0.010,0.993,-0.216,0.172,0.024,0.052,106.027,-1.521,1.033,0.094,1,1,3.309
1780148245359,0.011,0.993,-0.220,0.168,0.024,0.052,106.160,-1.571,1.034,0.076,1,1,3.256
1780148245374,0.013,0.992,-0.225,0.162,0.023,0.053,106.415,-1.652,1.017,0.065,1,1,4.999
1780148245388,0.014,0.992,-0.228,0.156,0.022,0.053,106.433,-1.689,1.048,0.071,1,1,3.714
1780148245402,0.015,0.992,-0.232,0.150,0.021,0.054,106.560,-1.699,1.036,0.065,1,1,3.235
1780148245415,0.017,0.992,-0.236,0.145,0.019,0.054,106.672,-1.878,1.035,0.059,1,1,3.258
1780148245428,0.019,0.991,-0.240,0.140,0.018,0.053,106.813,-2.023,1.038,0.054,1,1,3.246
1780148245442,0.021,0.991,-0.243,0.136,0.016,0.052,106.926,-2.205,1.035,0.050,1,1,3.223
1780148245455,0.024,0.990,-0.246,0.132,0.013,0.050,107.056,-2.523,1.030,0.055,1,1,3.695
1780148245469,0.027,0.989,-0.251,0.128,0.010,0.046,107.261,-2.739,1.035,0.093,1,1,3.342
1780148245482,0.030,0.989,-0.254,0.125,0.007,0.041,107.399,-2.934,1.029,0.124,1,1,3.256
1780148245496,0.032,0.988,-0.257,0.123,0.003,0.035,107.453,-3.096,1.036,0.173,1,1,3.231
1780148245509,0.034,0.989,-0.260,0.122,-0.001,0.028,107.495,-3.145,1.044,0.207,1,1,3.227
1780148245522,0.034,0.988,-0.262,0.120,-0.005,0.020,107.530,-3.051,1.034,0.226,4,4,3.695
1780148245536,0.033,0.989,-0.264,0.120,-0.008,0.013,107.508,-2.883,1.047,0.218,4,4,3.370
1780148245550,0.033,0.989,-0.267,0.120,-0.012,0.007,107.557,-2.709,1.042,0.226,4,4,3.237
1780148245563,0.032,0.989,-0.269,0.122,-0.014,0.000,107.587,-2.486,1.051,0.249,4,4,3.238
1780148245577,0.031,0.989,-0.272,0.124,-0.017,-0.005,107.677,-2.330,1.043,0.244,4,4,3.594
1780148245590,0.030,0.989,-0.274,0.127,-0.019,-0.009,107.696,-2.109,1.043,0.251,4,4,3.705
1780148245604,0.028,0.990,-0.277,0.131,-0.021,-0.013,107.826,-1.924,1.052,0.274,4,4,3.230
1780148245617,0.027,0.990,-0.280,0.136,-0.023,-0.017,107.900,-1.763,1.057,0.293,4,4,3.313
1780148245631,0.026,0.991,-0.282,0.141,-0.024,-0.020,108.003,-1.624,1.055,0.312,4,4,3.226
1780148245644,0.025,0.991,-0.286,0.147,-0.024,-0.023,108.170,-1.404,1.059,0.316,4,4,3.228
1780148245657,0.023,0.991,-0.290,0.153,-0.024,-0.024,108.424,-1.187,1.062,0.318,4,4,3.692
1780148245671,0.022,0.991,-0.294,0.159,-0.024,-0.025,108.700,-1.070,1.060,0.313,4,4,3.250
1780148245684,0.022,0.990,-0.298,0.165,-0.023,-0.026,108.992,-1.039,1.047,0.310,4,4,3.238
1780148245698,0.021,0.990,-0.303,0.169,-0.023,-0.027,109.284,-0.964,1.062,0.302,4,4,3.247
1780148245711,0.019,0.989,-0.307,0.174,-0.023,-0.028,109.623,-0.804,1.063,0.291,4,4,3.630
1780148245725,0.018,0.989,-0.312,0.178,-0.022,-0.029,109.933,-0.686,1.066,0.293,4,4,3.694
1780148245739,0.017,0.989,-0.317,0.182,-0.022,-0.030,110.232,-0.593,1.087,0.291,4,4,3.285
1780148245752,0.016,0.990,-0.322,0.186,-0.021,-0.030,110.465,-0.496,1.089,0.297,4,4,3.444
1780148245766,0.016,0.991,-0.326,0.190,-0.021,-0.031,110.707,-0.503,1.107,0.307,4,4,3.381
1780148245779,0.016,0.993,-0.331,0.195,-0.020,-0.032,110.892,-0.528,1.116,0.321,4,4,3.550
1780148245793,0.015,0.994,-0.336,0.200,-0.019,-0.033,111.153,-0.432,1.120,0.339,3,3,3.796
1780148245807,0.013,0.996,-0.341,0.206,-0.018,-0.034,111.429,-0.266,1.119,0.348,3,3,3.228
1780148245820,0.010,0.997,-0.346,0.211,-0.017,-0.033,111.633,-0.032,1.128,0.361,3,3,3.247
1780148245833,0.009,0.999,-0.351,0.218,-0.015,-0.032,111.896,0.054,1.136,0.382,3,3,3.228
1780148245847,0.002,1.001,-0.359,0.225,-0.011,-0.027,112.335,0.755,1.194,0.435,3,3,3.678
1780148245861,-0.000,1.004,-0.363,0.232,-0.010,-0.024,112.410,0.894,1.159,0.415,4,4,3.950
1780148245875,-0.006,1.009,-0.368,0.239,-0.007,-0.021,112.500,1.378,1.207,0.443,4,4,3.392
1780148245888,-0.008,1.013,-0.374,0.247,-0.002,-0.017,112.652,1.576,1.213,0.472,4,4,3.320
1780148245905,-0.018,1.021,-0.379,0.256,0.005,-0.016,112.649,2.379,1.325,0.526,4,4,6.348
1780148245918,-0.020,1.032,-0.385,0.267,0.015,-0.017,112.547,2.420,1.379,0.604,4,4,3.252
1780148245931,-0.013,1.040,-0.390,0.279,0.021,-0.018,112.576,1.585,1.312,0.625,4,4,3.700
1780148245945,-0.017,1.047,-0.395,0.292,0.027,-0.017,112.573,1.830,1.308,0.660,4,4,3.249
1780148245959,-0.025,1.054,-0.400,0.306,0.035,-0.017,112.554,2.513,1.326,0.717,4,4,3.291
1780148245972,-0.030,1.061,-0.403,0.321,0.045,-0.017,112.488,2.823,1.319,0.783,4,4,3.234
1780148245985,-0.034,1.069,-0.407,0.338,0.056,-0.016,112.387,3.059,1.326,0.829,4,4,3.237
1780148245999,-0.036,1.077,-0.409,0.355,0.068,-0.015,112.178,3.153,1.338,0.886,4,4,3.702
1780148246013,-0.035,1.084,-0.411,0.374,0.079,-0.015,111.933,2.864,1.323,0.947,4,4,3.246
1780148246029,-0.036,1.091,-0.407,0.395,0.093,-0.014,111.268,2.809,1.283,1.038,4,4,3.924
1780148246043,-0.033,1.096,-0.407,0.418,0.107,-0.010,110.998,2.443,1.267,1.119,4,4,3.448
1780148246056,-0.029,1.101,-0.405,0.444,0.121,-0.006,110.610,1.959,1.272,1.235,4,4,3.236
1780148246070,-0.024,1.106,-0.404,0.475,0.133,0.001,110.234,1.428,1.282,1.360,4,4,3.796
1780148246084,-0.019,1.114,-0.401,0.512,0.143,0.011,109.753,0.864,1.321,1.549,4,4,3.412
1780148246097,-0.012,1.123,-0.401,0.556,0.151,0.018,109.499,0.241,1.396,1.761,4,4,3.572
1780148246111,-0.002,1.134,-0.413,0.611,0.149,0.024,110.107,-0.510,1.535,2.039,4,4,3.248
1780148246124,0.008,1.134,-0.424,0.669,0.143,0.024,111.087,-1.403,1.335,2.176,4,4,3.284
1780148246138,0.020,1.132,-0.429,0.726,0.135,0.018,111.587,-2.576,1.247,2.202,4,4,3.791
1780148246152,0.038,1.139,-0.425,0.789,0.122,0.011,110.936,-3.988,1.418,2.438,4,4,3.232
1780148246165,0.054,1.129,-0.424,0.849,0.106,0.008,111.252,-5.746,1.073,2.440,4,4,3.362
1780148246178,0.068,1.110,-0.427,0.888,0.089,-0.002,112.631,-7.479,0.923,1.952,4,4,3.236
1780148246192,0.090,1.089,-0.414,0.906,0.076,-0.009,111.470,-10.684,0.864,1.417,4,4,3.227
1780148246205,0.144,1.049,-0.389,0.885,0.014,-0.001,105.459,-17.327,1.337,1.652,4,4,4.152
1780148246221,0.156,1.031,-0.357,0.842,-0.052,-0.007,101.272,-18.597,0.843,1.779,4,4,3.300
1780148246234,0.159,1.017,-0.324,0.793,-0.111,-0.015,97.417,-18.183,0.848,1.735,4,4,3.418
1780148246247,0.155,0.999,-0.295,0.742,-0.160,-0.020,93.923,-17.063,0.707,1.550,4,4,3.232
1780148246261,0.145,0.978,-0.268,0.682,-0.194,-0.027,90.594,-14.738,0.604,1.404,4,4,3.310
1780148246274,0.136,0.957,-0.244,0.613,-0.214,-0.033,87.675,-12.741,0.567,1.406,4,4,3.927
1780148246288,0.132,0.937,-0.221,0.535,-0.222,-0.037,85.155,-11.981,0.578,1.553,4,4,3.303
1780148246303,0.135,0.919,-0.200,0.450,-0.222,-0.036,83.133,-12.551,0.624,1.765,4,4,3.262
1780148246316,0.146,0.906,-0.183,0.361,-0.220,-0.033,82.104,-14.361,0.757,1.949,4,4,3.226
1780148246330,0.163,0.900,-0.169,0.273,-0.222,-0.024,81.951,-16.191,0.949,2.047,4,4,3.228
1780148246344,0.177,0.897,-0.161,0.185,-0.231,-0.011,82.548,-17.591,0.963,2.176,4,4,4.300
1780148246357,0.188,0.897,-0.156,0.097,-0.245,0.005,83.544,-18.319,1.004,2.317,4,4,3.252
1780148246371,0.190,0.903,-0.155,0.008,-0.259,0.025,84.861,-17.766,1.048,2.447,4,4,3.235
1780148246384,0.182,0.912,-0.158,-0.081,-0.266,0.046,86.419,-16.060,1.130,2.490,4,4,3.229
1780148246397,0.167,0.925,-0.163,-0.168,-0.261,0.070,87.979,-13.877,1.269,2.543,4,4,3.246
1780148246411,0.152,0.945,-0.171,-0.255,-0.245,0.095,89.518,-11.913,1.415,2.612,5,5,3.696
1780148246425,0.140,0.968,-0.183,-0.338,-0.222,0.119,91.171,-10.334,1.552,2.637,5,5,3.291
1780148246438,0.133,0.995,-0.199,-0.418,-0.195,0.142,92.867,-9.254,1.683,2.655,5,5,3.291
1780148246455,0.131,1.027,-0.220,-0.494,-0.166,0.163,94.620,-8.652,1.853,2.641,5,5,7.052
1780148246469,0.128,1.065,-0.247,-0.559,-0.133,0.186,96.464,-7.990,2.080,2.479,5,5,3.421
1780148246482,0.118,1.098,-0.278,-0.615,-0.091,0.209,98.473,-6.962,2.055,2.432,5,5,4.025
1780148246497,0.104,1.129,-0.309,-0.661,-0.036,0.229,100.391,-5.770,2.052,2.440,5,5,3.310
1780148246510,0.094,1.156,-0.339,-0.699,0.025,0.246,102.237,-4.863,2.021,2.408,5,5,3.222
1780148246524,0.089,1.170,-0.373,-0.730,0.085,0.260,104.587,-4.334,1.851,2.353,5,5,4.133
1780148246538,0.089,1.175,-0.411,-0.763,0.138,0.270,107.415,-4.242,1.787,2.271,5,5,3.268
1780148246551,0.092,1.179,-0.450,-0.794,0.179,0.277,110.097,-4.284,1.821,2.092,5,5,3.736
1780148246565,0.093,1.183,-0.488,-0.820,0.207,0.283,112.558,-4.249,1.842,1.816,5,5,3.229
1780148246578,0.091,1.185,-0.527,-0.839,0.222,0.288,115.060,-3.964,1.855,1.505,5,5,3.229
1780148246592,0.081,1.181,-0.570,-0.850,0.228,0.290,117.811,-3.200,1.856,1.254,5,5,3.256
1780148246605,0.069,1.177,-0.614,-0.853,0.228,0.287,120.365,-2.295,1.933,0.970,5,5,3.253
1780148246618,0.059,1.171,-0.658,-0.845,0.223,0.282,122.972,-1.674,1.941,0.674,5,5,3.855
1780148246632,0.052,1.164,-0.703,-0.826,0.213,0.275,125.436,-1.224,1.955,0.347,5,5,3.274
1780148246646,0.042,1.155,-0.743,-0.796,0.201,0.267,127.741,-0.563,1.902,0.130,5,5,3.263
1780148246659,0.027,1.145,-0.779,-0.757,0.190,0.256,129.795,0.370,1.824,0.280,5,5,3.264
1780148246673,0.010,1.134,-0.807,-0.711,0.182,0.242,131.473,1.469,1.720,0.501,5,5,3.261
1780148246686,-0.004,1.126,-0.827,-0.660,0.180,0.225,132.601,2.397,1.614,0.711,1,1,3.846
1780148246702,-0.042,1.095,-0.828,-0.601,0.203,0.188,134.591,6.225,1.291,1.460,1,1,5.097
1780148246715,-0.059,1.188,-0.739,-0.524,0.226,0.156,128.399,6.303,3.471,1.810,1,1,3.297
1780148246729,-0.089,1.221,-0.646,-0.427,0.242,0.137,121.367,7.347,2.492,2.230,1,1,3.256
1780148246743,-0.095,1.196,-0.642,-0.360,0.261,0.129,122.220,8.076,0.886,1.555,1,1,4.125
1780148246757,-0.099,1.180,-0.673,-0.270,0.283,0.137,124.702,7.940,1.594,2.272,1,1,4.400
1780148246771,-0.091,1.164,-0.650,-0.208,0.271,0.141,122.433,6.667,0.832,1.416,1,1,3.265
1780148246784,-0.063,1.160,-0.632,-0.154,0.261,0.153,120.451,3.464,1.233,1.342,1,1,3.265
1780148246802,-0.061,1.141,-0.634,-0.139,0.252,0.141,121.764,3.282,0.988,0.300,1,1,3.339
1780148246817,-0.052,1.133,-0.622,-0.132,0.245,0.126,120.640,2.198,1.046,0.285,1,1,4.788
1780148246830,-0.040,1.125,-0.611,-0.129,0.232,0.113,119.793,0.858,1.044,0.254,1,1,3.940
1780148246844,-0.029,1.117,-0.599,-0.127,0.220,0.103,118.828,-0.399,1.015,0.185,1,1,3.266
1780148246857,-0.022,1.112,-0.584,-0.124,0.207,0.094,117.436,-1.054,1.044,0.219,1,1,3.247
1780148246871,-0.018,1.107,-0.569,-0.119,0.193,0.085,116.190,-1.361,1.030,0.201,1,1,3.253
1780148246885,-0.018,1.102,-0.555,-0.110,0.182,0.079,114.987,-1.120,1.030,0.194,1,1,4.074
1780148246898,-0.019,1.098,-0.542,-0.098,0.172,0.075,113.921,-0.811,1.037,0.219,1,1,3.945
1780148246913,-0.018,1.094,-0.529,-0.086,0.163,0.072,112.921,-0.652,1.043,0.245,1,1,3.502
1780148246926,-0.018,1.091,-0.517,-0.073,0.154,0.070,112.117,-0.513,1.043,0.272,1,1,3.250
1780148246940,-0.017,1.087,-0.506,-0.060,0.146,0.068,111.420,-0.578,1.041,0.277,1,1,3.676
1780148246953,-0.012,1.083,-0.497,-0.049,0.139,0.065,110.949,-0.967,1.042,0.251,1,1,3.313
1780148246966,-0.007,1.078,-0.488,-0.039,0.132,0.061,110.562,-1.418,1.024,0.218,1,1,3.851
1780148246981,-0.002,1.074,-0.480,-0.032,0.125,0.056,110.257,-1.889,1.027,0.193,1,1,3.425
1780148246995,0.001,1.070,-0.471,-0.025,0.118,0.050,109.889,-2.075,1.028,0.196,1,1,3.638
1780148247008,0.001,1.067,-0.464,-0.019,0.111,0.044,109.532,-1.912,1.043,0.191,1,1,3.249
1780148247022,0.001,1.064,-0.456,-0.013,0.105,0.039,109.189,-1.658,1.035,0.179,1,1,3.250
1780148247035,0.001,1.061,-0.448,-0.007,0.100,0.034,108.835,-1.531,1.038,0.172,1,1,3.984
1780148247049,0.000,1.058,-0.441,-0.001,0.094,0.031,108.662,-1.325,1.030,0.156,1,1,3.246
1780148247063,0.002,1.054,-0.435,0.004,0.090,0.029,108.485,-1.429,1.030,0.143,1,1,3.578
1780148247076,0.005,1.051,-0.430,0.008,0.085,0.026,108.368,-1.580,1.035,0.138,1,1,3.642
1780148247090,0.006,1.049,-0.424,0.012,0.080,0.023,108.196,-1.606,1.039,0.134,1,1,3.753
1780148247104,0.007,1.047,-0.418,0.016,0.075,0.020,108.048,-1.628,1.037,0.149,1,1,3.826
1780148247118,0.007,1.044,-0.414,0.021,0.071,0.018,108.028,-1.526,1.036,0.159,1,1,3.254
1780148247131,0.009,1.041,-0.410,0.026,0.067,0.013,108.049,-1.652,1.035,0.179,1,1,3.246
1780148247144,0.009,1.039,-0.406,0.030,0.063,0.009,108.022,-1.525,1.048,0.183,1,1,3.346
1780148247158,0.011,1.037,-0.403,0.035,0.059,0.004,108.077,-1.617,1.049,0.207,1,1,3.384
1780148247172,0.012,1.035,-0.400,0.040,0.054,0.000,108.141,-1.632,1.043,0.220,1,1,4.309
1780148247187,0.011,1.033,-0.397,0.047,0.051,-0.005,108.196,-1.523,1.048,0.249,1,1,3.534
1780148247202,0.011,1.032,-0.394,0.054,0.047,-0.010,108.210,-1.381,1.049,0.272,1,1,5.409
1780148247216,0.011,1.030,-0.392,0.061,0.044,-0.015,108.257,-1.304,1.054,0.313,1,1,3.441
1780148247229,0.011,1.029,-0.390,0.070,0.041,-0.021,108.321,-1.195,1.059,0.346,1,1,3.259
1780148247242,0.010,1.028,-0.388,0.080,0.038,-0.027,108.448,-1.112,1.064,0.377,1,1,3.897
1780148247257,0.010,1.027,-0.387,0.090,0.035,-0.032,108.577,-1.033,1.066,0.401,1,1,3.367
1780148247270,0.009,1.026,-0.387,0.100,0.032,-0.038,108.794,-0.820,1.076,0.416,1,1,3.664
1780148247285,0.007,1.024,-0.387,0.110,0.029,-0.044,109.070,-0.624,1.056,0.428,1,1,4.660
1780148247300,0.005,1.022,-0.387,0.120,0.026,-0.050,109.304,-0.332,1.059,0.416,1,1,4.803
1780148247314,0.003,1.021,-0.388,0.129,0.024,-0.054,109.623,-0.097,1.073,0.396,2,2,3.885
1780148247328,0.000,1.020,-0.390,0.137,0.021,-0.057,109.923,0.201,1.090,0.379,2,2,3.485
1780148247342,-0.002,1.020,-0.391,0.145,0.018,-0.060,110.174,0.465,1.114,0.373,2,2,3.280
1780148247355,-0.004,1.021,-0.393,0.153,0.016,-0.063,110.457,0.687,1.130,0.384,2,2,3.431
1780148247370,-0.007,1.022,-0.396,0.161,0.013,-0.066,110.727,0.870,1.139,0.401,2,2,3.439
1780148247385,-0.007,1.024,-0.398,0.170,0.011,-0.070,110.933,0.914,1.161,0.443,3,3,6.187
1780148247406,-0.009,1.039,-0.403,0.177,0.006,-0.064,110.868,0.985,1.449,0.399,3,3,9.150
1780148247420,-0.014,1.042,-0.406,0.190,0.001,-0.065,111.117,1.415,1.214,0.551,3,3,3.703
1780148247435,-0.017,1.045,-0.409,0.204,-0.003,-0.067,111.268,1.712,1.225,0.585,3,3,4.360
1780148247454,-0.024,1.053,-0.412,0.219,-0.005,-0.069,111.300,2.228,1.311,0.635,3,3,8.754
1780148247469,-0.040,1.067,-0.415,0.236,-0.002,-0.074,111.097,3.439,1.506,0.714,3,3,4.948
1780148247483,-0.034,1.084,-0.419,0.256,0.000,-0.079,110.938,2.771,1.544,0.813,3,3,3.469
1780148247496,-0.030,1.100,-0.424,0.280,0.001,-0.083,110.801,2.348,1.554,0.917,3,3,3.255
1780148247511,-0.030,1.117,-0.426,0.308,-0.000,-0.084,110.540,2.179,1.564,1.031,3,3,4.288
1780148247525,-0.029,1.136,-0.427,0.339,-0.001,-0.084,110.144,2.001,1.603,1.161,3,3,3.526
1780148247538,-0.026,1.158,-0.427,0.375,-0.003,-0.082,109.561,1.677,1.697,1.305,4,4,3.689
1780148247553,-0.019,1.184,-0.422,0.415,-0.005,-0.076,108.695,1.129,1.785,1.464,4,4,3.656
1780148247566,-0.009,1.209,-0.414,0.460,-0.014,-0.068,107.627,0.392,1.780,1.644,4,4,3.226
1780148247579,0.001,1.228,-0.401,0.509,-0.028,-0.058,106.354,-0.354,1.671,1.834,4,4,3.218
1780148247593,0.009,1.242,-0.387,0.564,-0.047,-0.048,105.096,-0.993,1.551,2.065,4,4,3.247
1780148247606,0.011,1.248,-0.381,0.631,-0.065,-0.039,104.580,-1.059,1.407,2.454,4,4,3.707
1780148247620,0.001,1.240,-0.395,0.701,-0.071,-0.030,106.376,-0.103,1.305,2.519,4,4,3.272
1780148247633,0.004,1.201,-0.414,0.763,-0.076,-0.017,111.256,-0.467,0.887,2.407,4,4,3.233
1780148247646,0.059,1.176,-0.401,0.793,-0.109,-0.008,110.223,-6.435,1.420,1.862,4,4,3.257
1780148247660,0.114,1.152,-0.361,0.806,-0.183,0.014,104.636,-11.370,1.560,2.460,4,4,3.371
1780148247673,0.139,1.130,-0.320,0.806,-0.269,0.039,99.244,-13.960,1.086,2.717,4,4,3.956
1780148247687,0.137,1.106,-0.280,0.793,-0.352,0.060,94.011,-13.168,0.838,2.612,4,4,3.230
1780148247701,0.127,1.083,-0.244,0.769,-0.423,0.084,89.540,-11.414,0.795,2.400,4,4,3.245
1780148247714,0.113,1.057,-0.214,0.735,-0.477,0.111,85.580,-8.757,0.695,2.042,4,4,3.365
1780148247728,0.099,1.031,-0.189,0.691,-0.510,0.140,82.362,-5.974,0.616,1.693,4,4,3.273
1780148247741,0.089,1.005,-0.168,0.638,-0.526,0.170,79.911,-4.193,0.552,1.536,4,4,3.691
1780148247755,0.088,0.981,-0.151,0.576,-0.530,0.204,78.453,-4.410,0.515,1.631,4,4,3.314
1780148247768,0.088,0.962,-0.136,0.506,-0.528,0.243,77.697,-4.868,0.583,1.864,4,4,3.249
1780148247782,0.089,0.949,-0.122,0.434,-0.523,0.283,77.501,-5.288,0.685,2.005,4,4,3.325
1780148247795,0.089,0.942,-0.111,0.360,-0.517,0.323,77.796,-5.393,0.815,2.093,4,4,3.282
1780148247810,0.084,0.940,-0.104,0.285,-0.513,0.362,78.573,-4.672,0.889,2.198,4,4,4.492
1780148247823,0.072,0.943,-0.099,0.209,-0.509,0.399,79.657,-3.243,1.026,2.270,4,4,3.223
1780148247837,0.053,0.951,-0.098,0.133,-0.502,0.435,80.939,-1.244,1.177,2.301,4,4,3.227
1780148247850,0.026,0.960,-0.099,0.059,-0.491,0.469,82.372,1.362,1.296,2.325,4,4,3.234
1780148247863,-0.009,0.970,-0.101,-0.016,-0.473,0.497,83.819,4.290,1.435,2.314,4,4,3.252
1780148247877,-0.042,0.983,-0.106,-0.090,-0.447,0.519,85.297,6.800,1.498,2.300,5,5,3.727
1780148247891,-0.067,1.001,-0.113,-0.162,-0.414,0.537,86.770,8.431,1.536,2.292,5,5,3.274
1780148247904,-0.085,1.020,-0.121,-0.231,-0.381,0.551,88.224,9.344,1.548,2.272,5,5,3.319
1780148247918,-0.099,1.037,-0.135,-0.297,-0.348,0.562,89.995,9.931,1.530,2.251,5,5,4.010
1780148247932,-0.114,1.054,-0.150,-0.362,-0.314,0.569,91.737,10.517,1.569,2.257,5,5,3.355
1780148247945,-0.132,1.076,-0.164,-0.424,-0.276,0.573,93.245,11.220,1.703,2.253,5,5,3.997
1780148247959,-0.149,1.100,-0.181,-0.481,-0.233,0.573,94.671,11.768,1.794,2.224,5,5,3.231
1780148247973,-0.161,1.123,-0.199,-0.533,-0.186,0.568,96.123,11.938,1.777,2.195,5,5,3.323
1780148247987,-0.162,1.144,-0.218,-0.581,-0.139,0.561,97.604,11.364,1.737,2.158,5,5,4.072
1780148248000,-0.154,1.161,-0.241,-0.625,-0.098,0.555,99.341,10.225,1.697,2.055,5,5,3.377
1780148248014,-0.142,1.174,-0.266,-0.664,-0.063,0.551,101.244,8.904,1.694,1.910,5,5,3.739
1780148248028,-0.133,1.183,-0.294,-0.697,-0.038,0.549,103.317,7.791,1.643,1.751,5,5,3.487
1780148248041,-0.126,1.189,-0.322,-0.725,-0.020,0.546,105.431,6.975,1.606,1.596,5,5,3.309
1780148248055,-0.123,1.192,-0.351,-0.746,-0.010,0.543,107.568,6.546,1.605,1.390,5,5,3.236
1780148248068,-0.128,1.194,-0.381,-0.759,-0.006,0.537,109.697,6.669,1.640,1.161,5,5,3.251
1780148248082,-0.130,1.191,-0.413,-0.762,-0.006,0.530,112.103,6.692,1.586,0.923,5,5,3.778
1780148248095,-0.136,1.184,-0.447,-0.757,-0.010,0.520,114.613,6.916,1.596,0.680,5,5,3.248
1780148248109,-0.144,1.177,-0.479,-0.742,-0.016,0.507,117.009,7.382,1.595,0.423,5,5,3.237
1780148248122,-0.154,1.167,-0.509,-0.718,-0.020,0.491,119.238,7.993,1.561,0.184,5,5,3.220
1780148248136,-0.164,1.158,-0.536,-0.686,-0.022,0.471,121.142,8.628,1.511,0.169,5,5,3.871
1780148248149,-0.172,1.148,-0.557,-0.648,-0.021,0.447,122.707,9.139,1.432,0.396,1,1,3.690
1780148248163,-0.175,1.140,-0.574,-0.604,-0.019,0.420,123.863,9.269,1.368,0.590,1,1,3.231
1780148248177,-0.174,1.132,-0.588,-0.557,-0.018,0.391,124.680,9.012,1.325,0.753,1,1,3.542
1780148248191,-0.169,1.128,-0.597,-0.508,-0.020,0.360,125.022,8.352,1.301,0.901,1,1,3.611
1780148248204,-0.171,1.117,-0.592,-0.454,-0.018,0.321,124.360,8.725,1.026,1.171,1,1,3.296
1780148248218,-0.148,1.174,-0.519,-0.405,-0.017,0.279,118.810,7.162,2.664,1.190,1,1,3.719
1780148248232,-0.139,1.240,-0.400,-0.329,-0.030,0.227,112.333,6.399,3.477,2.024,1,1,3.250
1780148248245,-0.162,1.201,-0.400,-0.268,-0.023,0.203,114.844,10.611,0.846,1.381,1,1,3.325
1780148248258,-0.180,1.195,-0.447,-0.201,-0.011,0.185,117.607,11.289,1.906,1.601,1,1,3.257
1780148248272,-0.186,1.169,-0.465,-0.159,-0.002,0.178,120.200,11.803,1.085,0.960,1,1,3.256
1780148248285,-0.177,1.170,-0.432,-0.122,0.007,0.174,116.072,10.669,1.212,0.858,1,1,3.941
1780148248299,-0.172,1.163,-0.419,-0.086,0.014,0.173,114.334,9.985,1.014,0.896,1,1,3.233
1780148248313,-0.170,1.151,-0.415,-0.054,0.024,0.176,113.906,9.657,0.955,0.854,1,1,3.291
1780148248326,-0.162,1.141,-0.409,-0.024,0.028,0.182,113.156,8.707,0.975,0.838,1,1,3.594
1780148248340,-0.150,1.132,-0.404,0.001,0.024,0.188,112.700,7.228,0.991,0.753,1,1,3.258
1780148248353,-0.132,1.123,-0.402,0.018,0.020,0.187,112.604,5.137,1.015,0.482,1,1,3.711
1780148248367,-0.121,1.114,-0.399,0.027,0.018,0.185,112.326,4.039,0.989,0.289,1,1,3.299
1780148248380,-0.111,1.108,-0.395,0.033,0.016,0.178,111.829,2.985,1.017,0.188,1,1,3.263
1780148248394,-0.101,1.101,-0.390,0.037,0.013,0.171,111.370,2.136,1.015,0.162,1,1,4.004
1780148248408,-0.095,1.096,-0.385,0.041,0.011,0.165,110.815,1.678,1.015,0.150,1,1,3.242
1780148248421,-0.089,1.091,-0.380,0.044,0.009,0.158,110.235,1.319,1.027,0.139,1,1,3.705
1780148248435,-0.084,1.088,-0.374,0.047,0.006,0.151,109.554,1.040,1.046,0.145,1,1,3.300
1780148248449,-0.079,1.084,-0.368,0.051,0.002,0.145,109.042,0.848,1.033,0.178,1,1,3.247
1780148248462,-0.076,1.080,-0.364,0.055,-0.001,0.141,108.708,0.771,1.028,0.182,1,1,3.545
1780148248478,-0.072,1.077,-0.360,0.058,-0.003,0.138,108.337,0.636,1.037,0.161,1,1,6.049
1780148248492,-0.067,1.073,-0.357,0.061,-0.005,0.135,108.100,0.414,1.037,0.141,1,1,3.700
1780148248506,-0.062,1.070,-0.353,0.062,-0.007,0.131,107.830,0.077,1.039,0.115,1,1,3.229
1780148248519,-0.057,1.067,-0.350,0.062,-0.009,0.128,107.677,-0.207,1.034,0.102,1,1,3.259
1780148248532,-0.051,1.064,-0.346,0.062,-0.011,0.124,107.364,-0.596,1.042,0.103,1,1,3.233
1780148248548,-0.046,1.062,-0.342,0.063,-0.014,0.119,107.025,-0.879,1.048,0.122,1,1,5.736
1780148248563,-0.043,1.059,-0.339,0.066,-0.015,0.115,106.879,-0.899,1.038,0.146,1,1,3.957
1780148248578,-0.041,1.057,-0.336,0.069,-0.017,0.112,106.752,-0.822,1.040,0.152,1,1,3.543
1780148248591,-0.039,1.054,-0.334,0.072,-0.017,0.109,106.660,-0.775,1.029,0.163,1,1,3.425
1780148248612,-0.036,1.051,-0.332,0.074,-0.017,0.108,106.605,-0.912,1.024,0.153,1,1,5.988
1780148248626,-0.031,1.047,-0.330,0.076,-0.017,0.106,106.616,-1.191,1.021,0.142,1,1,3.376
1780148248639,-0.027,1.044,-0.329,0.078,-0.016,0.104,106.689,-1.399,1.025,0.129,1,1,3.904
1780148248654,-0.024,1.042,-0.328,0.079,-0.016,0.101,106.716,-1.539,1.030,0.120,1,1,3.729
1780148248668,-0.020,1.039,-0.327,0.080,-0.015,0.099,106.767,-1.679,1.028,0.111,1,1,3.677
1780148248688,-0.018,1.037,-0.326,0.081,-0.014,0.097,106.823,-1.734,1.040,0.112,1,1,8.298
1780148248701,-0.014,1.035,-0.325,0.082,-0.013,0.095,106.845,-1.868,1.034,0.112,1,1,3.303
1780148248715,-0.011,1.033,-0.324,0.082,-0.012,0.093,106.856,-2.008,1.037,0.112,1,1,3.729
1780148248728,-0.009,1.031,-0.323,0.083,-0.011,0.090,106.870,-2.017,1.043,0.115,1,1,3.274
1780148248742,-0.007,1.030,-0.322,0.085,-0.010,0.088,106.882,-2.050,1.053,0.120,1,1,3.224
1780148248755,-0.004,1.029,-0.322,0.086,-0.009,0.086,106.920,-2.093,1.046,0.128,1,1,3.234
1780148248769,-0.001,1.027,-0.322,0.088,-0.008,0.084,106.972,-2.218,1.049,0.139,1,1,3.267
1780148248782,0.002,1.026,-0.322,0.090,-0.007,0.081,107.063,-2.401,1.050,0.154,2,2,3.714
1780148248796,0.004,1.025,-0.321,0.093,-0.006,0.079,107.101,-2.470,1.053,0.173,2,2,3.247
1780148248809,0.007,1.024,-0.321,0.097,-0.005,0.076,107.165,-2.528,1.056,0.202,2,2,3.235
1780148248822,0.008,1.024,-0.321,0.103,-0.004,0.072,107.214,-2.528,1.070,0.243,2,2,3.230
1780148248836,0.010,1.024,-0.322,0.109,-0.002,0.069,107.278,-2.570,1.077,0.288,2,2,3.238
1780148248849,0.013,1.024,-0.323,0.118,-0.001,0.065,107.368,-2.628,1.089,0.338,3,3,3.680
1780148248863,0.015,1.025,-0.324,0.127,0.000,0.060,107.442,-2.686,1.105,0.375,3,3,3.218
1780148248876,0.017,1.027,-0.325,0.137,0.001,0.056,107.583,-2.697,1.119,0.404,3,3,3.249
1780148248893,0.018,1.028,-0.328,0.147,0.001,0.051,107.804,-2.671,1.118,0.421,3,3,7.148
1780148248907,0.020,1.029,-0.330,0.158,0.001,0.047,108.015,-2.683,1.127,0.440,3,3,3.421
1780148248920,0.020,1.030,-0.333,0.169,0.000,0.043,108.301,-2.561,1.117,0.455,3,3,3.807
1780148248934,0.020,1.031,-0.336,0.180,-0.000,0.039,108.522,-2.398,1.136,0.476,3,3,3.348
1780148248948,0.020,1.033,-0.340,0.192,-0.001,0.037,108.786,-2.312,1.151,0.495,3,3,3.356
1780148248961,0.013,1.039,-0.344,0.205,-0.001,0.054,108.931,-1.491,1.253,0.749,3,3,3.230
1780148248975,-0.005,1.048,-0.347,0.218,-0.000,0.047,108.919,0.242,1.385,0.558,3,3,3.248
1780148248988,-0.005,1.049,-0.352,0.230,-0.001,0.043,109.304,0.306,1.165,0.546,4,4,3.783
1780148249002,-0.003,1.048,-0.356,0.242,-0.001,0.040,109.679,0.047,1.119,0.564,4,4,3.250
1780148249015,-0.002,1.048,-0.361,0.255,-0.001,0.037,110.136,-0.070,1.139,0.576,4,4,3.249
1780148249029,0.000,1.048,-0.367,0.267,-0.002,0.034,110.609,-0.271,1.155,0.587,4,4,3.426
1780148249042,0.003,1.048,-0.372,0.279,-0.002,0.031,111.019,-0.528,1.165,0.600,4,4,3.271
1780148249056,0.003,1.050,-0.378,0.292,-0.003,0.028,111.384,-0.542,1.203,0.617,4,4,3.933
1780148249070,-0.004,1.059,-0.384,0.305,0.000,0.023,111.452,0.153,1.362,0.658,4,4,3.491
1780148249083,0.003,1.070,-0.389,0.319,0.004,0.018,111.453,-0.483,1.413,0.717,4,4,3.273
1780148249097,0.013,1.079,-0.395,0.335,0.004,0.014,111.516,-1.332,1.399,0.759,4,4,3.262
1780148249110,0.014,1.087,-0.398,0.353,0.003,0.012,111.364,-1.373,1.356,0.820,4,4,3.250
1780148249123,0.006,1.098,-0.401,0.373,0.004,0.010,111.152,-0.552,1.425,0.895,4,4,3.687
1780148249138,0.001,1.111,-0.403,0.396,0.008,0.009,110.815,-0.060,1.461,0.998,4,4,4.170
1780148249151,-0.003,1.124,-0.403,0.422,0.015,0.010,110.349,0.209,1.481,1.109,4,4,3.262
1780148249166,-0.004,1.139,-0.401,0.452,0.023,0.012,109.717,0.308,1.494,1.252,4,4,4.210
1780148249179,-0.002,1.155,-0.396,0.486,0.032,0.016,108.869,0.164,1.541,1.389,4,4,3.452
1780148249193,0.001,1.168,-0.389,0.523,0.040,0.023,107.939,-0.142,1.478,1.536,4,4,3.855
1780148249207,0.006,1.182,-0.381,0.567,0.048,0.032,106.988,-0.524,1.489,1.734,4,4,3.298
1780148249221,0.012,1.193,-0.375,0.622,0.052,0.040,106.340,-1.039,1.463,2.072,4,4,4.457
1780148249235,0.013,1.206,-0.379,0.692,0.053,0.047,106.448,-1.071,1.576,2.513,4,4,3.242
1780148249248,0.015,1.198,-0.390,0.759,0.059,0.051,107.851,-1.161,1.199,2.515,4,4,3.328
1780148249262,0.029,1.164,-0.404,0.812,0.058,0.048,111.814,-3.214,0.898,2.207,4,4,4.553
1780148249276,0.061,1.147,-0.401,0.845,0.046,0.035,111.965,-6.880,1.135,1.743,4,4,3.292
1780148249290,0.104,1.121,-0.375,0.857,0.007,0.042,108.086,-12.058,1.204,1.544,4,4,3.232
1780148249303,0.137,1.101,-0.340,0.839,-0.063,0.055,103.269,-15.375,1.169,1.971,4,4,3.262
1780148249317,0.149,1.087,-0.304,0.815,-0.132,0.055,98.944,-16.240,1.003,1.932,4,4,3.434
1780148249330,0.147,1.068,-0.271,0.780,-0.199,0.057,94.792,-15.387,0.795,1.930,4,4,3.861
1780148249345,0.140,1.045,-0.243,0.735,-0.253,0.057,90.999,-13.851,0.665,1.720,4,4,3.881
1780148249359,0.127,1.022,-0.217,0.680,-0.293,0.057,87.710,-11.128,0.636,1.526,4,4,4.254
1780148249373,0.115,0.998,-0.194,0.615,-0.315,0.056,84.929,-8.738,0.593,1.392,4,4,3.294
1780148249386,0.107,0.975,-0.174,0.542,-0.322,0.059,82.499,-7.087,0.544,1.453,4,4,3.466
1780148249400,0.102,0.953,-0.155,0.461,-0.316,0.064,80.554,-6.412,0.545,1.667,4,4,3.707
1780148249415,0.103,0.937,-0.139,0.373,-0.301,0.074,79.461,-6.888,0.634,1.942,4,4,3.553
1780148249429,0.113,0.928,-0.125,0.281,-0.284,0.088,79.177,-8.451,0.814,2.157,4,4,4.188
1780148249443,0.124,0.922,-0.115,0.188,-0.271,0.105,79.564,-9.982,0.870,2.296,4,4,3.354
1780148249456,0.133,0.923,-0.110,0.095,-0.264,0.124,80.478,-10.970,1.007,2.396,4,4,3.284
1780148249470,0.139,0.928,-0.109,0.002,-0.264,0.144,81.807,-11.245,1.086,2.520,4,4,3.977
1780148249484,0.135,0.941,-0.110,-0.090,-0.266,0.165,83.268,-10.391,1.219,2.606,4,4,3.628
1780148249498,0.120,0.958,-0.116,-0.180,-0.267,0.185,84.879,-8.537,1.385,2.619,4,4,3.332
1780148249512,0.095,0.980,-0.124,-0.266,-0.262,0.203,86.478,-6.148,1.554,2.589,4,4,3.570
1780148249525,0.070,1.006,-0.134,-0.349,-0.247,0.216,87.985,-4.025,1.679,2.570,4,4,3.231
1780148249539,0.054,1.039,-0.145,-0.429,-0.226,0.227,89.384,-2.735,1.834,2.570,5,5,3.788
1780148249552,0.047,1.075,-0.163,-0.503,-0.206,0.236,91.026,-2.158,1.944,2.492,5,5,3.234
1780148249566,0.045,1.109,-0.187,-0.568,-0.186,0.244,92.887,-1.944,1.978,2.335,5,5,3.417
1780148249580,0.042,1.140,-0.213,-0.625,-0.169,0.249,94.850,-1.742,1.991,2.165,5,5,3.441
1780148249593,0.036,1.167,-0.243,-0.676,-0.147,0.250,96.929,-1.304,1.964,2.041,5,5,3.398
1780148249607,0.029,1.189,-0.273,-0.722,-0.119,0.251,99.074,-0.791,1.915,2.038,5,5,3.735
1780148249620,0.017,1.203,-0.306,-0.766,-0.079,0.256,101.439,-0.021,1.836,2.158,5,5,3.245
1780148249634,0.002,1.212,-0.337,-0.809,-0.030,0.263,103.791,1.033,1.769,2.348,5,5,3.259
1780148249650,-0.013,1.218,-0.370,-0.848,0.029,0.267,106.147,1.926,1.776,2.453,5,5,3.543
1780148249664,-0.020,1.223,-0.410,-0.879,0.085,0.270,108.817,2.285,1.847,2.305,5,5,3.453
1780148249677,-0.021,1.226,-0.457,-0.898,0.131,0.269,111.701,2.172,1.982,1.947,5,5,3.898
1780148249692,-0.019,1.225,-0.513,-0.902,0.162,0.264,114.874,1.891,2.118,1.391,5,5,4.319
1780148249706,-0.019,1.219,-0.575,-0.889,0.176,0.257,118.275,1.775,2.208,0.790,5,5,3.516
1780148249720,-0.028,1.210,-0.635,-0.861,0.179,0.247,121.522,2.151,2.210,0.291,5,5,3.415
1780148249734,-0.042,1.200,-0.685,-0.818,0.177,0.232,124.337,2.884,2.052,0.360,5,5,3.341
1780148249748,-0.053,1.190,-0.724,-0.765,0.174,0.214,126.645,3.469,1.886,0.666,1,1,4.319
1780148249770,-0.053,1.181,-0.750,-0.704,0.165,0.196,128.216,3.344,1.643,0.919,1,1,7.371
1780148249784,-0.028,1.149,-0.750,-0.638,0.142,0.175,130.258,0.082,1.027,1.237,1,1,3.532
1780148249798,0.015,1.228,-0.654,-0.546,0.115,0.142,123.938,-1.444,3.441,2.052,1,1,3.991
1780148249811,-0.009,1.242,-0.579,-0.455,0.094,0.123,117.410,0.199,1.945,2.000,1,1,3.265
1780148249825,-0.034,1.214,-0.577,-0.386,0.093,0.116,118.750,3.580,0.996,1.413,1,1,3.692
1780148249838,-0.050,1.194,-0.617,-0.307,0.103,0.114,122.028,4.466,1.733,1.782,1,1,3.234
1780148249852,-0.055,1.176,-0.609,-0.258,0.107,0.122,121.735,5.115,0.905,1.080,1,1,3.242
1780148249865,-0.048,1.179,-0.576,-0.209,0.110,0.130,118.082,4.183,1.250,1.124,1,1,3.338
1780148249878,-0.041,1.164,-0.568,-0.170,0.105,0.134,117.776,3.077,0.926,0.887,1,1,3.222
1780148249892,-0.037,1.148,-0.565,-0.148,0.104,0.131,118.166,2.505,0.959,0.433,1,1,3.686
1780148249905,-0.038,1.138,-0.556,-0.134,0.104,0.130,117.467,2.544,0.979,0.269,1,1,3.242
1780148249919,-0.037,1.131,-0.545,-0.120,0.101,0.130,116.491,2.374,1.010,0.261,1,1,3.240
1780148249932,-0.033,1.123,-0.535,-0.110,0.098,0.130,115.723,1.860,1.002,0.209,1,1,3.288
1780148249946,-0.027,1.116,-0.523,-0.106,0.095,0.129,114.799,1.116,1.017,0.120,1,1,3.265
1780148249959,-0.020,1.111,-0.511,-0.104,0.089,0.126,113.703,0.330,1.040,0.094,1,1,3.719
1780148249973,-0.015,1.106,-0.499,-0.102,0.082,0.120,112.688,-0.179,1.029,0.115,1,1,3.248
1780148249986,-0.013,1.102,-0.486,-0.097,0.076,0.115,111.715,-0.315,1.027,0.102,1,1,3.227
1780148249999,-0.014,1.098,-0.474,-0.090,0.070,0.112,110.756,-0.069,1.043,0.132,1,1,3.269
1780148250013,-0.015,1.095,-0.464,-0.080,0.065,0.109,110.001,0.136,1.049,0.188,1,1,3.234
1780148250026,-0.016,1.091,-0.454,-0.069,0.061,0.109,109.407,0.304,1.045,0.230,1,1,3.754
1780148250040,-0.016,1.087,-0.445,-0.059,0.058,0.109,108.891,0.377,1.031,0.237,1,1,3.246
1780148250053,-0.014,1.084,-0.437,-0.050,0.055,0.110,108.426,0.128,1.031,0.227,1,1,3.237
1780148250067,-0.010,1.080,-0.429,-0.042,0.051,0.109,108.047,-0.254,1.032,0.196,1,1,3.244
1780148250080,-0.006,1.076,-0.422,-0.035,0.048,0.108,107.794,-0.662,1.042,0.172,1,1,3.258
1780148250093,-0.002,1.073,-0.415,-0.028,0.045,0.105,107.486,-1.005,1.048,0.161,1,1,3.784
1780148250107,-0.001,1.071,-0.409,-0.021,0.043,0.102,107.214,-1.095,1.051,0.170,1,1,3.342
1780148250121,0.001,1.068,-0.402,-0.013,0.041,0.099,106.939,-1.147,1.047,0.183,1,1,3.253
1780148250134,0.002,1.066,-0.396,-0.006,0.039,0.096,106.728,-1.226,1.044,0.184,1,1,3.256
1780148250148,0.004,1.063,-0.391,0.001,0.037,0.093,106.609,-1.338,1.042,0.177,1,1,3.250
1780148250161,0.007,1.060,-0.386,0.007,0.035,0.089,106.533,-1.564,1.042,0.167,1,1,3.782
1780148250175,0.010,1.057,-0.382,0.012,0.033,0.085,106.535,-1.833,1.033,0.156,1,1,3.251
1780148250188,0.012,1.054,-0.378,0.017,0.030,0.080,106.529,-1.981,1.038,0.159,1,1,3.246
1780148250202,0.013,1.052,-0.375,0.022,0.028,0.075,106.524,-2.006,1.032,0.162,1,1,3.580
1780148250215,0.014,1.049,-0.371,0.027,0.025,0.069,106.517,-1.916,1.042,0.174,1,1,3.249
1780148250229,0.014,1.047,-0.368,0.032,0.022,0.064,106.550,-1.857,1.041,0.174,1,1,3.713
1780148250242,0.014,1.045,-0.366,0.037,0.020,0.060,106.608,-1.802,1.050,0.178,1,1,3.246
1780148250256,0.015,1.043,-0.363,0.042,0.018,0.056,106.607,-1.765,1.047,0.187,1,1,3.241
1780148250269,0.018,1.041,-0.360,0.046,0.016,0.048,106.689,-2.014,1.047,0.237,1,1,3.297
1780148250283,0.018,1.040,-0.359,0.052,0.014,0.044,106.762,-1.920,1.053,0.209,1,1,3.251
1780148250296,0.017,1.038,-0.356,0.058,0.012,0.040,106.806,-1.671,1.053,0.219,1,1,3.767
1780148250310,0.015,1.037,-0.355,0.064,0.010,0.037,106.884,-1.414,1.071,0.228,1,1,3.259
1780148250323,0.015,1.037,-0.354,0.070,0.009,0.033,106.950,-1.327,1.082,0.247,1,1,3.320
1780148250337,0.014,1.036,-0.353,0.077,0.008,0.030,107.088,-1.221,1.079,0.266,1,1,3.246
1780148250350,0.013,1.036,-0.353,0.085,0.007,0.026,107.198,-1.087,1.077,0.291,1,1,3.237
1780148250363,0.013,1.036,-0.352,0.093,0.006,0.022,107.294,-1.049,1.084,0.318,3,3,3.674
1780148250377,0.014,1.036,-0.352,0.102,0.005,0.018,107.409,-1.076,1.115,0.355,3,3,3.257
1780148250390,0.014,1.037,-0.352,0.112,0.004,0.013,107.530,-0.996,1.110,0.380,3,3,3.251
1780148250404,0.012,1.038,-0.353,0.122,0.004,0.009,107.686,-0.820,1.119,0.407,3,3,3.245
1780148250417,0.009,1.038,-0.354,0.133,0.004,0.004,107.898,-0.475,1.113,0.436,3,3,3.235
1780148250430,0.007,1.040,-0.355,0.145,0.004,-0.001,108.021,-0.235,1.146,0.471,3,3,3.688
1780148250445,0.004,1.042,-0.356,0.158,0.006,-0.007,108.199,0.138,1.145,0.522,3,3,3.619
1780148250458,0.002,1.043,-0.358,0.172,0.007,-0.011,108.403,0.245,1.153,0.551,3,3,3.573
1780148250472,0.001,1.046,-0.360,0.188,0.009,-0.015,108.592,0.404,1.168,0.598,3,3,3.275
1780148250488,0.000,1.048,-0.364,0.204,0.011,-0.020,108.844,0.383,1.187,0.658,3,3,3.447
1780148250502,0.002,1.052,-0.367,0.222,0.012,-0.025,109.098,0.132,1.212,0.699,3,3,3.963
1780148250516,0.005,1.055,-0.371,0.240,0.012,-0.030,109.410,-0.107,1.227,0.739,3,3,3.413
1780148250530,0.007,1.059,-0.376,0.260,0.012,-0.035,109.723,-0.357,1.232,0.775,3,3,3.459
1780148250544,0.008,1.063,-0.381,0.279,0.011,-0.039,110.003,-0.476,1.249,0.811,3,3,3.403
1780148250557,0.003,1.069,-0.384,0.300,0.010,-0.043,110.092,-0.013,1.295,0.850,3,3,3.399
1780148250571,-0.000,1.078,-0.388,0.321,0.011,-0.049,110.120,0.329,1.357,0.900,3,3,3.865
1780148250585,-0.001,1.088,-0.392,0.344,0.012,-0.055,110.098,0.336,1.401,0.958,3,3,3.640
1780148250599,-0.001,1.101,-0.395,0.369,0.014,-0.060,109.953,0.339,1.448,1.033,3,3,3.954
1780148250614,0.002,1.114,-0.397,0.397,0.015,-0.063,109.728,0.012,1.480,1.119,3,3,4.420
1780148250628,0.003,1.130,-0.397,0.427,0.015,-0.062,109.277,-0.084,1.535,1.231,3,3,3.972
1780148250642,0.003,1.150,-0.394,0.463,0.017,-0.057,108.520,-0.026,1.613,1.380,3,3,4.071
1780148250656,0.006,1.171,-0.388,0.503,0.017,-0.049,107.611,-0.271,1.652,1.554,3,3,3.516
1780148250670,0.011,1.191,-0.377,0.547,0.014,-0.041,106.443,-0.664,1.649,1.714,3,3,3.317
1780148250683,0.015,1.210,-0.368,0.598,0.009,-0.034,105.422,-0.922,1.628,1.915,3,3,3.236
1780148250696,0.016,1.226,-0.367,0.662,0.002,-0.028,105.167,-0.990,1.607,2.335,3,3,3.249
1780148250710,0.007,1.235,-0.373,0.730,-0.003,-0.027,105.565,-0.223,1.536,2.504,3,3,3.673
1780148250724,0.004,1.202,-0.396,0.796,0.004,-0.032,109.976,0.157,1.002,2.513,3,3,3.283
1780148250737,0.035,1.171,-0.400,0.837,-0.002,-0.041,112.226,-4.191,1.010,1.927,3,3,3.218
1780148250750,0.079,1.144,-0.378,0.856,-0.029,-0.043,109.170,-9.704,1.179,1.541,3,3,3.228
1780148250764,0.124,1.117,-0.340,0.852,-0.093,-0.030,103.277,-14.165,1.326,1.940,3,3,3.350
1780148250777,0.133,1.098,-0.302,0.834,-0.159,-0.023,98.345,-14.755,0.908,1.898,4,4,4.390
1780148250792,0.131,1.072,-0.267,0.803,-0.216,-0.019,93.460,-13.988,0.717,1.718,4,4,3.300
1780148250805,0.124,1.044,-0.238,0.761,-0.262,-0.014,89.027,-12.418,0.589,1.484,4,4,3.228
1780148250819,0.115,1.015,-0.213,0.705,-0.292,-0.008,85.221,-10.306,0.510,1.321,4,4,3.320
1780148250832,0.107,0.989,-0.191,0.640,-0.308,-0.000,82.400,-8.754,0.510,1.286,4,4,3.346
1780148250845,0.102,0.966,-0.171,0.568,-0.308,0.011,80.217,-7.731,0.525,1.371,4,4,3.821
1780148250859,0.102,0.944,-0.154,0.488,-0.296,0.026,78.682,-8.149,0.546,1.631,4,4,3.268
1780148250873,0.114,0.927,-0.141,0.404,-0.279,0.047,78.373,-10.632,0.675,1.894,4,4,3.297
1780148250886,0.126,0.917,-0.130,0.317,-0.264,0.073,78.704,-12.322,0.807,2.075,4,4,3.443
1780148250900,0.139,0.910,-0.124,0.229,-0.254,0.099,79.645,-13.865,0.878,2.185,4,4,3.318
1780148250913,0.151,0.910,-0.121,0.142,-0.250,0.126,81.015,-14.953,0.991,2.290,4,4,3.756
1780148250927,0.161,0.915,-0.122,0.056,-0.252,0.155,82.612,-15.344,1.098,2.388,4,4,3.271
1780148250940,0.161,0.925,-0.127,-0.029,-0.258,0.186,84.440,-14.636,1.174,2.484,4,4,3.229
1780148250954,0.150,0.938,-0.136,-0.114,-0.263,0.216,86.416,-12.865,1.269,2.550,4,4,3.499
1780148250967,0.133,0.956,-0.147,-0.197,-0.260,0.244,88.243,-10.727,1.425,2.557,4,4,3.230
1780148250981,0.117,0.980,-0.160,-0.277,-0.249,0.271,89.971,-8.943,1.590,2.539,5,5,3.754
1780148250995,0.108,1.010,-0.175,-0.352,-0.231,0.297,91.613,-7.795,1.736,2.507,5,5,3.432
1780148251009,0.103,1.042,-0.194,-0.421,-0.213,0.322,93.310,-7.043,1.855,2.418,5,5,3.396
1780148251022,0.097,1.070,-0.218,-0.483,-0.194,0.349,95.212,-6.295,1.828,2.358,5,5,3.675
1780148251037,0.088,1.096,-0.242,-0.541,-0.172,0.370,97.092,-5.346,1.840,2.280,5,5,3.731
1780148251051,0.073,1.126,-0.265,-0.591,-0.146,0.388,98.659,-4.118,1.956,2.140,5,5,3.929
1780148251065,0.055,1.151,-0.290,-0.634,-0.116,0.400,100.293,-2.806,1.932,2.003,5,5,3.373
1780148251078,0.039,1.169,-0.317,-0.673,-0.081,0.408,102.203,-1.563,1.822,1.973,5,5,3.452
1780148251092,0.025,1.179,-0.345,-0.710,-0.044,0.417,104.308,-0.513,1.719,2.025,5,5,3.478
1780148251106,0.013,1.184,-0.376,-0.747,-0.008,0.425,106.681,0.335,1.701,2.039,5,5,3.603
1780148251120,0.002,1.190,-0.411,-0.779,0.025,0.430,109.043,1.061,1.778,1.921,5,5,3.917
1780148251134,-0.009,1.195,-0.451,-0.802,0.054,0.431,111.568,1.674,1.879,1.682,5,5,3.443
1780148251151,-0.018,1.196,-0.499,-0.812,0.077,0.429,114.451,2.109,1.966,1.323,5,5,3.768
1780148251166,-0.031,1.191,-0.549,-0.809,0.095,0.425,117.459,2.756,1.999,0.974,5,5,4.331
1780148251179,-0.050,1.186,-0.598,-0.793,0.111,0.417,120.343,3.732,2.034,0.673,5,5,3.540
1780148251193,-0.071,1.177,-0.644,-0.766,0.126,0.403,123.089,4.841,1.988,0.510,1,1,3.720
1780148251207,-0.089,1.167,-0.684,-0.728,0.140,0.385,125.526,5.843,1.888,0.580,1,1,3.237
1780148251220,-0.106,1.158,-0.716,-0.681,0.154,0.363,127.427,6.707,1.790,0.760,1,1,3.244
1780148251233,-0.117,1.151,-0.740,-0.628,0.166,0.339,128.805,7.270,1.655,0.940,1,1,3.236
1780148251247,-0.125,1.147,-0.754,-0.572,0.177,0.313,129.371,7.640,1.513,1.053,1,1,3.220
1780148251260,-0.140,1.118,-0.739,-0.513,0.197,0.276,129.469,10.456,0.795,1.430,1,1,3.726
1780148251274,-0.125,1.222,-0.616,-0.461,0.213,0.245,122.808,9.184,4.079,1.225,1,1,3.230
1780148251287,-0.123,1.300,-0.485,-0.371,0.208,0.211,116.018,8.439,3.826,2.065,1,1,3.258
1780148251300,-0.129,1.250,-0.501,-0.306,0.217,0.195,121.031,9.159,0.907,1.476,1,1,3.242
1780148251314,-0.156,1.236,-0.563,-0.223,0.232,0.183,124.214,10.100,2.262,2.034,1,1,3.242
1780148251327,-0.141,1.207,-0.555,-0.177,0.224,0.176,124.118,7.728,0.720,1.013,1,1,3.697
1780148251341,-0.131,1.211,-0.519,-0.126,0.216,0.174,119.740,6.642,1.330,1.207,1,1,3.223
1780148251354,-0.124,1.195,-0.516,-0.096,0.201,0.169,119.664,5.841,0.950,0.709,1,1,3.237
1780148251368,-0.112,1.177,-0.519,-0.086,0.194,0.158,120.284,4.473,0.985,0.207,1,1,3.232
1780148251381,-0.104,1.167,-0.513,-0.079,0.186,0.147,119.435,3.665,1.028,0.165,1,1,3.240
1780148251394,-0.096,1.158,-0.505,-0.071,0.176,0.139,118.500,2.839,1.019,0.183,1,1,3.689
1780148251408,-0.086,1.149,-0.496,-0.066,0.165,0.132,117.472,1.931,1.012,0.158,1,1,3.255
1780148251421,-0.080,1.143,-0.485,-0.061,0.154,0.125,116.102,1.418,1.028,0.154,1,1,3.231
1780148251435,-0.074,1.136,-0.474,-0.054,0.143,0.119,114.959,1.048,1.026,0.184,1,1,3.227
1780148251448,-0.072,1.130,-0.464,-0.046,0.133,0.114,113.865,1.104,1.016,0.213,1,1,3.265
1780148251461,-0.071,1.125,-0.454,-0.036,0.124,0.112,112.826,1.166,1.042,0.235,1,1,3.693
1780148251475,-0.070,1.120,-0.444,-0.025,0.117,0.111,111.878,1.332,1.049,0.285,1,1,3.232
1780148251488,-0.069,1.115,-0.436,-0.014,0.111,0.112,111.167,1.487,1.041,0.311,1,1,3.265
1780148251502,-0.064,1.110,-0.429,-0.004,0.106,0.113,110.598,1.056,1.031,0.288,1,1,3.230
1780148251515,-0.055,1.105,-0.422,0.004,0.101,0.113,110.096,0.205,1.037,0.258,1,1,3.287
1780148251530,-0.044,1.100,-0.416,0.011,0.097,0.111,109.651,-0.797,1.044,0.203,1,1,4.372
1780148251544,-0.038,1.095,-0.410,0.018,0.091,0.107,109.293,-1.243,1.036,0.184,1,1,3.238
1780148251557,-0.035,1.091,-0.404,0.024,0.087,0.102,108.918,-1.265,1.039,0.187,1,1,3.237
1780148251571,-0.032,1.087,-0.398,0.030,0.083,0.098,108.572,-1.274,1.047,0.186,1,1,3.233
1780148251584,-0.030,1.084,-0.393,0.035,0.079,0.094,108.273,-1.289,1.038,0.178,1,1,3.227
1780148251597,-0.026,1.080,-0.388,0.040,0.076,0.090,108.070,-1.494,1.035,0.156,1,1,3.698
1780148251612,-0.021,1.075,-0.385,0.043,0.073,0.086,107.974,-1.825,1.037,0.133,1,1,3.821
1780148251625,-0.016,1.072,-0.381,0.045,0.069,0.082,107.899,-2.055,1.037,0.121,1,1,3.233
1780148251638,-0.014,1.068,-0.378,0.048,0.065,0.077,107.814,-2.098,1.035,0.118,1,1,3.230
1780148251653,-0.013,1.065,-0.374,0.050,0.062,0.073,107.726,-1.969,1.040,0.116,1,1,4.283
1780148251666,-0.010,1.062,-0.371,0.052,0.059,0.069,107.601,-1.988,1.033,0.118,1,1,3.699
1780148251680,-0.008,1.058,-0.368,0.055,0.056,0.066,107.571,-2.039,1.031,0.119,1,1,3.231
1780148251693,-0.005,1.055,-0.365,0.057,0.053,0.062,107.574,-2.135,1.031,0.120,1,1,3.246
1780148251709,-0.002,1.051,-0.364,0.059,0.050,0.058,107.691,-2.262,1.029,0.127,1,1,5.088
1780148251722,-0.000,1.048,-0.362,0.061,0.047,0.054,107.693,-2.290,1.025,0.137,1,1,3.233
1780148251735,0.001,1.045,-0.359,0.064,0.045,0.050,107.694,-2.211,1.023,0.146,1,1,3.690
1780148251749,0.003,1.042,-0.357,0.067,0.042,0.046,107.699,-2.203,1.034,0.160,1,1,3.234
1780148251762,0.004,1.040,-0.356,0.071,0.040,0.042,107.714,-2.192,1.044,0.176,1,1,3.236
1780148251776,0.006,1.038,-0.355,0.075,0.037,0.038,107.759,-2.210,1.055,0.188,1,1,3.245
1780148251789,0.008,1.036,-0.354,0.078,0.035,0.033,107.879,-2.216,1.053,0.200,1,1,3.255
1780148251803,0.009,1.035,-0.354,0.082,0.032,0.029,107.960,-2.183,1.069,0.206,2,2,4.664
1780148251817,0.009,1.034,-0.353,0.086,0.030,0.025,108.058,-2.073,1.067,0.211,2,2,3.228
1780148251831,0.010,1.033,-0.353,0.091,0.027,0.022,108.124,-2.009,1.075,0.227,2,2,3.462
1780148251844,0.010,1.032,-0.353,0.096,0.025,0.018,108.209,-1.927,1.063,0.250,2,2,3.225
1780148251857,0.010,1.031,-0.353,0.102,0.022,0.014,108.307,-1.735,1.063,0.275,2,2,3.231
1780148251871,0.009,1.030,-0.353,0.109,0.020,0.010,108.401,-1.509,1.064,0.302,2,2,3.804
1780148251885,0.008,1.029,-0.353,0.117,0.019,0.007,108.500,-1.302,1.072,0.331,2,2,3.229
1780148251898,0.007,1.029,-0.354,0.126,0.017,0.003,108.651,-1.130,1.088,0.365,2,2,3.222
1780148251911,0.007,1.029,-0.355,0.135,0.016,-0.001,108.809,-1.008,1.103,0.394,2,2,3.238
1780148251925,0.007,1.029,-0.357,0.145,0.016,-0.006,108.992,-0.915,1.114,0.422,2,2,3.224
1780148251938,0.006,1.031,-0.358,0.156,0.015,-0.010,109.142,-0.817,1.129,0.456,3,3,3.693
1780148251952,0.007,1.033,-0.361,0.168,0.014,-0.013,109.288,-0.849,1.169,0.476,3,3,3.229
1780148251967,0.019,1.026,-0.362,0.180,0.010,-0.017,109.797,-2.342,0.994,0.514,3,3,5.126
1780148251981,0.018,1.027,-0.365,0.193,0.008,-0.021,110.043,-2.080,1.132,0.546,3,3,3.229
1780148251994,0.017,1.030,-0.369,0.206,0.007,-0.026,110.216,-1.891,1.190,0.585,3,3,3.225
1780148252007,0.015,1.035,-0.372,0.221,0.006,-0.031,110.362,-1.534,1.216,0.617,3,3,3.788
1780148252021,0.011,1.039,-0.376,0.236,0.006,-0.036,110.491,-1.048,1.231,0.657,3,3,3.235
1780148252035,0.001,1.048,-0.379,0.252,0.007,-0.042,110.442,-0.051,1.345,0.705,3,3,3.713
1780148252049,-0.008,1.062,-0.384,0.270,0.013,-0.051,110.341,0.707,1.464,0.791,3,3,3.238
1780148252062,-0.001,1.075,-0.388,0.289,0.016,-0.060,110.251,0.078,1.441,0.836,3,3,3.500
1780148252076,-0.003,1.086,-0.391,0.310,0.019,-0.067,110.170,0.240,1.401,0.895,3,3,3.716
1780148252089,-0.012,1.096,-0.393,0.333,0.023,-0.074,109.998,1.029,1.411,0.970,3,3,3.231
1780148252103,-0.021,1.109,-0.394,0.358,0.030,-0.081,109.697,1.679,1.459,1.064,3,3,3.231
1780148252116,-0.023,1.122,-0.395,0.386,0.038,-0.086,109.343,1.803,1.481,1.159,3,3,3.218
1780148252129,-0.023,1.137,-0.394,0.416,0.047,-0.089,108.857,1.707,1.507,1.255,3,3,3.229
1780148252143,-0.020,1.153,-0.391,0.450,0.054,-0.090,108.210,1.399,1.526,1.356,3,3,3.700
1780148252157,-0.014,1.167,-0.382,0.488,0.059,-0.090,107.159,0.798,1.502,1.479,3,3,3.226
1780148252170,0.001,1.180,-0.364,0.529,0.063,-0.089,105.471,-0.492,1.502,1.611,3,3,3.219
1780148252183,0.009,1.191,-0.356,0.574,0.063,-0.087,104.630,-1.083,1.438,1.736,3,3,3.217
1780148252196,0.016,1.199,-0.351,0.627,0.061,-0.084,104.169,-1.660,1.418,1.996,3,3,3.286
1780148252210,0.020,1.212,-0.356,0.696,0.057,-0.082,104.534,-1.897,1.562,2.502,3,3,3.721
1780148252224,0.016,1.217,-0.360,0.763,0.064,-0.079,104.885,-1.433,1.417,2.511,3,3,3.242
1780148252237,0.019,1.196,-0.376,0.828,0.070,-0.069,107.708,-1.687,1.031,2.520,3,3,3.266
1780148252250,0.043,1.174,-0.384,0.890,0.058,-0.064,109.814,-4.670,1.055,2.516,3,3,3.228
1780148252264,0.056,1.141,-0.389,0.924,0.035,-0.071,112.654,-6.874,0.732,1.913,3,3,3.237
1780148252277,0.072,1.112,-0.373,0.929,0.012,-0.068,110.661,-10.146,0.642,1.236,4,4,3.704
1780148252291,0.114,1.076,-0.342,0.889,-0.048,-0.050,103.979,-15.521,1.116,1.648,4,4,3.604
1780148252305,0.123,1.056,-0.308,0.836,-0.109,-0.041,99.422,-16.211,0.827,1.793,4,4,3.246
1780148252318,0.119,1.036,-0.276,0.782,-0.158,-0.035,95.143,-14.852,0.733,1.575,4,4,3.225
1780148252331,0.114,1.008,-0.249,0.725,-0.198,-0.028,90.750,-13.503,0.523,1.449,4,4,3.224
1780148252345,0.103,0.977,-0.225,0.659,-0.222,-0.024,86.267,-10.473,0.447,1.358,4,4,3.790
1780148252359,0.092,0.949,-0.201,0.586,-0.228,-0.023,82.486,-7.852,0.478,1.362,4,4,3.252
1780148252372,0.086,0.924,-0.181,0.505,-0.221,-0.019,79.950,-6.525,0.477,1.601,4,4,3.227
1780148252385,0.087,0.905,-0.163,0.417,-0.202,-0.012,78.656,-7.003,0.533,1.915,4,4,3.227
1780148252399,0.096,0.888,-0.151,0.320,-0.183,-0.000,78.490,-9.161,0.615,2.221,4,4,3.240
1780148252412,0.108,0.881,-0.141,0.219,-0.165,0.015,79.068,-10.831,0.810,2.459,4,4,3.749
1780148252426,0.121,0.884,-0.134,0.120,-0.152,0.034,79.910,-12.067,1.038,2.517,4,4,3.291
1780148252440,0.137,0.888,-0.131,0.023,-0.147,0.053,81.327,-13.417,1.090,2.565,4,4,3.738
1780148252453,0.151,0.897,-0.134,-0.071,-0.149,0.076,83.079,-14.250,1.213,2.597,4,4,3.250
1780148252467,0.160,0.913,-0.141,-0.161,-0.158,0.102,84.996,-14.360,1.344,2.647,4,4,3.250
1780148252480,0.158,0.932,-0.152,-0.248,-0.168,0.130,87.016,-13.434,1.407,2.673,5,5,3.840
1780148252494,0.145,0.955,-0.167,-0.331,-0.171,0.156,89.070,-11.615,1.543,2.652,5,5,3.256
1780148252507,0.127,0.983,-0.185,-0.412,-0.163,0.181,91.081,-9.717,1.710,2.633,5,5,3.239
1780148252521,0.114,1.016,-0.207,-0.488,-0.145,0.205,93.013,-8.286,1.894,2.625,5,5,3.252
1780148252534,0.107,1.052,-0.234,-0.556,-0.119,0.230,95.039,-7.338,2.002,2.550,5,5,3.249
1780148252547,0.103,1.080,-0.267,-0.617,-0.088,0.255,97.414,-6.693,1.962,2.478,5,5,3.840
1780148252563,0.099,1.107,-0.299,-0.672,-0.053,0.276,99.620,-6.119,1.983,2.402,5,5,5.061
1780148252577,0.093,1.137,-0.330,-0.716,-0.015,0.295,101.509,-5.387,2.037,2.253,5,5,3.366
1780148252590,0.085,1.159,-0.360,-0.753,0.026,0.312,103.405,-4.659,1.939,2.159,5,5,3.348
1780148252603,0.079,1.174,-0.388,-0.784,0.068,0.328,105.370,-4.047,1.801,2.098,5,5,3.259
1780148252617,0.070,1.181,-0.416,-0.810,0.108,0.341,107.467,-3.280,1.698,2.001,5,5,3.840
1780148252631,0.063,1.185,-0.446,-0.833,0.142,0.350,109.680,-2.664,1.672,1.851,5,5,3.250
1780148252644,0.060,1.187,-0.478,-0.850,0.169,0.355,111.987,-2.347,1.714,1.629,5,5,3.578
1780148252658,0.057,1.188,-0.515,-0.861,0.187,0.357,114.420,-2.132,1.779,1.373,5,5,3.255
1780148252671,0.052,1.186,-0.554,-0.863,0.198,0.357,116.898,-1.729,1.828,1.111,5,5,3.241
1780148252684,0.039,1.183,-0.594,-0.857,0.207,0.355,119.380,-0.869,1.859,0.871,5,5,3.809
1780148252698,0.020,1.177,-0.634,-0.840,0.218,0.349,121.848,0.380,1.889,0.680,5,5,3.257
1780148252712,-0.001,1.170,-0.673,-0.815,0.233,0.338,124.207,1.689,1.885,0.640,5,5,3.252
1780148252725,-0.019,1.162,-0.709,-0.780,0.251,0.325,126.336,2.742,1.833,0.728,5,5,3.243
1780148252738,-0.032,1.154,-0.740,-0.737,0.270,0.309,128.134,3.455,1.745,0.855,5,5,3.241
1780148252754,-0.041,1.145,-0.764,-0.688,0.289,0.291,129.601,3.911,1.638,0.985,1,1,5.814
1780148252768,-0.046,1.136,-0.781,-0.634,0.307,0.272,130.655,4.171,1.485,1.124,1,1,3.245
1780148252782,-0.072,1.085,-0.777,-0.576,0.343,0.230,101.436,7.853,0.941,1.798,1,1,3.244
1780148252796,-0.088,1.206,-0.637,-0.515,0.370,0.205,97.279,7.634,4.578,1.592,1,1,3.263
1780148252810,-0.102,1.228,-0.544,-0.432,0.389,0.193,92.709,7.841,2.290,1.935,1,1,3.239
1780148252823,-0.096,1.194,-0.555,-0.371,0.397,0.166,98.114,6.921,0.912,1.455,1,1,3.867
1780148252837,-0.096,1.179,-0.597,-0.290,0.391,0.155,103.145,6.597,1.729,1.838,1,1,3.265
1780148252850,-0.100,1.159,-0.589,-0.240,0.370,0.156,104.734,7.129,0.868,1.069,1,1,3.265
1780148252864,-0.101,1.162,-0.554,-0.194,0.354,0.163,102.460,6.987,1.254,1.072,1,1,3.257
1780148252877,-0.098,1.153,-0.541,-0.158,0.338,0.173,102.653,6.421,0.973,0.896,1,1,3.244
1780148252890,-0.084,1.136,-0.538,-0.135,0.327,0.171,104.419,4.521,0.928,0.465,1,1,3.893
1780148252904,-0.072,1.124,-0.532,-0.120,0.319,0.168,105.419,3.057,0.976,0.307,1,1,3.248
1780148252921,-0.060,1.117,-0.522,-0.106,0.309,0.164,105.637,1.684,1.032,0.260,1,1,4.917
1780148252934,-0.050,1.109,-0.512,-0.098,0.298,0.159,105.864,0.549,0.998,0.117,1,1,3.288
1780148252947,-0.039,1.103,-0.502,-0.095,0.286,0.152,105.849,-0.589,1.017,0.033,1,1,3.254
1780148252961,-0.029,1.097,-0.491,-0.093,0.273,0.144,105.671,-1.455,1.019,0.105,1,1,3.891
1780148252976,-0.026,1.093,-0.479,-0.092,0.260,0.137,105.449,-1.565,1.023,0.100,1,1,3.248
1780148252989,-0.026,1.090,-0.468,-0.088,0.249,0.133,105.083,-1.313,1.042,0.067,1,1,3.262
1780148253002,-0.025,1.087,-0.456,-0.081,0.238,0.132,104.677,-1.102,1.049,0.142,1,1,3.246
1780148253019,-0.026,1.084,-0.445,-0.072,0.229,0.133,104.449,-0.818,1.036,0.223,1,1,6.203
1780148253032,-0.025,1.080,-0.436,-0.062,0.220,0.135,104.350,-0.698,1.035,0.276,1,1,3.826
1780148253046,-0.020,1.077,-0.428,-0.052,0.213,0.137,104.271,-1.055,1.025,0.291,1,1,3.249
1780148253060,-0.014,1.073,-0.421,-0.042,0.206,0.138,104.337,-1.640,1.033,0.265,1,1,3.253
1780148253073,-0.006,1.069,-0.414,-0.033,0.199,0.137,104.407,-2.407,1.028,0.223,1,1,3.231
1780148253087,0.002,1.065,-0.407,-0.026,0.191,0.134,104.461,-3.126,1.038,0.175,1,1,3.271
1780148253101,0.009,1.062,-0.401,-0.019,0.184,0.129,104.475,-3.611,1.040,0.151,1,1,3.911
1780148253115,0.013,1.060,-0.395,-0.013,0.176,0.124,104.457,-3.765,1.044,0.144,1,1,3.982
1780148253129,0.014,1.057,-0.389,-0.007,0.169,0.119,104.444,-3.695,1.043,0.152,1,1,3.243
1780148253142,0.016,1.056,-0.383,-0.001,0.163,0.115,104.439,-3.649,1.052,0.157,1,1,3.269
1780148253155,0.019,1.054,-0.378,0.005,0.157,0.111,104.468,-3.663,1.044,0.162,1,1,3.256
1780148253169,0.022,1.052,-0.373,0.011,0.152,0.106,104.490,-3.827,1.053,0.166,1,1,3.844
1780148253183,0.027,1.049,-0.369,0.017,0.146,0.101,104.613,-4.117,1.038,0.169,1,1,3.264
1780148253196,0.030,1.046,-0.365,0.022,0.141,0.096,104.730,-4.245,1.028,0.169,1,1,3.250
1780148253209,0.032,1.044,-0.361,0.027,0.136,0.091,104.851,-4.225,1.028,0.165,1,1,3.240
1780148253223,0.034,1.041,-0.358,0.032,0.131,0.086,105.023,-4.253,1.031,0.161,1,1,3.250
1780148253236,0.036,1.039,-0.356,0.037,0.126,0.081,105.197,-4.320,1.028,0.163,1,1,3.837
1780148253250,0.039,1.036,-0.353,0.041,0.121,0.076,105.328,-4.428,1.038,0.166,1,1,3.267
1780148253264,0.042,1.034,-0.351,0.045,0.116,0.071,105.499,-4.588,1.033,0.167,1,1,3.423
1780148253277,0.044,1.032,-0.349,0.049,0.111,0.066,105.647,-4.614,1.035,0.169,1,1,3.290
1780148253291,0.046,1.030,-0.347,0.053,0.106,0.061,105.836,-4.636,1.045,0.174,1,1,3.260
1780148253304,0.047,1.028,-0.345,0.057,0.101,0.055,105.938,-4.614,1.037,0.178,1,1,3.846
1780148253318,0.049,1.027,-0.344,0.061,0.095,0.050,106.133,-4.563,1.043,0.185,1,1,3.284
1780148253331,0.050,1.025,-0.343,0.064,0.090,0.044,106.302,-4.518,1.049,0.198,1,1,3.263
1780148253345,0.051,1.024,-0.343,0.068,0.084,0.038,106.501,-4.534,1.045,0.217,1,1,3.257
1780148253358,0.053,1.022,-0.342,0.072,0.078,0.031,106.660,-4.534,1.037,0.242,1,1,3.393
1780148253372,0.054,1.020,-0.341,0.077,0.072,0.024,106.834,-4.554,1.033,0.268,2,2,3.815
1780148253386,0.054,1.018,-0.341,0.082,0.066,0.016,107.035,-4.394,1.044,0.291,2,2,3.293
1780148253399,0.054,1.017,-0.340,0.088,0.060,0.008,107.173,-4.311,1.029,0.326,2,2,3.251
1780148253412,0.054,1.015,-0.340,0.094,0.054,0.000,107.363,-4.117,1.044,0.358,2,2,3.252
1780148253426,0.051,1.014,-0.341,0.102,0.049,-0.007,107.561,-3.725,1.049,0.371,2,2,3.428
1780148253439,0.049,1.014,-0.342,0.111,0.045,-0.015,107.767,-3.308,1.069,0.396,3,3,3.844
1780148253453,0.045,1.014,-0.342,0.120,0.041,-0.021,107.922,-2.869,1.088,0.416,3,3,3.299
1780148253467,0.042,1.016,-0.344,0.130,0.039,-0.027,108.066,-2.391,1.108,0.433,3,3,3.262
1780148253480,0.038,1.017,-0.345,0.141,0.038,-0.032,108.268,-1.986,1.119,0.447,3,3,3.248
1780148253493,0.035,1.019,-0.348,0.151,0.038,-0.037,108.468,-1.670,1.127,0.460,3,3,3.242
1780148253507,0.033,1.021,-0.350,0.162,0.040,-0.042,108.659,-1.369,1.144,0.481,3,3,3.812
1780148253520,0.031,1.024,-0.353,0.173,0.042,-0.047,108.875,-1.257,1.155,0.503,3,3,3.286
1780148253534,0.030,1.027,-0.356,0.184,0.044,-0.054,109.107,-1.177,1.171,0.524,3,3,3.238
1780148253547,0.030,1.030,-0.360,0.194,0.046,-0.061,109.352,-1.143,1.195,0.538,3,3,3.265
1780148253561,0.026,1.026,-0.363,0.205,0.048,-0.068,109.896,-0.713,1.024,0.551,3,3,3.431
1780148253574,0.027,1.030,-0.367,0.217,0.047,-0.072,110.108,-0.898,1.213,0.552,3,3,3.829
1780148253588,0.026,1.033,-0.371,0.229,0.046,-0.076,110.358,-0.834,1.186,0.575,3,3,3.245
1780148253601,0.025,1.036,-0.376,0.242,0.044,-0.081,110.653,-0.764,1.213,0.602,3,3,3.257
1780148253615,0.023,1.040,-0.380,0.255,0.042,-0.085,110.849,-0.597,1.231,0.633,3,3,3.409
1780148253628,0.011,1.050,-0.384,0.269,0.042,-0.090,110.797,0.489,1.363,0.682,3,3,3.324
1780148253642,0.005,1.066,-0.389,0.285,0.046,-0.099,110.660,0.921,1.501,0.790,3,3,3.898
1780148253656,0.014,1.077,-0.393,0.304,0.047,-0.105,110.626,-0.037,1.431,0.829,3,3,3.254
1780148253669,0.008,1.089,-0.396,0.324,0.047,-0.112,110.473,0.469,1.436,0.903,3,3,3.269
1780148253683,-0.004,1.102,-0.398,0.347,0.050,-0.118,110.156,1.435,1.479,0.998,3,3,3.252
1780148253696,-0.007,1.117,-0.399,0.373,0.055,-0.125,109.791,1.519,1.512,1.109,3,3,3.247
1780148253709,-0.004,1.133,-0.399,0.403,0.060,-0.129,109.345,1.213,1.532,1.213,4,4,3.819
1780148253723,-0.003,1.150,-0.397,0.437,0.062,-0.132,108.729,0.974,1.549,1.332,4,4,3.232
1780148253736,0.001,1.166,-0.396,0.474,0.063,-0.134,108.290,0.576,1.564,1.466,4,4,3.240
1780148253750,0.009,1.179,-0.389,0.515,0.062,-0.137,107.459,-0.116,1.505,1.588,4,4,3.227
1780148253763,0.016,1.192,-0.382,0.560,0.058,-0.139,106.603,-0.755,1.509,1.738,4,4,3.586
1780148253777,0.029,1.204,-0.375,0.614,0.050,-0.144,105.840,-1.774,1.500,2.024,4,4,3.837
1780148253791,0.039,1.216,-0.369,0.684,0.038,-0.152,105.215,-2.563,1.520,2.542,4,4,3.301
1780148253804,0.039,1.219,-0.367,0.751,0.031,-0.159,105.145,-2.518,1.335,2.529,4,4,3.287
1780148253818,0.034,1.193,-0.389,0.816,0.030,-0.163,108.807,-1.804,1.061,2.516,4,4,3.232
1780148253832,0.037,1.160,-0.411,0.865,0.025,-0.177,113.113,-2.190,1.017,2.213,4,4,3.899
1780148253845,0.046,1.137,-0.403,0.878,0.022,-0.186,112.768,-3.893,0.699,1.278,4,4,3.702
1780148253859,0.062,1.102,-0.372,0.853,0.007,-0.182,106.608,-7.635,0.618,0.447,4,4,3.228
1780148253872,0.068,1.086,-0.342,0.817,-0.003,-0.180,102.845,-8.208,0.825,0.304,4,4,3.286
1780148253885,0.069,1.067,-0.314,0.775,-0.000,-0.176,99.272,-8.134,0.731,0.324,4,4,3.223
1780148253899,0.073,1.044,-0.290,0.728,0.008,-0.171,96.203,-8.867,0.600,0.552,4,4,3.264
1780148253914,0.076,1.018,-0.270,0.671,0.023,-0.168,93.468,-9.505,0.508,0.924,4,4,3.696
1780148253927,0.086,0.993,-0.250,0.606,0.040,-0.163,91.148,-11.728,0.582,1.171,4,4,3.228
1780148253941,0.098,0.969,-0.233,0.536,0.053,-0.155,89.469,-14.168,0.575,1.345,4,4,3.247
1780148253954,0.107,0.947,-0.220,0.460,0.063,-0.146,88.527,-16.046,0.561,1.539,4,4,3.304
1780148253971,0.116,0.928,-0.209,0.380,0.068,-0.138,88.493,-17.275,0.611,1.713,4,4,6.489
1780148253984,0.120,0.917,-0.202,0.297,0.074,-0.130,88.981,-17.293,0.705,1.879,4,4,3.697
1780148253998,0.120,0.908,-0.199,0.213,0.083,-0.121,90.087,-16.598,0.736,1.998,4,4,3.218
1780148254011,0.121,0.903,-0.200,0.129,0.098,-0.112,91.581,-15.937,0.837,2.112,4,4,3.249
1780148254024,0.126,0.904,-0.205,0.046,0.116,-0.103,93.185,-15.672,0.984,2.187,4,4,3.223
1780148254038,0.134,0.907,-0.211,-0.034,0.133,-0.094,94.819,-15.834,1.088,2.203,4,4,3.225
1780148254051,0.144,0.912,-0.220,-0.112,0.147,-0.084,96.393,-16.028,1.160,2.212,5,5,3.686
1780148254065,0.154,0.920,-0.228,-0.189,0.158,-0.074,97.735,-16.196,1.223,2.220,5,5,3.227
1780148254078,0.158,0.930,-0.237,-0.263,0.165,-0.064,98.923,-15.783,1.249,2.233,5,5,3.259
1780148254091,0.156,0.942,-0.246,-0.335,0.175,-0.054,100.030,-14.713,1.295,2.245,5,5,3.226
1780148254105,0.152,0.956,-0.256,-0.403,0.191,-0.044,101.067,-13.600,1.361,2.270,5,5,3.248
1780148254118,0.151,0.975,-0.267,-0.467,0.213,-0.033,101.882,-12.714,1.483,2.287,5,5,3.705
1780148254132,0.151,0.998,-0.280,-0.526,0.240,-0.021,102.724,-12.083,1.603,2.282,5,5,3.341
1780148254146,0.156,1.018,-0.295,-0.581,0.271,-0.010,103.719,-11.798,1.615,2.302,5,5,3.369
1780148254159,0.163,1.040,-0.312,-0.634,0.303,0.002,104.688,-11.738,1.687,2.323,5,5,3.313
1780148254172,0.171,1.064,-0.330,-0.682,0.337,0.013,105.638,-11.670,1.771,2.288,5,5,3.241
1780148254186,0.177,1.085,-0.349,-0.723,0.372,0.024,106.647,-11.530,1.766,2.234,5,5,3.685
1780148254200,0.182,1.102,-0.368,-0.761,0.409,0.033,107.784,-11.343,1.686,2.239,5,5,3.275
1780148254213,0.182,1.115,-0.389,-0.799,0.449,0.042,109.021,-10.873,1.636,2.330,5,5,3.226
1780148254226,0.184,1.125,-0.407,-0.835,0.490,0.047,110.099,-10.602,1.595,2.366,5,5,3.215
1780148254239,0.185,1.136,-0.426,-0.867,0.531,0.050,111.181,-10.348,1.627,2.332,5,5,3.258
1780148254253,0.188,1.146,-0.447,-0.894,0.569,0.050,112.402,-10.157,1.642,2.230,5,5,3.681
1780148254267,0.192,1.153,-0.470,-0.915,0.602,0.050,113.755,-10.117,1.670,2.068,5,5,3.239
1780148254280,0.196,1.158,-0.497,-0.930,0.629,0.049,115.333,-10.054,1.695,1.871,5,5,3.232
1780148254293,0.198,1.162,-0.526,-0.936,0.652,0.048,117.003,-9.865,1.710,1.658,5,5,3.244
1780148254308,0.199,1.163,-0.557,-0.932,0.670,0.048,118.842,-9.657,1.741,1.413,5,5,3.393
1780148254322,0.200,1.162,-0.590,-0.919,0.684,0.048,120.792,-9.446,1.745,1.185,5,5,3.691
1780148254335,0.200,1.157,-0.623,-0.896,0.694,0.049,122.793,-9.146,1.713,0.999,5,5,3.243
1780148254349,0.196,1.151,-0.654,-0.865,0.701,0.048,124.647,-8.680,1.675,0.888,5,5,3.278
1780148254362,0.191,1.145,-0.680,-0.826,0.706,0.046,126.213,-8.116,1.624,0.866,5,5,3.309
1780148254375,0.185,1.139,-0.703,-0.781,0.711,0.043,127.505,-7.493,1.561,0.938,5,5,3.229
1780148254389,0.181,1.132,-0.717,-0.730,0.717,0.038,128.373,-7.149,1.437,1.033,1,1,3.668
1780148254402,0.173,1.162,-0.720,-0.678,0.726,0.029,126.911,-6.441,1.967,1.204,1,1,3.228
1780148254416,0.165,1.149,-0.718,-0.626,0.734,0.017,127.061,-5.784,1.086,1.219,1,1,3.234
1780148254429,0.157,1.132,-0.701,-0.575,0.735,0.007,125.697,-5.118,0.838,1.108,1,1,3.250
1780148254442,0.149,1.135,-0.652,-0.534,0.728,-0.006,120.490,-4.559,1.266,0.834,1,1,3.224
1780148254456,0.106,1.189,-0.542,-0.494,0.719,-0.002,113.958,-2.638,3.135,0.720,1,1,3.712
1780148254470,0.085,1.209,-0.474,-0.428,0.716,0.011,108.676,-1.359,1.971,1.480,1,1,3.229
1780148254483,0.093,1.205,-0.507,-0.364,0.702,0.017,111.455,-2.102,1.693,1.354,1,1,3.285
1780148254496,0.103,1.186,-0.537,-0.305,0.671,0.028,114.898,-3.097,1.448,1.271,1,1,3.235
1780148254510,0.097,1.180,-0.506,-0.266,0.632,0.040,111.641,-2.623,1.071,0.925,1,1,3.226
1780148254523,0.090,1.174,-0.483,-0.230,0.591,0.054,109.429,-2.073,1.051,0.935,1,1,3.762
1780148254537,0.083,1.165,-0.466,-0.193,0.556,0.070,108.189,-1.530,0.978,0.972,1,1,3.232
1780148254550,0.086,1.156,-0.451,-0.154,0.525,0.083,107.090,-2.195,0.976,0.991,1,1,3.233
1780148254564,0.089,1.147,-0.439,-0.119,0.502,0.095,106.479,-2.915,0.975,0.894,1,1,3.229
1780148254577,0.090,1.139,-0.430,-0.089,0.485,0.105,106.270,-3.193,1.000,0.763,1,1,3.603
1780148254591,0.095,1.128,-0.424,-0.068,0.466,0.104,106.373,-4.149,0.948,0.489,1,1,3.710
1780148254604,0.095,1.121,-0.417,-0.054,0.446,0.100,106.318,-4.241,1.014,0.325,1,1,3.224
1780148254618,0.096,1.113,-0.409,-0.041,0.427,0.093,106.093,-4.433,0.969,0.306,1,1,3.243
1780148254631,0.094,1.108,-0.401,-0.029,0.410,0.086,105.809,-4.281,1.028,0.294,1,1,3.226
1780148254644,0.092,1.104,-0.391,-0.018,0.393,0.081,105.138,-4.130,1.029,0.288,1,1,3.232
1780148254660,0.088,1.099,-0.383,-0.006,0.377,0.078,104.846,-3.746,1.026,0.300,1,1,3.811
1780148254674,0.083,1.096,-0.376,0.004,0.362,0.077,104.631,-3.321,1.040,0.285,1,1,3.490
1780148254687,0.083,1.093,-0.369,0.015,0.348,0.075,104.327,-3.361,1.053,0.302,1,1,3.265
1780148254701,0.085,1.089,-0.362,0.026,0.335,0.073,104.101,-3.740,1.046,0.319,1,1,3.225
1780148254714,0.088,1.086,-0.356,0.038,0.322,0.068,103.930,-4.151,1.048,0.339,1,1,3.235
1780148254727,0.090,1.082,-0.351,0.049,0.309,0.061,103.910,-4.491,1.032,0.350,1,1,3.694
1780148254741,0.092,1.078,-0.347,0.058,0.296,0.054,103.972,-4.782,1.036,0.344,1,1,3.225
1780148254755,0.092,1.075,-0.342,0.067,0.283,0.046,103.940,-4.771,1.036,0.324,1,1,3.411
1780148254768,0.091,1.072,-0.339,0.074,0.270,0.038,104.001,-4.734,1.037,0.324,1,1,3.226
1780148254781,0.090,1.068,-0.336,0.080,0.258,0.030,104.122,-4.595,1.020,0.298,1,1,3.243
1780148254795,0.089,1.064,-0.334,0.084,0.246,0.022,104.340,-4.500,1.023,0.269,1,1,3.681
1780148254808,0.086,1.061,-0.331,0.087,0.234,0.015,104.404,-4.218,1.035,0.247,1,1,3.220
1780148254822,0.082,1.058,-0.328,0.089,0.223,0.010,104.499,-3.809,1.030,0.208,1,1,3.251
1780148254835,0.079,1.056,-0.326,0.091,0.213,0.005,104.573,-3.471,1.043,0.185,1,1,3.437
1780148254849,0.075,1.054,-0.324,0.093,0.204,0.001,104.637,-3.106,1.040,0.175,1,1,3.799
1780148254862,0.073,1.051,-0.322,0.095,0.195,-0.003,104.733,-3.031,1.039,0.187,1,1,3.685
1780148254876,0.073,1.048,-0.320,0.096,0.186,-0.008,104.894,-3.045,1.026,0.199,1,1,3.228
1780148254890,0.072,1.045,-0.319,0.098,0.177,-0.013,105.037,-3.088,1.027,0.207,1,1,3.232
1780148254903,0.071,1.042,-0.318,0.099,0.168,-0.018,105.239,-3.046,1.020,0.211,1,1,3.222
1780148254916,0.070,1.040,-0.317,0.100,0.160,-0.024,105.386,-3.029,1.025,0.215,1,1,3.229
1780148254930,0.068,1.036,-0.317,0.100,0.151,-0.029,105.583,-2.776,1.017,0.206,1,1,3.704
1780148254943,0.063,1.034,-0.316,0.100,0.143,-0.033,105.727,-2.282,1.022,0.181,1,1,3.236
1780148254957,0.059,1.032,-0.316,0.100,0.136,-0.036,105.900,-1.889,1.029,0.153,1,1,3.220
1780148254970,0.055,1.030,-0.315,0.099,0.129,-0.038,105.992,-1.633,1.038,0.138,1,1,3.225
1780148254983,0.052,1.028,-0.315,0.099,0.122,-0.040,106.115,-1.427,1.038,0.130,1,1,3.251
1780148254997,0.049,1.027,-0.314,0.098,0.116,-0.041,106.161,-1.175,1.053,0.119,2,2,3.684
1780148255011,0.045,1.027,-0.314,0.097,0.110,-0.042,106.201,-0.814,1.060,0.106,2,2,3.231
1780148255024,0.041,1.027,-0.313,0.097,0.105,-0.042,106.242,-0.459,1.070,0.113,2,2,3.230
1780148255037,0.036,1.026,-0.313,0.098,0.101,-0.043,106.308,-0.140,1.061,0.133,2,2,3.227
1780148255050,0.033,1.026,-0.313,0.100,0.098,-0.044,106.380,0.059,1.066,0.166,2,2,3.223
1780148255064,0.031,1.025,-0.313,0.103,0.096,-0.046,106.447,0.184,1.063,0.199,4,4,3.685
1780148255078,0.029,1.024,-0.314,0.107,0.094,-0.047,106.590,0.166,1.059,0.236,4,4,3.232
1780148255091,0.028,1.025,-0.314,0.112,0.092,-0.050,106.642,0.114,1.073,0.283,4,4,3.230
1780148255104,0.026,1.025,-0.314,0.119,0.091,-0.054,106.695,0.180,1.092,0.343,4,4,3.224
1780148255118,0.025,1.026,-0.315,0.128,0.090,-0.059,106.795,0.171,1.104,0.401,4,4,3.221
1780148255131,0.023,1.029,-0.316,0.138,0.090,-0.065,106.805,0.260,1.125,0.469,3,3,3.664
1780148255145,0.019,1.032,-0.317,0.149,0.090,-0.074,106.830,0.535,1.164,0.535,3,3,3.230
1780148255158,0.015,1.035,-0.318,0.160,0.093,-0.085,106.935,0.870,1.164,0.602,3,3,3.220
1780148255171,0.011,1.038,-0.321,0.172,0.096,-0.094,107.107,1.120,1.152,0.618,3,3,3.223
1780148255186,0.009,1.039,-0.323,0.184,0.099,-0.103,107.319,1.242,1.136,0.626,3,3,3.350
1780148255199,0.006,1.042,-0.326,0.197,0.101,-0.109,107.535,1.403,1.175,0.618,4,4,3.835
1780148255213,0.000,1.047,-0.330,0.210,0.103,-0.116,107.707,1.777,1.227,0.645,4,4,3.241
1780148255226,-0.005,1.052,-0.333,0.224,0.105,-0.123,107.819,2.134,1.240,0.666,4,4,3.221
1780148255240,-0.013,1.061,-0.336,0.237,0.107,-0.130,107.847,2.735,1.338,0.690,4,4,3.232
1780148255253,-0.024,1.075,-0.339,0.251,0.113,-0.140,107.732,3.445,1.453,0.780,4,4,3.240
1780148255266,-0.020,1.089,-0.343,0.267,0.119,-0.149,107.650,2.870,1.457,0.816,3,3,3.690
1780148255280,-0.018,1.097,-0.346,0.284,0.122,-0.156,107.654,2.468,1.341,0.824,3,3,3.222
1780148255294,-0.027,1.105,-0.347,0.302,0.127,-0.164,107.540,3.153,1.346,0.903,3,3,3.468
1780148255307,-0.033,1.113,-0.348,0.323,0.134,-0.172,107.367,3.541,1.351,0.990,3,3,3.246
1780148255320,-0.034,1.122,-0.348,0.346,0.142,-0.180,107.141,3.461,1.376,1.081,3,3,3.215
1780148255334,-0.033,1.130,-0.348,0.371,0.149,-0.188,106.919,3.108,1.342,1.154,3,3,3.664
1780148255347,-0.029,1.137,-0.348,0.401,0.154,-0.194,106.707,2.590,1.348,1.243,3,3,3.298
1780148255362,-0.021,1.144,-0.350,0.434,0.154,-0.200,106.767,1.748,1.367,1.355,3,3,3.331
1780148255375,-0.011,1.151,-0.350,0.470,0.148,-0.207,106.597,0.698,1.359,1.467,3,3,3.243
1780148255388,-0.001,1.160,-0.349,0.511,0.136,-0.214,106.356,-0.215,1.409,1.639,3,3,3.241
1780148255402,0.005,1.167,-0.349,0.557,0.120,-0.225,106.138,-0.718,1.378,1.843,4,4,3.718
1780148255416,0.017,1.175,-0.360,0.614,0.100,-0.241,106.927,-1.610,1.508,2.235,4,4,3.225
1780148255429,0.020,1.176,-0.374,0.679,0.088,-0.262,108.110,-1.833,1.370,2.517,4,4,3.223
1780148255442,0.031,1.174,-0.387,0.744,0.076,-0.283,109.324,-2.792,1.356,2.576,4,4,3.345
1780148255456,0.042,1.176,-0.390,0.809,0.060,-0.306,109.410,-3.704,1.329,2.663,4,4,3.219
1780148255469,0.047,1.166,-0.389,0.867,0.042,-0.328,109.574,-4.096,1.029,2.570,4,4,3.762
1780148255483,0.053,1.140,-0.389,0.896,0.028,-0.348,110.958,-5.205,0.712,1.894,4,4,3.224
1780148255496,0.055,1.113,-0.386,0.910,0.023,-0.365,111.914,-5.613,0.626,1.518,4,4,3.225
1780148255509,0.051,1.073,-0.360,0.879,0.024,-0.369,105.382,-4.157,0.268,0.480,4,4,3.217
1780148255523,0.060,1.061,-0.328,0.840,0.040,-0.373,101.512,-5.244,0.928,0.699,4,4,3.223
1780148255536,0.060,1.044,-0.300,0.797,0.067,-0.375,98.035,-5.291,0.746,0.927,4,4,3.689
1780148255550,0.071,1.021,-0.275,0.743,0.099,-0.370,94.551,-7.406,0.654,1.169,4,4,3.268
1780148255563,0.082,0.996,-0.249,0.677,0.133,-0.361,90.832,-9.517,0.643,1.438,4,4,3.224
1780148255577,0.094,0.972,-0.226,0.601,0.165,-0.351,87.680,-11.946,0.646,1.705,4,4,3.227
1780148255590,0.112,0.952,-0.206,0.516,0.195,-0.337,85.693,-14.774,0.744,1.947,4,4,3.399
1780148255603,0.131,0.935,-0.191,0.428,0.218,-0.316,84.745,-17.441,0.796,2.053,4,4,3.684
1780148255617,0.145,0.922,-0.178,0.337,0.234,-0.296,84.377,-19.156,0.804,2.126,4,4,3.230
1780148255630,0.157,0.913,-0.170,0.247,0.246,-0.277,84.863,-20.167,0.816,2.190,4,4,3.256
1780148255644,0.167,0.909,-0.165,0.157,0.254,-0.258,85.735,-20.720,0.912,2.234,4,4,3.215
1780148255657,0.177,0.908,-0.164,0.068,0.260,-0.238,86.991,-20.965,0.968,2.302,4,4,3.221
1780148255670,0.184,0.912,-0.166,-0.020,0.265,-0.217,88.403,-20.769,1.088,2.349,5,5,3.730
1780148255684,0.190,0.920,-0.171,-0.105,0.271,-0.193,89.936,-20.277,1.176,2.389,5,5,3.229
1780148255698,0.193,0.933,-0.179,-0.188,0.277,-0.167,91.456,-19.440,1.280,2.431,5,5,3.441
1780148255711,0.193,0.946,-0.188,-0.268,0.286,-0.141,92.999,-18.379,1.323,2.477,5,5,3.312
1780148255725,0.191,0.964,-0.198,-0.346,0.296,-0.113,94.370,-17.194,1.423,2.514,5,5,3.346
1780148255738,0.187,0.986,-0.210,-0.420,0.310,-0.086,95.612,-15.941,1.547,2.513,5,5,3.705
1780148255752,0.183,1.015,-0.224,-0.489,0.327,-0.059,96.756,-14.702,1.716,2.472,5,5,3.261
1780148255765,0.175,1.044,-0.239,-0.551,0.344,-0.032,97.924,-13.307,1.773,2.408,5,5,3.237
1780148255779,0.167,1.068,-0.256,-0.612,0.361,-0.008,99.188,-11.993,1.729,2.398,5,5,3.255
1780148255792,0.162,1.098,-0.274,-0.669,0.375,0.012,100.285,-11.004,1.878,2.341,5,5,3.297
1780148255805,0.154,1.127,-0.292,-0.720,0.391,0.030,101.370,-9.949,1.895,2.262,5,5,3.686
1780148255819,0.150,1.147,-0.318,-0.770,0.405,0.046,103.052,-9.151,1.810,2.266,5,5,3.249
1780148255833,0.145,1.166,-0.346,-0.818,0.424,0.060,104.790,-8.390,1.836,2.290,5,5,3.221
1780148255846,0.142,1.183,-0.377,-0.861,0.446,0.074,106.614,-7.819,1.888,2.252,5,5,3.221
1780148255859,0.139,1.198,-0.411,-0.897,0.469,0.087,108.543,-7.281,1.911,2.166,5,5,3.242
1780148255872,0.134,1.210,-0.448,-0.927,0.489,0.099,110.682,-6.684,1.948,2.018,5,5,3.691
1780148255888,0.128,1.217,-0.492,-0.947,0.506,0.107,113.107,-6.026,1.985,1.766,5,5,3.621
1780148255901,0.122,1.221,-0.548,-0.961,0.518,0.109,116.008,-5.443,2.211,1.598,5,5,3.238
1780148255915,0.119,1.222,-0.599,-0.959,0.523,0.112,118.708,-5.039,2.120,1.118,5,5,3.304
1780148255928,0.113,1.218,-0.653,-0.943,0.521,0.113,121.493,-4.544,2.148,0.731,5,5,3.254
1780148255941,0.103,1.213,-0.703,-0.916,0.514,0.112,124.112,-3.816,2.115,0.399,5,5,3.695
1780148255956,0.088,1.206,-0.748,-0.875,0.507,0.108,126.435,-2.750,2.035,0.370,5,5,3.969
1780148255969,0.070,1.198,-0.782,-0.824,0.503,0.100,128.306,-1.578,1.878,0.644,5,5,3.229
1780148255983,0.056,1.191,-0.808,-0.767,0.503,0.090,129.667,-0.667,1.725,0.906,5,5,3.215
1780148255996,0.049,1.184,-0.820,-0.705,0.506,0.080,130.280,-0.188,1.507,1.081,5,5,3.274
1780148256009,0.032,1.175,-0.811,-0.640,0.518,0.058,129.583,1.455,1.192,1.436,1,1,3.676
1780148256023,0.024,1.195,-0.742,-0.591,0.529,0.039,123.481,1.708,1.823,1.151,1,1,3.240
1780148256036,0.025,1.270,-0.600,-0.524,0.536,0.036,116.395,1.507,3.830,1.415,1,1,3.333
1780148256050,0.017,1.238,-0.572,-0.458,0.551,0.021,113.470,2.848,0.558,1.610,1,1,3.226
1780148256064,0.013,1.242,-0.603,-0.382,0.555,0.016,115.399,2.775,1.852,1.727,1,1,3.219
1780148256077,0.023,1.210,-0.625,-0.319,0.539,0.018,119.192,1.504,1.248,1.315,1,1,3.713
1780148256091,0.018,1.208,-0.592,-0.270,0.517,0.024,115.778,1.764,1.168,1.031,1,1,3.239
1780148256104,0.018,1.199,-0.568,-0.226,0.496,0.030,113.576,1.521,1.011,0.929,1,1,3.233
1780148256117,0.017,1.188,-0.554,-0.185,0.480,0.037,112.656,1.328,0.983,0.900,1,1,3.235
1780148256131,0.023,1.175,-0.543,-0.153,0.464,0.041,112.388,0.306,0.951,0.704,1,1,3.217
1780148256144,0.030,1.164,-0.534,-0.129,0.446,0.042,112.102,-0.695,0.986,0.496,1,1,3.680
1780148256158,0.037,1.153,-0.525,-0.111,0.428,0.041,111.872,-1.705,0.987,0.354,1,1,3.230
1780148256171,0.042,1.143,-0.514,-0.099,0.411,0.038,111.346,-2.418,0.996,0.228,1,1,3.214
1780148256184,0.048,1.136,-0.502,-0.089,0.394,0.034,110.611,-3.089,1.017,0.194,1,1,3.234
1780148256198,0.051,1.129,-0.490,-0.081,0.375,0.029,109.997,-3.407,1.009,0.185,1,1,3.235
1780148256211,0.052,1.123,-0.479,-0.073,0.358,0.025,109.313,-3.475,1.027,0.182,1,1,3.679
1780148256225,0.050,1.119,-0.467,-0.064,0.342,0.024,108.537,-3.201,1.037,0.187,1,1,3.321
1780148256238,0.048,1.114,-0.456,-0.054,0.327,0.023,107.913,-2.936,1.039,0.226,1,1,3.319
1780148256252,0.045,1.109,-0.446,-0.043,0.313,0.025,107.485,-2.583,1.029,0.252,1,1,3.877
1780148256266,0.044,1.104,-0.437,-0.032,0.300,0.027,107.115,-2.436,1.032,0.271,1,1,3.240
1780148256279,0.046,1.100,-0.429,-0.021,0.288,0.029,106.745,-2.628,1.038,0.266,1,1,3.708
1780148256293,0.049,1.096,-0.420,-0.011,0.276,0.029,106.437,-2.994,1.050,0.253,1,1,3.248
1780148256306,0.053,1.093,-0.413,-0.001,0.264,0.027,106.210,-3.439,1.052,0.266,1,1,3.224
1780148256320,0.057,1.088,-0.407,0.008,0.252,0.023,106.085,-3.829,1.033,0.273,1,1,3.239
1780148256333,0.059,1.084,-0.401,0.017,0.240,0.018,106.014,-4.046,1.037,0.278,1,1,3.227
1780148256346,0.059,1.080,-0.395,0.025,0.228,0.012,105.927,-4.004,1.036,0.276,1,1,3.741
1780148256360,0.059,1.077,-0.390,0.032,0.217,0.006,105.891,-3.848,1.041,0.269,1,1,3.222
1780148256373,0.058,1.074,-0.385,0.039,0.207,0.001,105.888,-3.680,1.039,0.251,1,1,3.214
1780148256387,0.057,1.070,-0.381,0.045,0.198,-0.003,105.909,-3.535,1.041,0.231,1,1,3.271
1780148256402,0.055,1.068,-0.377,0.050,0.190,-0.006,105.949,-3.295,1.052,0.209,1,1,3.310
1780148256418,0.054,1.065,-0.374,0.055,0.182,-0.009,106.017,-3.101,1.040,0.204,1,1,3.747
1780148256431,0.053,1.061,-0.371,0.059,0.174,-0.012,106.108,-3.023,1.031,0.206,1,1,3.221
1780148256445,0.051,1.057,-0.368,0.064,0.167,-0.015,106.265,-2.813,1.026,0.204,1,1,3.684
1780148256459,0.051,1.054,-0.366,0.069,0.161,-0.017,106.390,-2.720,1.028,0.202,1,1,3.230
1780148256472,0.050,1.051,-0.363,0.073,0.154,-0.019,106.537,-2.671,1.029,0.198,1,1,3.220
1780148256487,0.050,1.047,-0.362,0.077,0.147,-0.022,106.688,-2.618,1.026,0.192,1,1,5.472
1780148256501,0.049,1.045,-0.359,0.080,0.141,-0.024,106.785,-2.504,1.033,0.190,1,1,3.251
1780148256515,0.048,1.042,-0.358,0.083,0.135,-0.026,106.924,-2.392,1.035,0.188,1,1,3.724
1780148256528,0.046,1.040,-0.357,0.086,0.129,-0.028,107.076,-2.190,1.044,0.180,1,1,3.221
1780148256541,0.043,1.038,-0.355,0.089,0.124,-0.029,107.164,-1.931,1.056,0.177,1,1,3.234
1780148256555,0.041,1.037,-0.354,0.092,0.120,-0.030,107.257,-1.744,1.063,0.180,1,1,3.687
1780148256568,0.039,1.036,-0.353,0.095,0.116,-0.031,107.332,-1.537,1.074,0.190,1,1,3.227
1780148256582,0.037,1.036,-0.353,0.099,0.113,-0.032,107.441,-1.333,1.085,0.206,1,1,3.231
1780148256595,0.035,1.036,-0.352,0.103,0.110,-0.033,107.517,-1.194,1.089,0.224,1,1,3.222
1780148256608,0.034,1.036,-0.352,0.108,0.108,-0.035,107.584,-1.082,1.093,0.248,1,1,3.233
1780148256622,0.033,1.036,-0.352,0.114,0.106,-0.036,107.704,-1.056,1.089,0.274,1,1,3.675
1780148256635,0.032,1.035,-0.352,0.119,0.104,-0.039,107.856,-1.051,1.086,0.304,1,1,3.269
1780148256649,0.032,1.034,-0.353,0.126,0.103,-0.043,108.038,-1.029,1.071,0.329,1,1,3.232
1780148256662,0.030,1.033,-0.353,0.133,0.102,-0.048,108.218,-0.906,1.085,0.357,1,1,3.227
1780148256676,0.028,1.033,-0.355,0.140,0.102,-0.053,108.458,-0.783,1.091,0.393,1,1,3.863
1780148256689,0.027,1.032,-0.356,0.147,0.102,-0.058,108.710,-0.666,1.079,0.400,4,4,3.712
1780148256703,0.025,1.031,-0.358,0.156,0.101,-0.061,108.925,-0.579,1.096,0.420,4,4,3.551
1780148256717,0.024,1.031,-0.360,0.166,0.100,-0.064,109.141,-0.539,1.107,0.456,4,4,3.276
1780148256730,0.023,1.031,-0.362,0.177,0.100,-0.067,109.366,-0.410,1.108,0.497,4,4,3.222
1780148256744,0.021,1.032,-0.364,0.190,0.100,-0.071,109.581,-0.291,1.120,0.543,4,4,3.419
1780148256757,0.019,1.033,-0.367,0.203,0.100,-0.075,109.817,-0.178,1.155,0.592,3,3,3.904
1780148256771,0.019,1.036,-0.371,0.218,0.099,-0.080,110.028,-0.246,1.189,0.640,3,3,3.234
1780148256785,0.019,1.040,-0.374,0.234,0.098,-0.085,110.216,-0.322,1.202,0.686,3,3,3.229
1780148256798,0.018,1.044,-0.378,0.251,0.097,-0.090,110.442,-0.274,1.234,0.729,3,3,3.237
1780148256811,0.015,1.049,-0.383,0.269,0.096,-0.095,110.630,0.011,1.256,0.773,3,3,3.222
1780148256825,-0.000,1.061,-0.386,0.288,0.098,-0.101,110.483,1.265,1.439,0.834,3,3,3.668
1780148256838,-0.001,1.078,-0.391,0.307,0.103,-0.111,110.339,1.197,1.539,0.936,3,3,3.284
1780148256852,0.011,1.092,-0.396,0.330,0.104,-0.117,110.293,0.134,1.488,0.949,3,3,3.215
1780148256865,0.006,1.105,-0.398,0.354,0.104,-0.122,110.069,0.500,1.473,1.017,3,3,3.230
1780148256878,-0.009,1.122,-0.399,0.380,0.107,-0.128,109.651,1.552,1.583,1.114,3,3,3.244
1780148256892,-0.011,1.142,-0.399,0.409,0.113,-0.133,109.078,1.592,1.638,1.223,3,3,3.660
1780148256905,-0.007,1.162,-0.396,0.441,0.118,-0.135,108.453,1.178,1.619,1.318,3,3,3.244
1780148256920,-0.009,1.181,-0.392,0.477,0.123,-0.134,107.666,1.224,1.630,1.441,3,3,4.491
1780148256933,-0.007,1.199,-0.383,0.517,0.127,-0.132,106.651,1.044,1.597,1.561,3,3,3.265
1780148256947,-0.005,1.215,-0.374,0.562,0.132,-0.130,105.672,0.750,1.575,1.769,3,3,3.224
1780148256960,0.005,1.228,-0.366,0.619,0.129,-0.131,104.879,-0.110,1.557,2.101,3,3,3.683
1780148256975,0.010,1.240,-0.360,0.689,0.121,-0.139,104.315,-0.487,1.515,2.525,3,3,3.280
1780148256988,0.007,1.233,-0.365,0.756,0.121,-0.150,105.179,-0.215,1.175,2.543,3,3,3.223
1780148257001,0.010,1.200,-0.387,0.821,0.120,-0.170,109.503,-0.537,1.000,2.596,3,3,3.262
1780148257015,0.030,1.185,-0.392,0.870,0.113,-0.198,110.521,-2.942,1.088,2.336,3,3,3.235
1780148257028,0.047,1.156,-0.373,0.891,0.105,-0.218,108.114,-6.410,0.670,1.615,4,4,3.687
1780148257042,0.070,1.118,-0.340,0.882,0.077,-0.222,101.572,-10.487,0.738,0.966,4,4,3.234
1780148257055,0.069,1.098,-0.310,0.854,0.059,-0.236,97.769,-9.813,0.750,0.740,4,4,3.235
1780148257069,0.073,1.076,-0.283,0.816,0.046,-0.248,94.351,-10.157,0.679,0.662,4,4,3.571
1780148257082,0.079,1.051,-0.259,0.766,0.034,-0.254,91.444,-11.187,0.599,0.713,4,4,3.228
1780148257095,0.081,1.025,-0.240,0.704,0.026,-0.258,89.214,-11.483,0.518,1.009,4,4,3.687
1780148257111,0.081,1.004,-0.222,0.633,0.025,-0.264,87.681,-11.174,0.571,1.265,4,4,4.934
1780148257124,0.092,0.983,-0.210,0.556,0.029,-0.267,87.381,-13.218,0.623,1.485,4,4,3.232
1780148257138,0.102,0.965,-0.201,0.475,0.033,-0.265,87.603,-14.668,0.665,1.659,4,4,3.232
1780148257151,0.112,0.950,-0.195,0.389,0.038,-0.264,88.359,-15.956,0.696,1.865,4,4,3.233
1780148257165,0.124,0.940,-0.190,0.300,0.045,-0.262,89.227,-17.187,0.824,2.026,4,4,4.939
1780148257179,0.140,0.934,-0.188,0.211,0.051,-0.258,90.217,-18.446,0.943,2.116,4,4,3.231
1780148257193,0.156,0.929,-0.190,0.124,0.056,-0.251,91.692,-19.632,0.999,2.163,4,4,3.260
1780148257206,0.170,0.927,-0.195,0.038,0.060,-0.242,93.369,-20.298,1.043,2.204,4,4,3.226
1780148257222,0.180,0.928,-0.203,-0.047,0.063,-0.229,95.118,-20.459,1.100,2.254,4,4,3.231
1780148257235,0.187,0.931,-0.213,-0.129,0.068,-0.214,96.794,-20.130,1.143,2.278,5,5,3.711
1780148257249,0.191,0.937,-0.222,-0.210,0.077,-0.196,98.243,-19.442,1.191,2.336,5,5,3.226
1780148257265,0.192,0.948,-0.233,-0.289,0.090,-0.176,99.515,-18.575,1.292,2.406,5,5,5.793
1780148257278,0.191,0.964,-0.247,-0.365,0.106,-0.156,100.789,-17.430,1.444,2.429,5,5,3.599
1780148257294,0.188,0.988,-0.265,-0.434,0.130,-0.137,102.021,-16.159,1.647,2.368,5,5,5.089
1780148257307,0.182,1.012,-0.288,-0.495,0.163,-0.118,103.434,-14.790,1.730,2.345,5,5,3.693
1780148257321,0.177,1.035,-0.312,-0.549,0.210,-0.101,104.875,-13.563,1.747,2.432,5,5,3.231
1780148257334,0.169,1.054,-0.336,-0.598,0.271,-0.084,106.342,-12.278,1.711,2.671,5,5,3.239
1780148257348,0.160,1.072,-0.359,-0.646,0.347,-0.067,107.716,-11.035,1.688,3.023,5,5,3.233
1780148257361,0.152,1.086,-0.382,-0.693,0.427,-0.052,109.091,-9.910,1.650,3.155,5,5,3.232
1780148257374,0.153,1.097,-0.406,-0.737,0.504,-0.039,110.562,-9.481,1.642,3.142,5,5,3.697
1780148257388,0.154,1.122,-0.432,-0.778,0.578,-0.029,111.548,-9.112,1.955,3.124,5,5,3.226
1780148257401,0.173,1.128,-0.469,-0.822,0.649,-0.020,113.840,-9.945,1.887,3.182,5,5,3.227
1780148257415,0.201,1.126,-0.507,-0.850,0.712,-0.015,116.400,-11.431,1.905,2.827,5,5,3.234
1780148257428,0.233,1.138,-0.545,-0.873,0.750,-0.009,118.124,-12.734,2.163,2.294,5,5,3.311
1780148257441,0.259,1.138,-0.588,-0.888,0.762,0.002,120.536,-13.757,2.087,1.687,5,5,3.791
1780148257459,0.275,1.136,-0.634,-0.895,0.752,0.011,123.005,-14.151,2.064,1.196,5,5,6.746
1780148257472,0.274,1.134,-0.680,-0.888,0.732,0.021,125.287,-13.447,2.021,0.786,5,5,3.229
1780148257485,0.261,1.130,-0.724,-0.870,0.710,0.029,127.499,-12.141,1.992,0.492,5,5,3.225
1780148257499,0.243,1.125,-0.764,-0.842,0.691,0.034,129.446,-10.570,1.936,0.276,5,5,3.230
1780148257512,0.224,1.121,-0.797,-0.805,0.676,0.036,131.007,-9.005,1.845,0.353,1,1,3.683
1780148257526,0.206,1.116,-0.820,-0.760,0.667,0.037,132.111,-7.535,1.662,0.587,1,1,3.263
1780148257539,0.189,1.109,-0.829,-0.711,0.662,0.038,132.587,-6.067,1.431,0.772,1,1,3.223
1780148257552,0.159,1.125,-0.822,-0.662,0.676,0.012,130.865,-3.880,1.690,1.379,1,1,3.220
1780148257566,0.143,1.140,-0.774,-0.622,0.682,-0.010,125.931,-2.760,1.496,1.094,1,1,3.228
1780148257579,0.086,1.265,-0.622,-0.533,0.688,0.024,119.266,-1.206,4.972,2.157,1,1,3.689
1780148257593,0.125,1.215,-0.632,-0.466,0.680,0.015,124.196,-5.725,1.315,1.381,1,1,3.265
1780148257606,0.117,1.224,-0.666,-0.383,0.673,0.021,125.182,-5.029,2.000,1.840,1,1,3.233
1780148257620,0.119,1.192,-0.663,-0.334,0.637,0.030,126.762,-5.577,0.789,1.015,1,1,3.494
1780148257633,0.105,1.190,-0.630,-0.293,0.606,0.042,122.822,-4.188,1.162,0.855,1,1,3.256
1780148257646,0.098,1.175,-0.622,-0.268,0.583,0.051,122.354,-3.469,0.957,0.492,1,1,3.680
1780148257660,0.102,1.160,-0.614,-0.250,0.567,0.057,121.821,-4.169,0.971,0.345,1,1,3.245
1780148257674,0.107,1.153,-0.598,-0.235,0.549,0.060,120.192,-4.955,1.042,0.220,1,1,3.226
1780148257687,0.112,1.145,-0.582,-0.220,0.530,0.060,118.538,-5.627,1.034,0.184,1,1,3.251
1780148257700,0.119,1.138,-0.566,-0.205,0.511,0.057,117.047,-6.485,1.022,0.188,1,1,3.232
1780148257713,0.123,1.131,-0.551,-0.191,0.492,0.052,115.645,-7.026,1.028,0.190,1,1,3.682
1780148257727,0.121,1.125,-0.536,-0.178,0.472,0.047,114.384,-6.792,1.027,0.192,1,1,3.230
1780148257741,0.115,1.120,-0.521,-0.165,0.453,0.044,113.123,-6.108,1.026,0.190,1,1,3.223
1780148257754,0.109,1.115,-0.507,-0.151,0.435,0.043,111.906,-5.362,1.034,0.218,1,1,3.258
1780148257767,0.102,1.111,-0.493,-0.136,0.419,0.046,110.829,-4.614,1.046,0.268,1,1,3.229
1780148257781,0.095,1.107,-0.480,-0.121,0.404,0.051,109.961,-3.870,1.039,0.322,1,1,3.720
1780148257794,0.091,1.102,-0.469,-0.107,0.390,0.056,109.289,-3.459,1.014,0.330,1,1,3.261
1780148257808,0.091,1.097,-0.459,-0.093,0.378,0.060,108.711,-3.601,1.024,0.307,1,1,3.259
1780148257821,0.093,1.093,-0.449,-0.081,0.365,0.063,108.132,-4.028,1.039,0.277,1,1,3.304
1780148257835,0.097,1.089,-0.439,-0.069,0.352,0.062,107.642,-4.604,1.046,0.254,1,1,3.232
1780148257848,0.101,1.085,-0.431,-0.056,0.339,0.060,107.278,-5.107,1.046,0.263,1,1,3.718
1780148257862,0.102,1.081,-0.423,-0.044,0.326,0.055,107.015,-5.264,1.030,0.272,1,1,3.228
1780148257875,0.101,1.077,-0.416,-0.033,0.314,0.050,106.799,-5.296,1.028,0.273,1,1,3.224
1780148257888,0.100,1.074,-0.410,-0.023,0.302,0.046,106.640,-5.127,1.036,0.252,1,1,3.237
1780148257902,0.098,1.070,-0.404,-0.014,0.290,0.042,106.554,-4.992,1.034,0.227,1,1,3.227
1780148257915,0.096,1.067,-0.398,-0.006,0.280,0.039,106.443,-4.715,1.042,0.203,1,1,4.047
1780148257929,0.094,1.065,-0.393,0.001,0.269,0.036,106.349,-4.510,1.041,0.195,1,1,3.273
1780148257943,0.092,1.061,-0.388,0.008,0.260,0.034,106.320,-4.349,1.036,0.193,1,1,3.241
1780148257956,0.090,1.059,-0.384,0.015,0.251,0.031,106.267,-4.261,1.037,0.192,1,1,3.226
1780148257970,0.089,1.055,-0.380,0.021,0.243,0.028,106.356,-4.158,1.030,0.176,1,1,3.348
1780148257983,0.087,1.052,-0.377,0.026,0.235,0.026,106.389,-3.995,1.034,0.174,1,1,3.836
1780148257997,0.086,1.050,-0.373,0.032,0.227,0.025,106.362,-3.937,1.047,0.180,1,1,3.230
1780148258010,0.085,1.048,-0.370,0.037,0.220,0.022,106.402,-3.946,1.037,0.188,1,1,3.239
1780148258023,0.085,1.045,-0.367,0.043,0.212,0.020,106.522,-4.003,1.038,0.194,1,1,3.238
1780148258037,0.085,1.042,-0.365,0.049,0.205,0.018,106.623,-4.046,1.031,0.199,1,1,3.228
1780148258050,0.084,1.040,-0.362,0.054,0.198,0.016,106.712,-3.989,1.033,0.201,1,1,3.696
1780148258064,0.084,1.037,-0.361,0.059,0.191,0.013,106.846,-4.060,1.038,0.203,1,1,3.230
1780148258077,0.082,1.035,-0.359,0.064,0.184,0.010,106.983,-3.908,1.052,0.205,1,1,3.232
1780148258091,0.081,1.034,-0.358,0.069,0.177,0.008,107.163,-3.777,1.054,0.204,1,1,3.227
1780148258104,0.080,1.033,-0.358,0.074,0.170,0.005,107.284,-3.682,1.070,0.208,1,1,3.229
1780148258117,0.079,1.032,-0.357,0.078,0.164,0.001,107.410,-3.703,1.072,0.214,2,2,3.693
1780148258131,0.078,1.031,-0.356,0.083,0.157,-0.003,107.563,-3.628,1.064,0.229,2,2,3.230
1780148258144,0.077,1.030,-0.356,0.088,0.151,-0.007,107.704,-3.526,1.065,0.243,2,2,3.247
1780148258158,0.075,1.029,-0.356,0.093,0.145,-0.012,107.836,-3.318,1.066,0.261,2,2,3.228
1780148258171,0.073,1.028,-0.356,0.098,0.139,-0.017,107.984,-3.171,1.069,0.281,2,2,3.242
1780148258184,0.073,1.027,-0.356,0.104,0.134,-0.022,108.168,-3.309,1.068,0.305,1,1,3.682
1780148258198,0.073,1.026,-0.357,0.110,0.128,-0.028,108.406,-3.332,1.072,0.330,1,1,3.220
1780148258212,0.072,1.024,-0.358,0.117,0.122,-0.035,108.656,-3.258,1.061,0.350,1,1,3.869
1780148258225,0.071,1.022,-0.359,0.124,0.116,-0.041,108.944,-3.243,1.064,0.375,1,1,3.219
1780148258239,0.071,1.021,-0.361,0.131,0.110,-0.048,109.176,-3.232,1.078,0.400,1,1,3.236
1780148258252,0.069,1.021,-0.363,0.139,0.104,-0.055,109.406,-3.137,1.097,0.429,4,4,3.676
1780148258266,0.068,1.021,-0.364,0.148,0.097,-0.061,109.603,-3.035,1.086,0.438,4,4,3.228
1780148258279,0.067,1.020,-0.366,0.158,0.089,-0.065,109.857,-2.924,1.084,0.461,4,4,3.293
1780148258293,0.065,1.021,-0.369,0.168,0.081,-0.070,110.069,-2.778,1.118,0.489,4,4,3.226
1780148258306,0.064,1.022,-0.371,0.179,0.073,-0.074,110.291,-2.711,1.140,0.514,4,4,3.299
1780148258320,0.062,1.025,-0.375,0.190,0.064,-0.078,110.481,-2.553,1.175,0.534,3,3,4.411
1780148258334,0.050,1.037,-0.378,0.203,0.057,-0.082,110.332,-1.470,1.398,0.567,3,3,3.280
1780148258348,0.049,1.053,-0.382,0.216,0.055,-0.091,110.187,-1.431,1.479,0.671,3,3,3.587
1780148258362,0.056,1.065,-0.386,0.233,0.047,-0.097,110.134,-2.110,1.418,0.714,3,3,3.226
1780148258375,0.047,1.075,-0.389,0.250,0.040,-0.103,110.039,-1.313,1.382,0.770,3,3,3.229
1780148258389,0.030,1.088,-0.391,0.270,0.037,-0.110,109.825,0.060,1.468,0.830,3,3,3.673
1780148258402,0.024,1.102,-0.393,0.292,0.037,-0.117,109.562,0.443,1.490,0.916,3,3,3.230
1780148258416,0.024,1.115,-0.395,0.317,0.037,-0.121,109.314,0.355,1.465,0.985,3,3,3.222
1780148258429,0.019,1.127,-0.394,0.344,0.036,-0.123,108.986,0.694,1.442,1.072,3,3,3.264
1780148258442,0.016,1.137,-0.393,0.374,0.037,-0.125,108.599,0.821,1.398,1.165,3,3,3.226
1780148258456,0.014,1.146,-0.392,0.407,0.036,-0.125,108.264,0.781,1.386,1.268,3,3,3.694
1780148258470,0.015,1.153,-0.387,0.443,0.035,-0.125,107.701,0.590,1.353,1.394,3,3,3.954
1780148258484,0.021,1.159,-0.383,0.483,0.031,-0.126,107.250,-0.078,1.315,1.520,3,3,3.323
1780148258499,0.028,1.164,-0.379,0.527,0.024,-0.127,106.855,-0.857,1.339,1.691,3,3,4.853
1780148258512,0.034,1.169,-0.377,0.579,0.013,-0.127,106.649,-1.444,1.330,1.937,3,3,3.230
1780148258525,0.038,1.171,-0.382,0.641,0.001,-0.131,107.162,-1.792,1.322,2.289,4,4,3.691
1780148258540,0.035,1.156,-0.401,0.703,-0.006,-0.138,109.796,-1.501,1.145,2.351,4,4,3.236
1780148258553,0.039,1.130,-0.417,0.740,-0.013,-0.147,113.002,-2.054,0.970,1.749,4,4,3.226
1780148258567,0.070,1.113,-0.404,0.754,-0.027,-0.152,111.595,-6.135,1.055,1.229,4,4,3.686
1780148258580,0.102,1.086,-0.372,0.755,-0.062,-0.146,106.378,-10.693,1.005,1.255,4,4,3.227
1780148258593,0.105,1.068,-0.340,0.744,-0.096,-0.142,102.198,-10.804,0.771,1.062,4,4,3.809
1780148258607,0.102,1.046,-0.311,0.723,-0.117,-0.141,98.083,-10.179,0.659,0.714,4,4,3.236
1780148258621,0.099,1.022,-0.285,0.690,-0.129,-0.139,94.511,-9.516,0.572,0.462,4,4,3.234
1780148258635,0.096,0.999,-0.262,0.644,-0.129,-0.136,91.583,-8.921,0.557,0.566,4,4,3.988
1780148258648,0.097,0.978,-0.240,0.589,-0.121,-0.131,89.139,-9.015,0.580,0.858,4,4,3.234
1780148258662,0.101,0.958,-0.220,0.527,-0.108,-0.123,87.019,-9.957,0.610,1.115,4,4,3.696
1780148258675,0.111,0.939,-0.202,0.459,-0.093,-0.112,85.574,-11.894,0.640,1.333,4,4,3.229
1780148258689,0.123,0.923,-0.188,0.388,-0.082,-0.098,84.860,-14.035,0.687,1.505,4,4,3.217
1780148258702,0.134,0.910,-0.176,0.313,-0.076,-0.083,84.598,-15.625,0.746,1.650,4,4,3.246
1780148258715,0.144,0.902,-0.169,0.236,-0.075,-0.068,85.106,-16.637,0.805,1.797,4,4,3.218
1780148258729,0.151,0.900,-0.164,0.159,-0.077,-0.050,85.960,-16.974,0.914,1.905,4,4,3.930
1780148258743,0.155,0.902,-0.164,0.081,-0.081,-0.031,87.352,-16.627,0.988,1.996,4,4,3.261
1780148258756,0.154,0.907,-0.169,0.004,-0.086,-0.009,88.991,-15.792,1.073,2.072,4,4,3.259
1780148258770,0.154,0.918,-0.177,-0.070,-0.089,0.014,90.671,-14.961,1.218,2.108,4,4,3.257
1780148258783,0.152,0.934,-0.189,-0.141,-0.092,0.038,92.490,-13.981,1.358,2.104,4,4,3.254
1780148258796,0.146,0.952,-0.207,-0.209,-0.092,0.063,94.506,-12.691,1.465,2.076,5,5,3.894
1780148258811,0.137,0.972,-0.228,-0.271,-0.086,0.086,96.572,-11.242,1.567,2.014,5,5,3.248
1780148258825,0.124,0.993,-0.251,-0.327,-0.073,0.109,98.540,-9.673,1.664,1.945,5,5,3.273
1780148258838,0.112,1.014,-0.274,-0.378,-0.050,0.130,100.395,-8.236,1.656,1.903,5,5,3.323
1780148258852,0.101,1.031,-0.295,-0.425,-0.020,0.150,102.109,-6.993,1.604,1.920,5,5,3.362
1780148258865,0.094,1.048,-0.314,-0.468,0.016,0.168,103.533,-6.138,1.601,1.954,5,5,4.422
1780148258879,0.092,1.065,-0.332,-0.506,0.053,0.185,104.773,-5.715,1.598,1.921,5,5,3.244
1780148258893,0.095,1.079,-0.347,-0.542,0.086,0.201,105.890,-5.711,1.558,1.866,5,5,3.275
1780148258906,0.098,1.088,-0.364,-0.578,0.115,0.217,107.161,-5.756,1.487,1.836,5,5,3.247
1780148258920,0.100,1.099,-0.380,-0.612,0.138,0.233,108.278,-5.725,1.543,1.783,5,5,3.253
1780148258933,0.101,1.111,-0.398,-0.642,0.156,0.247,109.391,-5.636,1.572,1.679,5,5,3.841
1780148258947,0.101,1.120,-0.416,-0.667,0.170,0.259,110.541,-5.470,1.573,1.542,5,5,3.274
1780148258961,0.100,1.127,-0.435,-0.689,0.178,0.271,111.772,-5.216,1.529,1.435,5,5,3.336
1780148258975,0.096,1.132,-0.453,-0.707,0.183,0.283,113.020,-4.704,1.498,1.342,5,5,3.247
1780148258988,0.087,1.134,-0.472,-0.720,0.186,0.294,114.308,-3.868,1.479,1.249,5,5,3.245
1780148259002,0.074,1.135,-0.491,-0.731,0.191,0.302,115.598,-2.706,1.485,1.166,5,5,3.901
1780148259016,0.060,1.136,-0.510,-0.735,0.197,0.307,116.838,-1.609,1.504,1.012,5,5,3.267
1780148259029,0.047,1.136,-0.529,-0.732,0.204,0.309,118.105,-0.594,1.489,0.845,5,5,3.687
1780148259043,0.036,1.134,-0.549,-0.722,0.212,0.309,119.410,0.256,1.476,0.690,5,5,3.929
1780148259057,0.025,1.129,-0.567,-0.706,0.219,0.306,120.743,1.057,1.443,0.557,5,5,3.260
1780148259070,0.015,1.124,-0.585,-0.685,0.227,0.301,121.942,1.774,1.416,0.470,1,1,3.879
1780148259084,0.004,1.119,-0.599,-0.658,0.234,0.294,122.965,2.467,1.374,0.440,1,1,3.255
1780148259098,-0.003,1.113,-0.612,-0.627,0.241,0.284,123.823,2.945,1.345,0.466,1,1,3.263
1780148259111,-0.010,1.108,-0.622,-0.591,0.247,0.273,124.445,3.293,1.298,0.531,1,1,3.247
1780148259124,-0.015,1.102,-0.628,-0.553,0.253,0.261,124.762,3.566,1.234,0.604,1,1,3.258
1780148259138,-0.019,1.096,-0.630,-0.512,0.257,0.246,124.762,3.736,1.190,0.655,1,1,3.866
1780148259152,-0.022,1.091,-0.628,-0.470,0.258,0.230,124.395,3.770,1.146,0.707,1,1,3.261
1780148259165,-0.040,1.075,-0.620,-0.425,0.274,0.185,124.197,6.014,0.961,1.429,1,1,3.259
1780148259178,-0.045,1.088,-0.574,-0.386,0.286,0.139,119.260,5.988,1.451,1.357,1,1,3.251
1780148259192,-0.011,1.200,-0.437,-0.314,0.282,0.099,113.148,4.523,4.504,1.831,1,1,3.245
1780148259205,-0.031,1.167,-0.425,-0.247,0.282,0.073,112.638,8.256,0.667,1.641,1,1,3.876
1780148259219,-0.042,1.163,-0.454,-0.173,0.268,0.055,114.841,8.507,1.569,1.786,1,1,3.245
1780148259232,-0.048,1.138,-0.473,-0.110,0.240,0.049,117.842,8.581,1.060,1.612,1,1,3.243
1780148259253,-0.047,1.134,-0.452,-0.069,0.213,0.052,115.217,7.911,1.048,1.101,1,1,11.025
1780148259267,-0.049,1.123,-0.447,-0.038,0.199,0.054,114.734,7.736,0.953,0.814,1,1,3.552
1780148259281,-0.044,1.112,-0.444,-0.019,0.193,0.052,114.635,6.585,0.964,0.468,1,1,4.073
1780148259295,-0.034,1.104,-0.439,-0.008,0.189,0.047,114.166,4.956,1.004,0.303,1,1,3.448
1780148259308,-0.030,1.097,-0.436,0.002,0.183,0.042,113.893,4.118,1.004,0.282,1,1,3.426
1780148259322,-0.024,1.090,-0.431,0.011,0.176,0.038,113.402,3.198,1.000,0.232,1,1,3.424
1780148259336,-0.018,1.085,-0.425,0.017,0.170,0.034,112.825,2.243,1.022,0.203,1,1,3.440
1780148259350,-0.012,1.080,-0.419,0.024,0.164,0.029,112.216,1.459,1.025,0.217,1,1,4.195
1780148259368,-0.010,1.076,-0.414,0.030,0.158,0.027,111.675,1.143,1.023,0.189,1,1,3.393
1780148259381,-0.009,1.072,-0.408,0.035,0.152,0.025,111.106,0.935,1.031,0.176,1,1,3.367
1780148259395,-0.009,1.069,-0.402,0.040,0.146,0.025,110.516,0.845,1.039,0.159,1,1,3.517
1780148259409,-0.006,1.066,-0.396,0.044,0.141,0.026,109.969,0.557,1.033,0.152,1,1,3.642
1780148259424,-0.004,1.063,-0.391,0.048,0.135,0.028,109.593,0.244,1.039,0.166,1,1,5.020
1780148259440,-0.001,1.060,-0.387,0.051,0.130,0.030,109.313,-0.084,1.028,0.174,1,1,3.485
1780148259454,0.002,1.057,-0.382,0.055,0.124,0.030,109.036,-0.487,1.042,0.164,1,1,3.423
1780148259467,0.005,1.054,-0.378,0.058,0.117,0.030,108.767,-0.845,1.048,0.144,1,1,3.343
1780148259481,0.008,1.052,-0.375,0.061,0.111,0.029,108.560,-1.142,1.038,0.139,1,1,3.223
1780148259494,0.011,1.049,-0.372,0.063,0.106,0.029,108.414,-1.430,1.043,0.132,1,1,3.726
1780148259508,0.014,1.046,-0.369,0.065,0.101,0.028,108.309,-1.708,1.030,0.121,1,1,3.219
1780148259521,0.017,1.044,-0.366,0.067,0.095,0.026,108.182,-1.920,1.030,0.112,1,1,3.215
1780148259534,0.018,1.041,-0.363,0.068,0.090,0.025,108.087,-2.003,1.036,0.105,1,1,3.222
1780148259548,0.020,1.039,-0.361,0.069,0.086,0.024,108.018,-2.110,1.035,0.105,1,1,3.221
1780148259561,0.021,1.037,-0.359,0.070,0.082,0.022,107.968,-2.168,1.044,0.101,1,1,3.827
1780148259575,0.023,1.035,-0.356,0.071,0.077,0.021,107.901,-2.305,1.034,0.101,1,1,3.230
1780148259588,0.024,1.032,-0.354,0.071,0.073,0.019,107.822,-2.375,1.032,0.094,1,1,3.215
1780148259602,0.026,1.030,-0.352,0.072,0.069,0.017,107.788,-2.482,1.036,0.103,1,1,3.219
1780148259615,0.027,1.028,-0.350,0.073,0.065,0.015,107.747,-2.528,1.033,0.105,1,1,3.233
1780148259628,0.028,1.026,-0.349,0.074,0.061,0.014,107.769,-2.524,1.029,0.110,1,1,3.690
1780148259642,0.029,1.025,-0.347,0.075,0.057,0.012,107.773,-2.504,1.042,0.111,1,1,3.216
1780148259655,0.030,1.023,-0.346,0.076,0.054,0.010,107.757,-2.520,1.040,0.120,1,1,3.224
1780148259669,0.031,1.021,-0.345,0.078,0.050,0.009,107.823,-2.606,1.035,0.135,1,1,3.223
1780148259682,0.032,1.019,-0.345,0.079,0.046,0.006,107.946,-2.585,1.037,0.137,1,1,3.226
1780148259695,0.033,1.018,-0.345,0.081,0.043,0.004,108.044,-2.631,1.042,0.142,2,2,3.679
1780148259709,0.033,1.016,-0.344,0.082,0.039,0.002,108.104,-2.567,1.041,0.143,2,2,3.224
1780148259722,0.033,1.015,-0.344,0.084,0.036,-0.000,108.184,-2.476,1.046,0.151,2,2,3.255
1780148259736,0.033,1.015,-0.343,0.086,0.033,-0.003,108.170,-2.408,1.052,0.165,2,2,3.224
1780148259749,0.033,1.014,-0.343,0.089,0.031,-0.005,108.241,-2.340,1.053,0.179,2,2,3.214
1780148259762,0.033,1.013,-0.343,0.093,0.028,-0.007,108.302,-2.290,1.049,0.194,3,3,3.687
1780148259776,0.033,1.012,-0.343,0.097,0.026,-0.009,108.416,-2.318,1.053,0.214,3,3,3.229
1780148259789,0.033,1.012,-0.343,0.101,0.024,-0.012,108.481,-2.288,1.064,0.243,3,3,3.238
1780148259803,0.033,1.011,-0.344,0.106,0.022,-0.015,108.597,-2.201,1.057,0.260,3,3,3.228
1780148259816,0.032,1.011,-0.345,0.112,0.020,-0.018,108.743,-2.025,1.068,0.284,3,3,3.228
1780148259829,0.031,1.010,-0.346,0.119,0.018,-0.021,108.901,-1.889,1.067,0.304,3,3,3.674
1780148259843,0.030,1.010,-0.347,0.126,0.017,-0.023,109.014,-1.760,1.070,0.331,3,3,3.244
1780148259857,0.029,1.010,-0.349,0.135,0.017,-0.026,109.185,-1.577,1.076,0.365,3,3,3.537
1780148259870,0.027,1.010,-0.351,0.144,0.017,-0.029,109.372,-1.396,1.094,0.398,3,3,3.233
1780148259886,0.026,1.011,-0.353,0.154,0.017,-0.033,109.594,-1.327,1.108,0.431,3,3,3.295
1780148259900,0.026,1.013,-0.356,0.164,0.017,-0.039,109.810,-1.310,1.134,0.466,3,3,5.007
1780148259918,0.026,1.016,-0.359,0.175,0.018,-0.045,109.952,-1.234,1.171,0.515,3,3,3.299
1780148259931,0.025,1.021,-0.363,0.187,0.018,-0.054,110.074,-1.176,1.215,0.571,3,3,3.227
1780148259947,0.025,1.024,-0.367,0.200,0.018,-0.060,110.364,-1.152,1.168,0.579,3,3,6.162
1780148259961,0.024,1.041,-0.373,0.213,0.019,-0.075,110.278,-1.094,1.516,0.719,3,3,3.233
1780148259974,0.020,1.041,-0.378,0.227,0.019,-0.077,110.683,-0.663,1.149,0.611,4,4,3.703
1780148259988,0.018,1.046,-0.383,0.242,0.018,-0.082,110.906,-0.437,1.254,0.673,4,4,3.227
1780148260001,0.012,1.052,-0.388,0.258,0.016,-0.086,111.107,0.115,1.290,0.697,4,4,3.230
1780148260015,-0.007,1.063,-0.393,0.274,0.019,-0.093,111.111,1.693,1.454,0.748,4,4,3.992
1780148260029,0.004,1.078,-0.399,0.292,0.021,-0.101,111.117,0.642,1.517,0.814,4,4,3.221
1780148260042,0.014,1.091,-0.405,0.312,0.019,-0.107,111.104,-0.260,1.491,0.859,4,4,3.672
1780148260056,0.010,1.102,-0.409,0.333,0.017,-0.111,110.995,0.038,1.446,0.922,4,4,3.222
1780148260075,-0.000,1.115,-0.411,0.357,0.017,-0.114,110.734,0.847,1.495,0.990,4,4,9.022
1780148260088,-0.006,1.131,-0.412,0.384,0.021,-0.116,110.345,1.218,1.546,1.118,4,4,3.562
1780148260102,-0.009,1.148,-0.411,0.415,0.026,-0.116,109.795,1.352,1.556,1.219,4,4,3.408
1780148260117,-0.009,1.164,-0.407,0.448,0.030,-0.114,109.042,1.320,1.547,1.323,4,4,4.801
1780148260131,-0.007,1.177,-0.401,0.484,0.034,-0.109,108.154,1.027,1.502,1.424,4,4,3.408
1780148260144,0.000,1.191,-0.393,0.524,0.035,-0.103,107.224,0.373,1.507,1.554,4,4,3.404
1780148260158,0.011,1.201,-0.382,0.570,0.033,-0.097,106.164,-0.569,1.455,1.770,4,4,3.623
1780148260172,0.023,1.209,-0.377,0.627,0.028,-0.092,105.651,-1.601,1.441,2.115,4,4,3.343
1780148260188,0.020,1.217,-0.381,0.696,0.027,-0.085,105.972,-1.276,1.461,2.503,4,4,6.781
1780148260203,0.012,1.200,-0.398,0.763,0.041,-0.072,108.475,-0.439,1.139,2.550,4,4,3.538
1780148260216,0.042,1.164,-0.409,0.825,0.031,-0.065,112.461,-4.493,1.013,2.433,4,4,3.231
1780148260230,0.060,1.136,-0.406,0.856,0.002,-0.071,113.514,-7.406,0.797,1.853,4,4,3.227
1780148260244,0.082,1.106,-0.381,0.863,-0.032,-0.060,109.101,-11.462,0.727,1.399,4,4,3.865
1780148260257,0.123,1.074,-0.342,0.830,-0.101,-0.033,102.242,-15.905,1.208,2.021,4,4,3.684
1780148260271,0.123,1.054,-0.303,0.790,-0.164,-0.019,97.187,-15.149,0.832,1.853,4,4,3.224
1780148260284,0.119,1.030,-0.271,0.744,-0.217,-0.004,92.507,-13.979,0.669,1.705,4,4,3.227
1780148260297,0.112,1.002,-0.241,0.688,-0.260,0.014,87.857,-12.210,0.561,1.631,4,4,3.220
1780148260311,0.099,0.976,-0.214,0.624,-0.288,0.031,84.067,-9.322,0.577,1.542,4,4,3.231
1780148260324,0.087,0.953,-0.191,0.549,-0.301,0.048,81.307,-6.798,0.572,1.606,4,4,3.687
1780148260338,0.087,0.932,-0.173,0.468,-0.304,0.070,79.839,-6.944,0.537,1.794,4,4,3.239
1780148260351,0.087,0.917,-0.158,0.383,-0.305,0.097,79.088,-7.158,0.614,2.020,4,4,3.238
1780148260365,0.088,0.905,-0.144,0.295,-0.306,0.123,78.836,-7.319,0.674,2.181,4,4,3.237
1780148260378,0.091,0.901,-0.132,0.205,-0.311,0.150,79.110,-7.660,0.834,2.329,4,4,3.246
1780148260391,0.095,0.903,-0.122,0.117,-0.322,0.178,79.512,-7.970,0.975,2.432,4,4,3.695
1780148260406,0.096,0.909,-0.115,0.030,-0.340,0.207,80.341,-7.763,1.039,2.549,4,4,4.050
1780148260420,0.086,0.921,-0.111,-0.055,-0.360,0.236,81.408,-6.503,1.201,2.631,4,4,3.465
1780148260433,0.067,0.939,-0.112,-0.138,-0.377,0.267,82.698,-4.444,1.381,2.646,4,4,3.349
1780148260447,0.036,0.958,-0.117,-0.219,-0.384,0.295,84.304,-1.698,1.535,2.599,4,4,3.240
1780148260460,-0.002,0.980,-0.125,-0.297,-0.378,0.319,85.964,1.283,1.706,2.505,5,5,3.689
1780148260474,-0.039,1.005,-0.135,-0.370,-0.354,0.338,87.525,3.778,1.800,2.433,5,5,3.243
1780148260487,-0.067,1.037,-0.146,-0.437,-0.320,0.354,89.004,5.409,1.902,2.382,5,5,3.220
1780148260500,-0.085,1.067,-0.163,-0.497,-0.276,0.369,90.692,6.361,1.873,2.352,5,5,3.236
1780148260514,-0.097,1.094,-0.182,-0.552,-0.227,0.378,92.508,6.788,1.815,2.314,5,5,3.228
1780148260527,-0.106,1.121,-0.203,-0.599,-0.177,0.380,94.267,7.064,1.855,2.189,5,5,3.687
1780148260541,-0.115,1.141,-0.225,-0.640,-0.125,0.379,96.179,7.359,1.780,2.132,5,5,3.226
1780148260554,-0.124,1.155,-0.251,-0.682,-0.071,0.376,98.350,7.688,1.686,2.224,5,5,3.226
1780148260568,-0.132,1.164,-0.276,-0.729,-0.017,0.375,100.512,8.018,1.634,2.412,5,5,3.699
1780148260583,-0.136,1.176,-0.298,-0.774,0.035,0.373,102.232,7.953,1.646,2.418,5,5,4.894
1780148260596,-0.137,1.185,-0.325,-0.811,0.079,0.369,104.268,7.732,1.673,2.170,5,5,3.714
1780148260610,-0.138,1.188,-0.358,-0.841,0.112,0.362,106.825,7.508,1.653,1.891,5,5,3.228
1780148260623,-0.139,1.188,-0.395,-0.863,0.134,0.352,109.486,7.328,1.695,1.597,5,5,3.236
1780148260637,-0.141,1.187,-0.436,-0.875,0.145,0.339,112.312,7.207,1.777,1.269,5,5,3.236
1780148260650,-0.143,1.182,-0.482,-0.875,0.150,0.325,115.334,7.094,1.857,0.926,5,5,3.219
1780148260663,-0.146,1.175,-0.530,-0.862,0.150,0.309,118.322,6.985,1.888,0.551,1,1,3.818
1780148260677,-0.152,1.167,-0.576,-0.835,0.147,0.290,121.187,7.127,1.888,0.243,1,1,3.232
1780148260691,-0.160,1.156,-0.617,-0.798,0.143,0.269,123.803,7.509,1.805,0.333,1,1,3.222
1780148260704,-0.167,1.144,-0.651,-0.754,0.140,0.245,126.095,7.835,1.670,0.540,1,1,3.255
1780148260717,-0.168,1.163,-0.676,-0.705,0.131,0.230,126.240,7.594,2.024,0.609,1,1,3.223
1780148260731,-0.114,1.174,-0.704,-0.617,0.095,0.214,126.884,4.134,2.208,1.870,5,5,4.341
1780148260745,-0.043,1.228,-0.637,-0.501,0.053,0.156,121.551,0.816,2.944,3.029,5,5,3.227
1780148260758,-0.093,1.206,-0.613,-0.414,0.006,0.146,119.135,6.277,1.393,2.206,5,5,3.230
1780148260772,-0.119,1.205,-0.626,-0.329,-0.001,0.145,119.934,8.004,1.634,1.902,5,5,3.581
1780148260785,-0.124,1.177,-0.628,-0.271,0.004,0.145,121.826,8.630,0.931,1.252,5,5,3.219
1780148260799,-0.120,1.177,-0.592,-0.228,0.027,0.137,117.848,8.034,1.183,1.087,1,1,3.708
1780148260813,-0.115,1.167,-0.581,-0.180,0.048,0.130,117.058,7.200,1.014,1.209,1,1,3.223
1780148260826,-0.095,1.148,-0.585,-0.150,0.060,0.127,118.598,4.786,1.045,0.741,1,1,3.229
1780148260839,-0.115,1.132,-0.580,-0.141,0.059,0.123,118.788,7.240,1.051,0.083,1,1,3.229
1780148260852,-0.114,1.121,-0.575,-0.133,0.061,0.126,118.663,7.140,1.001,0.276,1,1,3.235
1780148260866,-0.112,1.115,-0.560,-0.130,0.060,0.133,117.236,6.763,1.017,0.304,1,1,3.688
1780148260880,-0.108,1.107,-0.550,-0.124,0.063,0.145,116.549,6.281,0.988,0.488,1,1,3.226
