timestamp,ax,ay,az,gx,gy,gz,roll,pitch_k,acc_norm,gyro_norm,classe_prevista_raw,classe_prevista,delay_ms
1780148308171,0.111691,0.664609,-0.0923159,0.00256055,-0.00979298,0.012668,89.0153,-8.59225,1.01999,0.0275547,0,0,3.308
1780148308185,0.137,0.796,-0.109,0.004,-0.012,0.014,93.167,-9.215,1.018,0.024,0,0,3.239
1780148308198,0.145,0.854,-0.116,0.005,-0.013,0.014,94.642,-9.271,1.019,0.020,0,0,3.230
1780148308211,0.150,0.886,-0.121,0.006,-0.014,0.013,95.474,-9.309,1.019,0.022,0,0,3.237
1780148308225,0.152,0.906,-0.124,0.006,-0.014,0.013,95.965,-9.231,1.017,0.020,0,0,3.221
1780148308238,0.154,0.921,-0.127,0.006,-0.014,0.012,96.365,-9.261,1.025,0.020,0,0,3.225
1780148308251,0.156,0.931,-0.128,0.006,-0.015,0.012,96.561,-9.286,1.016,0.020,0,0,3.219
1780148308264,0.157,0.939,-0.129,0.006,-0.015,0.011,96.737,-9.286,1.016,0.022,0,0,3.222
1780148308278,0.158,0.945,-0.130,0.007,-0.015,0.011,96.865,-9.340,1.023,0.021,0,0,3.226
1780148308291,0.158,0.951,-0.130,0.007,-0.016,0.011,96.976,-9.262,1.023,0.021,0,0,3.219
1780148308304,0.159,0.956,-0.131,0.007,-0.016,0.010,97.056,-9.291,1.023,0.020,0,0,3.220
1780148308318,0.159,0.960,-0.131,0.007,-0.016,0.010,97.103,-9.273,1.024,0.019,0,0,3.235
1780148308331,0.160,0.962,-0.132,0.007,-0.016,0.010,97.230,-9.301,1.018,0.018,0,0,3.484
1780148308345,0.161,0.965,-0.133,0.008,-0.016,0.009,97.331,-9.327,1.018,0.020,0,0,3.225
1780148308358,0.161,0.967,-0.133,0.008,-0.016,0.009,97.406,-9.327,1.020,0.019,0,0,3.216
1780148308371,0.161,0.969,-0.134,0.008,-0.015,0.009,97.455,-9.296,1.020,0.018,0,0,3.216
1780148308384,0.161,0.971,-0.135,0.008,-0.016,0.009,97.569,-9.302,1.022,0.021,0,0,3.219
1780148308398,0.161,0.973,-0.135,0.008,-0.016,0.008,97.594,-9.269,1.024,0.020,0,0,3.220
1780148308411,0.162,0.975,-0.136,0.008,-0.016,0.008,97.665,-9.280,1.020,0.021,0,0,3.223
1780148308424,0.162,0.976,-0.136,0.008,-0.016,0.008,97.677,-9.303,1.020,0.020,0,0,3.227
1780148308438,0.162,0.977,-0.136,0.008,-0.016,0.008,97.677,-9.290,1.017,0.021,0,0,3.228
1780148308451,0.163,0.978,-0.136,0.008,-0.016,0.007,97.753,-9.318,1.024,0.018,0,0,3.218
1780148308464,0.163,0.980,-0.137,0.008,-0.016,0.007,97.799,-9.347,1.024,0.018,0,0,3.220
1780148308477,0.163,0.980,-0.137,0.008,-0.016,0.007,97.797,-9.291,1.015,0.018,0,0,3.225
1780148308491,0.163,0.981,-0.137,0.008,-0.016,0.006,97.817,-9.288,1.013,0.019,0,0,3.217
1780148308504,0.162,0.982,-0.137,0.008,-0.016,0.006,97.857,-9.256,1.017,0.016,0,0,3.316
1780148308518,0.162,0.982,-0.137,0.008,-0.016,0.006,97.817,-9.255,1.020,0.012,0,0,3.313
1780148308531,0.162,0.983,-0.137,0.008,-0.015,0.005,97.841,-9.238,1.016,0.012,0,0,3.255
1780148308544,0.163,0.984,-0.137,0.008,-0.015,0.005,97.871,-9.275,1.021,0.013,0,0,3.226
1780148308558,0.163,0.984,-0.138,0.008,-0.015,0.005,97.921,-9.286,1.022,0.012,2,2,3.707
1780148308571,0.163,0.985,-0.138,0.008,-0.015,0.004,97.941,-9.298,1.023,0.012,2,2,3.230
1780148308585,0.163,0.986,-0.138,0.008,-0.014,0.004,97.971,-9.284,1.024,0.012,2,2,3.220
1780148308598,0.163,0.987,-0.139,0.007,-0.014,0.003,98.006,-9.260,1.023,0.009,2,2,3.256
1780148308611,0.163,0.987,-0.139,0.007,-0.014,0.003,97.972,-9.239,1.023,0.012,2,2,3.225
1780148308625,0.163,0.988,-0.138,0.007,-0.014,0.003,97.951,-9.214,1.022,0.009,2,2,3.689
1780148308638,0.162,0.988,-0.139,0.007,-0.013,0.002,97.958,-9.171,1.017,0.008,2,2,3.228
1780148308652,0.162,0.989,-0.139,0.007,-0.013,0.002,97.955,-9.122,1.017,0.009,2,2,3.217
1780148308665,0.162,0.989,-0.139,0.007,-0.013,0.002,97.987,-9.100,1.014,0.011,2,2,3.221
1780148308680,0.162,0.989,-0.139,0.007,-0.013,0.002,97.991,-9.114,1.024,0.010,2,2,3.294
1780148308693,0.162,0.990,-0.139,0.007,-0.013,0.002,98.016,-9.100,1.019,0.013,2,2,3.724
1780148308707,0.162,0.990,-0.139,0.007,-0.013,0.002,98.022,-9.106,1.020,0.013,2,2,3.238
1780148308721,0.162,0.990,-0.139,0.007,-0.013,0.001,98.013,-9.112,1.017,0.015,2,2,3.245
1780148308734,0.162,0.990,-0.139,0.007,-0.013,0.001,98.000,-9.119,1.018,0.018,2,2,3.222
1780148308747,0.162,0.991,-0.140,0.007,-0.012,0.001,98.036,-9.117,1.018,0.019,2,2,3.232
1780148308761,0.162,0.991,-0.139,0.007,-0.013,0.000,98.020,-9.099,1.017,0.021,2,2,3.702
1780148308774,0.162,0.991,-0.140,0.008,-0.013,0.000,98.028,-9.123,1.021,0.019,2,2,3.227
1780148308788,0.161,0.991,-0.140,0.008,-0.013,-0.000,98.039,-9.065,1.016,0.019,2,2,3.225
1780148308801,0.161,0.991,-0.140,0.008,-0.013,-0.000,98.046,-9.014,1.017,0.019,2,2,3.224
1780148308814,0.161,0.992,-0.140,0.008,-0.013,-0.001,98.087,-9.017,1.021,0.021,2,2,3.230
1780148308828,0.161,0.992,-0.141,0.008,-0.013,-0.001,98.135,-8.995,1.022,0.021,2,2,3.699
1780148308841,0.160,0.993,-0.141,0.008,-0.013,-0.001,98.165,-8.961,1.027,0.022,2,2,3.231
1780148308855,0.161,0.993,-0.141,0.008,-0.014,-0.002,98.177,-8.996,1.026,0.028,2,2,3.228
1780148308868,0.160,0.993,-0.141,0.008,-0.014,-0.002,98.184,-8.968,1.019,0.026,2,2,3.222
1780148308881,0.160,0.993,-0.142,0.009,-0.014,-0.002,98.195,-8.919,1.022,0.030,2,2,3.228
1780148308895,0.159,0.994,-0.141,0.009,-0.014,-0.003,98.163,-8.876,1.026,0.031,2,2,3.912
1780148308909,0.159,0.994,-0.142,0.009,-0.015,-0.004,98.192,-8.837,1.017,0.030,2,2,3.287
1780148308922,0.159,0.994,-0.142,0.009,-0.015,-0.004,98.203,-8.853,1.026,0.031,2,2,3.252
1780148308935,0.159,0.995,-0.142,0.009,-0.015,-0.005,98.178,-8.854,1.020,0.036,2,2,3.255
1780148308949,0.159,0.995,-0.142,0.010,-0.016,-0.005,98.207,-8.832,1.021,0.037,2,2,3.263
1780148308962,0.158,0.995,-0.142,0.010,-0.016,-0.006,98.237,-8.812,1.020,0.042,2,2,3.920
1780148308976,0.158,0.995,-0.143,0.010,-0.017,-0.007,98.237,-8.783,1.020,0.049,2,2,3.266
1780148308989,0.158,0.995,-0.143,0.010,-0.018,-0.008,98.292,-8.763,1.015,0.051,2,2,3.251
1780148309003,0.158,0.995,-0.143,0.010,-0.019,-0.009,98.268,-8.763,1.016,0.052,2,2,3.255
1780148309018,0.158,0.995,-0.143,0.010,-0.019,-0.010,98.316,-8.749,1.025,0.052,2,2,3.327
1780148309031,0.157,0.995,-0.144,0.011,-0.020,-0.010,98.341,-8.697,1.022,0.049,2,2,3.951
1780148309046,0.156,0.996,-0.144,0.011,-0.021,-0.011,98.364,-8.618,1.021,0.048,2,2,3.291
1780148309059,0.156,0.996,-0.144,0.012,-0.021,-0.011,98.377,-8.548,1.020,0.049,2,2,3.262
1780148309074,0.155,0.996,-0.145,0.012,-0.022,-0.011,98.395,-8.474,1.020,0.049,2,2,3.288
1780148309088,0.154,0.996,-0.145,0.013,-0.023,-0.011,98.392,-8.427,1.020,0.052,2,2,3.272
1780148309101,0.153,0.996,-0.145,0.014,-0.023,-0.011,98.411,-8.361,1.023,0.053,2,2,3.844
1780148309115,0.153,0.996,-0.145,0.014,-0.024,-0.011,98.459,-8.367,1.014,0.055,2,2,3.245
1780148309128,0.153,0.996,-0.146,0.015,-0.025,-0.012,98.486,-8.365,1.021,0.054,2,2,3.246
1780148309142,0.153,0.996,-0.146,0.016,-0.025,-0.012,98.516,-8.382,1.017,0.060,2,2,3.245
1780148309155,0.152,0.996,-0.147,0.016,-0.026,-0.012,98.590,-8.341,1.020,0.061,2,2,3.249
1780148309169,0.152,0.996,-0.147,0.017,-0.027,-0.013,98.634,-8.320,1.019,0.062,2,2,4.679
1780148309183,0.152,0.996,-0.148,0.018,-0.027,-0.013,98.684,-8.292,1.022,0.065,2,2,3.267
1780148309197,0.151,0.996,-0.149,0.019,-0.028,-0.014,98.736,-8.218,1.021,0.066,2,2,3.263
1780148309210,0.150,0.996,-0.149,0.019,-0.029,-0.015,98.818,-8.204,1.016,0.068,2,2,3.267
1780148309223,0.150,0.996,-0.150,0.020,-0.029,-0.015,98.858,-8.146,1.014,0.066,2,2,3.274
1780148309238,0.149,0.996,-0.150,0.020,-0.030,-0.016,98.879,-8.083,1.025,0.061,2,2,3.946
1780148309252,0.148,0.996,-0.151,0.021,-0.030,-0.016,98.922,-8.032,1.023,0.063,2,2,3.259
1780148309267,0.148,0.997,-0.152,0.022,-0.031,-0.017,98.974,-8.061,1.029,0.071,2,2,5.464
1780148309281,0.148,0.997,-0.152,0.023,-0.031,-0.018,99.009,-8.026,1.026,0.086,2,2,3.275
1780148309294,0.147,0.997,-0.153,0.025,-0.032,-0.019,99.073,-7.994,1.017,0.093,2,2,3.256
1780148309307,0.147,0.997,-0.154,0.026,-0.032,-0.020,99.132,-7.919,1.023,0.098,2,2,3.878
1780148309321,0.146,0.997,-0.155,0.029,-0.033,-0.022,99.200,-7.852,1.025,0.108,2,2,3.268
1780148309335,0.146,0.997,-0.157,0.031,-0.032,-0.024,99.428,-7.884,1.030,0.120,2,2,3.274
1780148309348,0.145,0.997,-0.159,0.034,-0.031,-0.026,99.585,-7.854,1.015,0.152,2,2,3.482
1780148309364,0.146,0.997,-0.160,0.039,-0.029,-0.030,99.703,-7.908,1.039,0.203,2,2,5.566
1780148309377,0.146,0.999,-0.161,0.046,-0.026,-0.034,99.691,-7.977,1.051,0.277,3,3,3.875
1780148309391,0.147,1.001,-0.158,0.054,-0.024,-0.040,99.345,-8.076,1.072,0.336,3,3,3.283
1780148309405,0.147,1.003,-0.156,0.064,-0.024,-0.048,98.950,-8.092,1.051,0.400,3,3,3.273
1780148309418,0.150,1.004,-0.156,0.075,-0.026,-0.057,98.916,-8.386,1.057,0.471,3,3,3.254
1780148309432,0.153,1.004,-0.156,0.086,-0.029,-0.068,99.005,-8.750,1.047,0.513,3,3,3.283
1780148309445,0.151,1.004,-0.157,0.096,-0.032,-0.079,99.113,-8.522,1.025,0.521,3,3,3.862
1780148309461,0.144,1.001,-0.164,0.104,-0.035,-0.088,99.922,-7.684,0.980,0.469,3,3,5.329
1780148309475,0.136,0.996,-0.172,0.110,-0.038,-0.093,101.100,-6.657,0.966,0.370,3,3,3.261
1780148309488,0.128,0.994,-0.178,0.114,-0.040,-0.097,101.669,-5.793,0.997,0.293,3,3,3.252
1780148309501,0.122,0.994,-0.180,0.117,-0.042,-0.098,101.787,-5.208,1.017,0.248,3,3,3.264
1780148309515,0.118,0.994,-0.180,0.120,-0.043,-0.097,101.681,-4.900,1.025,0.231,4,4,3.904
1780148309529,0.114,0.995,-0.182,0.123,-0.045,-0.096,101.752,-4.596,1.023,0.225,4,4,3.320
1780148309542,0.110,0.994,-0.186,0.125,-0.046,-0.093,102.131,-4.244,1.022,0.206,4,4,3.361
1780148309556,0.105,0.993,-0.191,0.127,-0.047,-0.089,102.593,-3.795,1.010,0.186,4,4,3.355
1780148309571,0.100,0.992,-0.195,0.128,-0.048,-0.084,102.925,-3.432,1.018,0.173,4,4,3.316
1780148309586,0.097,0.992,-0.198,0.128,-0.047,-0.078,103.099,-3.174,1.026,0.166,4,4,3.935
1780148309600,0.094,0.993,-0.201,0.128,-0.046,-0.071,103.308,-3.021,1.036,0.162,4,4,3.266
1780148309613,0.089,0.992,-0.204,0.127,-0.043,-0.063,103.440,-2.644,1.025,0.181,4,4,3.246
1780148309627,0.084,0.992,-0.207,0.127,-0.038,-0.055,103.705,-2.250,1.026,0.212,4,4,4.288
1780148309641,0.082,0.992,-0.210,0.126,-0.033,-0.046,103.866,-2.321,1.027,0.242,4,4,3.240
1780148309654,0.082,0.992,-0.213,0.126,-0.028,-0.038,104.051,-2.532,1.029,0.230,4,4,3.845
1780148309668,0.082,0.992,-0.216,0.126,-0.024,-0.029,104.180,-2.723,1.030,0.240,4,4,3.246
1780148309681,0.082,0.992,-0.218,0.126,-0.021,-0.021,104.287,-2.859,1.039,0.243,4,4,3.234
1780148309695,0.084,0.992,-0.221,0.126,-0.018,-0.014,104.410,-3.251,1.035,0.231,4,4,3.292
1780148309708,0.086,0.992,-0.224,0.126,-0.016,-0.007,104.532,-3.652,1.051,0.215,4,4,3.265
1780148309721,0.088,0.991,-0.228,0.126,-0.014,-0.001,104.930,-4.016,1.028,0.187,4,4,3.918
1780148309735,0.091,0.990,-0.232,0.124,-0.013,0.004,105.183,-4.389,1.031,0.168,4,4,3.270
1780148309749,0.093,0.990,-0.236,0.123,-0.013,0.008,105.473,-4.693,1.038,0.146,4,4,3.257
1780148309762,0.094,0.989,-0.239,0.122,-0.013,0.012,105.692,-4.918,1.036,0.141,4,4,3.318
1780148309776,0.096,0.989,-0.242,0.122,-0.012,0.014,105.858,-5.147,1.043,0.138,4,4,3.250
1780148309789,0.098,0.989,-0.245,0.121,-0.012,0.016,106.022,-5.356,1.051,0.125,1,1,3.906
1780148309803,0.101,0.990,-0.248,0.121,-0.013,0.017,106.160,-5.759,1.055,0.117,1,1,3.255
1780148309816,0.104,0.989,-0.251,0.121,-0.014,0.015,106.332,-6.092,1.050,0.124,1,1,3.247
1780148309830,0.106,0.989,-0.254,0.120,-0.015,0.012,106.490,-6.303,1.044,0.143,1,1,3.287
1780148309843,0.107,0.989,-0.257,0.121,-0.016,0.008,106.637,-6.321,1.045,0.158,1,1,3.251
1780148309856,0.106,0.989,-0.260,0.121,-0.017,0.005,106.731,-6.165,1.050,0.166,1,1,3.888
1780148309870,0.105,0.990,-0.263,0.122,-0.018,0.002,106.856,-6.051,1.048,0.171,1,1,3.282
1780148309884,0.105,0.990,-0.265,0.123,-0.019,-0.001,106.966,-5.981,1.051,0.176,1,1,3.253
1780148309897,0.104,0.989,-0.269,0.124,-0.020,-0.003,107.187,-5.912,1.034,0.171,1,1,3.271
1780148309910,0.103,0.988,-0.272,0.125,-0.020,-0.005,107.422,-5.781,1.039,0.153,1,1,3.258
1780148309924,0.103,0.988,-0.276,0.125,-0.020,-0.007,107.677,-5.803,1.041,0.146,4,4,3.989
1780148309939,0.103,0.988,-0.279,0.126,-0.019,-0.008,107.812,-5.720,1.049,0.141,4,4,4.226
1780148309952,0.102,0.988,-0.281,0.126,-0.019,-0.010,107.914,-5.585,1.043,0.152,4,4,3.274
1780148309966,0.102,0.987,-0.285,0.127,-0.019,-0.011,108.146,-5.598,1.040,0.158,4,4,3.275
1780148309979,0.101,0.987,-0.288,0.128,-0.019,-0.012,108.313,-5.515,1.051,0.160,4,4,3.340
1780148309994,0.102,0.987,-0.290,0.129,-0.019,-0.014,108.394,-5.601,1.062,0.171,4,4,5.813
1780148310008,0.102,0.987,-0.294,0.130,-0.020,-0.017,108.589,-5.616,1.054,0.183,4,4,3.248
1780148310022,0.102,0.987,-0.297,0.131,-0.021,-0.019,108.773,-5.536,1.051,0.185,4,4,3.235
1780148310035,0.101,0.987,-0.300,0.132,-0.021,-0.023,108.973,-5.420,1.059,0.189,4,4,3.254
1780148310048,0.100,0.987,-0.304,0.133,-0.022,-0.026,109.181,-5.318,1.064,0.187,4,4,3.234
1780148310062,0.098,0.987,-0.307,0.133,-0.022,-0.028,109.383,-5.123,1.057,0.180,4,4,3.826
1780148310076,0.096,0.987,-0.311,0.134,-0.022,-0.031,109.555,-4.953,1.058,0.178,4,4,3.270
1780148310090,0.095,0.987,-0.314,0.134,-0.022,-0.033,109.729,-4.826,1.070,0.181,4,4,3.336
1780148310103,0.094,0.987,-0.318,0.135,-0.022,-0.036,109.949,-4.678,1.068,0.180,4,4,3.269
1780148310116,0.092,0.987,-0.321,0.136,-0.022,-0.038,110.082,-4.517,1.069,0.182,4,4,3.248
1780148310130,0.090,0.988,-0.324,0.137,-0.021,-0.040,110.222,-4.358,1.077,0.189,4,4,3.840
1780148310144,0.088,0.989,-0.327,0.139,-0.019,-0.042,110.338,-4.174,1.089,0.207,4,4,3.249
1780148310157,0.086,0.990,-0.330,0.141,-0.018,-0.043,110.436,-3.936,1.093,0.222,4,4,3.281
1780148310170,0.084,0.992,-0.334,0.144,-0.015,-0.045,110.597,-3.774,1.106,0.245,4,4,3.264
1780148310184,0.082,0.993,-0.338,0.148,-0.013,-0.049,110.715,-3.629,1.115,0.283,4,4,3.242
1780148310197,0.080,0.998,-0.342,0.152,-0.009,-0.054,110.771,-3.436,1.169,0.341,4,4,3.899
1780148310211,0.079,1.002,-0.346,0.156,-0.006,-0.059,110.866,-3.397,1.185,0.336,4,4,3.261
1780148310225,0.080,0.999,-0.348,0.162,-0.003,-0.064,111.048,-3.545,1.027,0.362,4,4,3.255
1780148310238,0.080,0.998,-0.352,0.168,-0.003,-0.067,111.351,-3.701,1.073,0.373,4,4,3.264
1780148310251,0.081,0.999,-0.356,0.176,-0.005,-0.070,111.552,-3.833,1.104,0.405,4,4,3.282
1780148310265,0.081,1.002,-0.360,0.186,-0.004,-0.074,111.710,-3.770,1.168,0.483,4,4,3.949
1780148310279,0.077,1.008,-0.365,0.196,-0.007,-0.076,111.799,-3.445,1.234,0.484,4,4,3.265
1780148310292,0.072,1.019,-0.370,0.207,-0.010,-0.079,111.730,-2.907,1.342,0.530,4,4,3.268
1780148310306,0.069,1.032,-0.375,0.220,-0.011,-0.084,111.549,-2.634,1.410,0.595,4,4,3.271
1780148310319,0.072,1.044,-0.379,0.235,-0.013,-0.089,111.397,-2.914,1.397,0.660,4,4,3.251
1780148310332,0.071,1.055,-0.383,0.252,-0.016,-0.092,111.254,-2.896,1.379,0.726,4,4,3.877
1780148310346,0.066,1.067,-0.386,0.272,-0.018,-0.095,111.030,-2.404,1.401,0.811,4,4,3.255
1780148310360,0.060,1.080,-0.389,0.295,-0.018,-0.099,110.754,-1.959,1.440,0.911,4,4,3.255
1780148310373,0.058,1.094,-0.390,0.322,-0.017,-0.101,110.374,-1.823,1.462,1.029,4,4,3.276
1780148310386,0.058,1.109,-0.392,0.352,-0.016,-0.103,109.969,-1.874,1.500,1.156,4,4,3.248
1780148310400,0.061,1.125,-0.390,0.387,-0.017,-0.105,109.383,-2.107,1.527,1.302,4,4,3.906
1780148310414,0.069,1.142,-0.389,0.426,-0.023,-0.105,108.845,-2.744,1.566,1.452,4,4,3.659
1780148310427,0.077,1.156,-0.385,0.469,-0.035,-0.104,108.148,-3.425,1.524,1.608,4,4,3.265
1780148310441,0.085,1.169,-0.378,0.514,-0.049,-0.104,107.222,-4.004,1.491,1.759,4,4,3.279
1780148310454,0.098,1.181,-0.371,0.566,-0.068,-0.106,106.416,-5.040,1.505,1.981,4,4,3.257
1780148310468,0.109,1.185,-0.363,0.624,-0.091,-0.107,105.680,-6.075,1.329,2.256,4,4,3.904
1780148310482,0.110,1.174,-0.367,0.687,-0.110,-0.110,106.590,-6.165,1.045,2.400,4,4,3.256
1780148310495,0.117,1.142,-0.382,0.728,-0.123,-0.112,110.569,-7.239,0.890,1.871,4,4,3.284
1780148310508,0.156,1.114,-0.355,0.730,-0.152,-0.103,106.045,-12.333,1.151,1.198,4,4,3.271
1780148310522,0.189,1.099,-0.315,0.728,-0.208,-0.090,101.163,-15.298,1.313,1.802,4,4,3.262
1780148310535,0.187,1.082,-0.282,0.713,-0.258,-0.079,97.117,-14.878,0.836,1.602,4,4,3.910
1780148310549,0.181,1.060,-0.252,0.686,-0.300,-0.063,93.118,-13.711,0.716,1.430,4,4,3.268
1780148310562,0.170,1.037,-0.225,0.648,-0.328,-0.048,89.563,-11.980,0.642,1.171,4,4,3.258
1780148310576,0.160,1.013,-0.202,0.601,-0.343,-0.032,86.578,-10.165,0.574,1.030,4,4,3.268
1780148310593,0.152,0.990,-0.181,0.546,-0.343,-0.013,84.068,-8.970,0.559,1.070,4,4,7.405
1780148310607,0.148,0.966,-0.163,0.484,-0.334,0.009,82.056,-8.848,0.520,1.281,4,4,4.067
1780148310622,0.149,0.947,-0.148,0.415,-0.320,0.034,80.900,-9.540,0.584,1.535,4,4,3.257
1780148310635,0.150,0.934,-0.134,0.342,-0.306,0.060,80.400,-10.061,0.683,1.712,4,4,3.258
1780148310649,0.150,0.927,-0.123,0.267,-0.294,0.087,80.461,-10.061,0.802,1.841,4,4,3.265
1780148310662,0.146,0.922,-0.114,0.189,-0.281,0.113,80.777,-9.579,0.828,2.001,4,4,3.264
1780148310678,0.136,0.923,-0.108,0.109,-0.268,0.140,81.526,-8.180,0.950,2.154,4,4,3.921
1780148310692,0.120,0.930,-0.105,0.027,-0.252,0.164,82.535,-6.250,1.093,2.244,4,4,3.261
1780148310705,0.100,0.940,-0.105,-0.054,-0.232,0.186,83.716,-4.168,1.228,2.316,4,4,3.247
1780148310718,0.082,0.957,-0.106,-0.136,-0.209,0.204,84.896,-2.446,1.368,2.367,4,4,3.252
1780148310732,0.070,0.980,-0.112,-0.214,-0.185,0.219,86.233,-1.534,1.507,2.377,4,4,3.259
1780148310745,0.065,1.008,-0.121,-0.288,-0.163,0.233,87.644,-1.250,1.658,2.318,5,5,3.834
1780148310759,0.063,1.034,-0.135,-0.358,-0.146,0.246,89.378,-1.196,1.664,2.270,5,5,3.258
1780148310772,0.061,1.061,-0.153,-0.424,-0.130,0.258,91.155,-1.168,1.726,2.228,5,5,3.249
1780148310789,0.056,1.095,-0.172,-0.480,-0.114,0.266,92.729,-0.871,1.932,2.028,5,5,3.403
1780148310802,0.048,1.129,-0.193,-0.527,-0.095,0.271,94.270,-0.459,1.990,1.820,5,5,3.257
1780148310816,0.042,1.157,-0.215,-0.566,-0.073,0.275,95.955,-0.171,1.916,1.719,5,5,3.921
1780148310830,0.037,1.176,-0.241,-0.604,-0.047,0.283,97.933,0.124,1.774,1.760,5,5,3.263
1780148310843,0.029,1.184,-0.268,-0.642,-0.017,0.295,100.231,0.547,1.622,1.903,5,5,3.254
1780148310856,0.023,1.192,-0.293,-0.679,0.017,0.306,102.278,0.893,1.618,1.976,5,5,3.260
1780148310870,0.017,1.200,-0.319,-0.712,0.051,0.318,104.200,1.195,1.629,1.912,5,5,3.714
1780148310884,0.012,1.203,-0.347,-0.739,0.082,0.326,106.409,1.378,1.606,1.779,5,5,3.868
1780148310897,0.011,1.203,-0.378,-0.759,0.109,0.330,108.796,1.298,1.591,1.571,5,5,3.262
1780148310911,0.011,1.200,-0.411,-0.771,0.128,0.330,111.234,1.113,1.604,1.295,5,5,3.259
1780148310924,0.010,1.196,-0.444,-0.773,0.139,0.327,113.651,1.065,1.611,0.968,5,5,3.263
1780148310938,0.010,1.188,-0.480,-0.766,0.143,0.322,116.254,0.907,1.616,0.647,5,5,3.393
1780148310951,0.009,1.180,-0.513,-0.748,0.142,0.314,118.607,0.888,1.592,0.340,5,5,3.835
1780148310965,0.005,1.172,-0.540,-0.721,0.139,0.304,120.546,1.112,1.508,0.079,5,5,3.260
1780148310978,-0.000,1.163,-0.562,-0.687,0.137,0.291,122.133,1.449,1.416,0.219,5,5,3.247
1780148310992,-0.003,1.152,-0.579,-0.648,0.137,0.276,123.427,1.561,1.334,0.403,5,5,3.293
1780148311005,-0.003,1.143,-0.592,-0.605,0.139,0.261,124.347,1.413,1.289,0.552,5,5,3.259
1780148311018,-0.002,1.135,-0.602,-0.560,0.143,0.246,124.934,1.184,1.248,0.688,1,1,3.868
1780148311032,0.000,1.126,-0.609,-0.513,0.150,0.231,125.351,0.858,1.205,0.794,1,1,3.264
1780148311046,0.003,1.119,-0.609,-0.466,0.159,0.215,125.017,0.479,1.150,0.876,1,1,3.256
1780148311059,0.006,1.111,-0.603,-0.420,0.170,0.201,124.304,0.087,1.041,0.907,1,1,3.256
1780148311073,-0.026,1.089,-0.581,-0.374,0.204,0.161,121.954,4.691,0.963,1.633,1,1,3.795
1780148311086,-0.052,1.161,-0.486,-0.338,0.229,0.138,116.036,5.297,3.213,1.137,1,1,3.863
1780148311100,-0.063,1.220,-0.385,-0.264,0.250,0.128,110.130,5.320,3.110,1.855,1,1,3.261
1780148311115,-0.058,1.189,-0.396,-0.194,0.265,0.112,112.964,4.468,0.811,1.772,1,1,4.809
1780148311134,-0.060,1.179,-0.436,-0.123,0.268,0.105,115.912,4.421,1.646,1.737,1,1,8.147
1780148311147,-0.065,1.168,-0.423,-0.078,0.254,0.109,114.233,4.931,0.948,1.120,1,1,3.273
1780148311160,-0.062,1.163,-0.407,-0.040,0.239,0.116,112.200,4.471,1.044,1.006,1,1,3.931
1780148311175,-0.054,1.153,-0.404,-0.013,0.228,0.122,112.033,3.357,1.009,0.739,1,1,3.511
1780148311188,-0.046,1.140,-0.405,0.002,0.223,0.125,112.410,2.428,0.974,0.463,1,1,3.303
1780148311201,-0.036,1.130,-0.404,0.010,0.219,0.126,112.503,1.150,0.995,0.283,1,1,3.286
1780148311215,-0.027,1.122,-0.400,0.013,0.212,0.127,112.068,0.088,1.006,0.193,1,1,3.247
1780148311228,-0.016,1.114,-0.396,0.010,0.204,0.127,111.616,-1.088,1.022,0.136,1,1,3.810
1780148311242,-0.003,1.109,-0.388,0.004,0.193,0.122,110.696,-2.462,1.065,0.166,1,1,3.275
1780148311256,0.005,1.105,-0.380,0.001,0.183,0.116,109.818,-3.167,1.037,0.134,1,1,3.237
1780148311269,0.010,1.100,-0.372,0.001,0.172,0.110,109.103,-3.557,1.027,0.117,1,1,3.243
1780148311282,0.013,1.097,-0.363,0.005,0.162,0.104,108.154,-3.551,1.049,0.150,1,1,3.248
1780148311296,0.013,1.094,-0.356,0.011,0.153,0.100,107.481,-3.319,1.043,0.184,1,1,3.807
1780148311313,0.011,1.090,-0.350,0.019,0.145,0.098,106.938,-2.856,1.037,0.234,1,1,4.521
1780148311327,0.012,1.087,-0.345,0.027,0.138,0.098,106.545,-2.748,1.036,0.269,1,1,3.238
1780148311342,0.018,1.083,-0.340,0.036,0.132,0.096,106.232,-3.196,1.041,0.271,1,1,5.487
1780148311356,0.025,1.079,-0.336,0.044,0.126,0.092,106.056,-3.879,1.029,0.246,1,1,3.255
1780148311369,0.031,1.075,-0.332,0.050,0.119,0.087,105.869,-4.398,1.038,0.232,1,1,3.914
1780148311383,0.036,1.072,-0.328,0.056,0.112,0.079,105.640,-4.690,1.049,0.254,1,1,3.608
1780148311397,0.038,1.070,-0.325,0.063,0.105,0.072,105.474,-4.666,1.048,0.270,1,1,3.261
1780148311410,0.041,1.067,-0.322,0.069,0.098,0.063,105.384,-4.771,1.050,0.282,1,1,3.247
1780148311424,0.043,1.065,-0.320,0.074,0.092,0.055,105.336,-4.832,1.047,0.280,1,1,3.255
1780148311437,0.046,1.062,-0.318,0.078,0.086,0.046,105.282,-4.943,1.051,0.272,1,1,3.871
1780148311451,0.047,1.061,-0.315,0.083,0.080,0.037,105.213,-4.817,1.063,0.282,1,1,3.264
1780148311464,0.046,1.059,-0.314,0.087,0.075,0.031,105.239,-4.478,1.050,0.239,1,1,3.271
1780148311478,0.045,1.057,-0.312,0.091,0.071,0.026,105.214,-4.175,1.051,0.224,1,1,3.255
1780148311494,0.047,1.054,-0.311,0.094,0.068,0.021,105.270,-4.201,1.037,0.214,1,1,5.928
1780148311507,0.047,1.051,-0.310,0.098,0.064,0.018,105.355,-4.080,1.037,0.210,1,1,3.876
1780148311521,0.048,1.049,-0.309,0.102,0.060,0.014,105.502,-4.099,1.035,0.218,1,1,3.262
1780148311534,0.050,1.046,-0.309,0.105,0.056,0.009,105.636,-4.147,1.032,0.231,1,1,3.252
1780148311548,0.056,1.043,-0.309,0.108,0.053,-0.001,105.823,-4.789,1.048,0.311,1,1,3.247
1780148311562,0.056,1.040,-0.309,0.111,0.050,-0.005,106.012,-4.550,1.026,0.233,1,1,3.859
1780148311575,0.055,1.037,-0.310,0.114,0.046,-0.009,106.210,-4.405,1.031,0.241,1,1,3.859
1780148311590,0.054,1.035,-0.310,0.118,0.042,-0.014,106.364,-4.153,1.034,0.245,1,1,3.293
1780148311603,0.061,1.033,-0.310,0.121,0.039,-0.023,106.525,-4.773,1.058,0.344,1,1,3.261
1780148311616,0.059,1.031,-0.311,0.124,0.035,-0.027,106.695,-4.493,1.049,0.259,1,1,3.248
1780148311630,0.058,1.030,-0.312,0.128,0.031,-0.030,106.866,-4.148,1.066,0.260,1,1,3.255
1780148311643,0.055,1.030,-0.313,0.131,0.027,-0.033,106.965,-3.797,1.075,0.260,2,2,3.872
1780148311658,0.053,1.030,-0.315,0.135,0.023,-0.036,107.149,-3.405,1.078,0.264,2,2,3.311
1780148311672,0.051,1.029,-0.316,0.138,0.018,-0.039,107.274,-3.125,1.077,0.272,2,2,3.994
1780148311685,0.048,1.029,-0.317,0.143,0.014,-0.040,107.404,-2.797,1.079,0.289,2,2,3.402
1780148311699,0.046,1.029,-0.319,0.148,0.010,-0.041,107.548,-2.455,1.079,0.306,2,2,4.028
1780148311713,0.072,1.017,-0.322,0.154,-0.000,-0.033,108.513,-5.754,1.087,0.453,3,3,3.872
1780148311727,0.068,1.016,-0.324,0.161,-0.006,-0.032,108.691,-5.034,1.054,0.380,3,3,3.256
1780148311741,0.063,1.017,-0.327,0.169,-0.009,-0.034,108.820,-4.381,1.108,0.400,3,3,4.136
1780148311755,0.058,1.018,-0.329,0.179,-0.012,-0.036,108.941,-3.717,1.106,0.433,3,3,3.702
1780148311768,0.052,1.019,-0.331,0.189,-0.013,-0.040,109.039,-2.995,1.106,0.481,3,3,3.246
1780148311782,0.047,1.020,-0.334,0.201,-0.012,-0.044,109.169,-2.365,1.130,0.526,3,3,3.875
1780148311796,0.043,1.023,-0.337,0.213,-0.010,-0.049,109.317,-1.919,1.157,0.569,3,3,3.275
1780148311809,0.039,1.027,-0.341,0.227,-0.007,-0.054,109.435,-1.511,1.186,0.611,3,3,3.254
1780148311822,0.036,1.031,-0.345,0.241,-0.005,-0.060,109.650,-1.202,1.209,0.645,3,3,3.246
1780148311836,0.032,1.036,-0.350,0.255,-0.001,-0.066,109.802,-0.848,1.233,0.678,3,3,3.251
1780148311849,0.024,1.045,-0.354,0.271,0.003,-0.073,109.798,-0.222,1.310,0.715,4,4,3.892
1780148311864,0.012,1.058,-0.357,0.287,0.010,-0.082,109.617,0.752,1.455,0.811,4,4,3.260
1780148311877,0.017,1.072,-0.362,0.305,0.017,-0.092,109.521,0.263,1.459,0.875,4,4,3.256
1780148311890,0.019,1.085,-0.366,0.326,0.021,-0.101,109.391,0.004,1.432,0.928,4,4,3.291
1780148311904,0.012,1.097,-0.368,0.349,0.027,-0.108,109.204,0.481,1.425,1.004,4,4,3.248
1780148311921,0.004,1.110,-0.370,0.375,0.036,-0.115,108.868,1.136,1.477,1.131,4,4,7.339
1780148311935,0.002,1.128,-0.370,0.405,0.046,-0.121,108.405,1.133,1.553,1.252,4,4,3.254
1780148311948,0.005,1.147,-0.368,0.439,0.054,-0.125,107.780,0.827,1.599,1.364,4,4,3.252
1780148311962,0.011,1.167,-0.364,0.477,0.059,-0.127,106.986,0.264,1.635,1.501,4,4,3.256
1780148311975,0.021,1.185,-0.356,0.520,0.061,-0.130,106.005,-0.565,1.608,1.640,4,4,3.323
1780148311990,0.030,1.199,-0.346,0.567,0.059,-0.131,104.928,-1.392,1.537,1.787,4,4,5.875
1780148312004,0.038,1.210,-0.337,0.623,0.052,-0.135,104.096,-2.038,1.461,2.112,4,4,3.266
1780148312018,0.041,1.216,-0.336,0.693,0.043,-0.145,103.947,-2.263,1.402,2.542,4,4,3.257
1780148312031,0.042,1.203,-0.353,0.760,0.035,-0.163,106.346,-2.326,1.169,2.580,4,4,3.282
1780148312045,0.046,1.166,-0.384,0.815,0.035,-0.188,111.593,-2.778,1.109,2.406,4,4,3.265
1780148312058,0.077,1.143,-0.382,0.840,0.030,-0.205,112.249,-6.766,1.059,1.612,4,4,3.875
1780148312072,0.111,1.120,-0.344,0.839,-0.003,-0.201,106.430,-10.672,1.164,1.188,4,4,3.279
1780148312086,0.120,1.103,-0.312,0.831,-0.037,-0.202,102.189,-11.671,0.894,1.145,4,4,3.258
1780148312101,0.121,1.081,-0.285,0.812,-0.061,-0.204,98.482,-11.681,0.682,0.797,4,4,4.836
1780148312114,0.124,1.057,-0.262,0.778,-0.080,-0.202,95.301,-12.166,0.606,0.595,4,4,3.262
1780148312127,0.121,1.031,-0.242,0.730,-0.091,-0.198,92.709,-11.823,0.513,0.651,4,4,3.841
1780148312141,0.119,1.006,-0.224,0.670,-0.092,-0.194,90.373,-11.379,0.500,0.900,4,4,3.296
1780148312155,0.119,0.981,-0.206,0.601,-0.084,-0.188,88.193,-11.627,0.482,1.219,4,4,3.247
1780148312175,0.127,0.958,-0.190,0.520,-0.068,-0.177,86.523,-13.678,0.574,1.603,4,4,10.282
1780148312189,0.142,0.942,-0.178,0.435,-0.057,-0.160,85.995,-15.882,0.760,1.818,4,4,3.262
1780148312202,0.157,0.931,-0.168,0.349,-0.047,-0.141,86.146,-17.784,0.851,1.920,4,4,3.866
1780148312216,0.174,0.922,-0.164,0.262,-0.044,-0.121,86.949,-19.605,0.904,2.040,4,4,3.292
1780148312230,0.190,0.917,-0.162,0.176,-0.047,-0.098,88.141,-20.875,0.981,2.133,4,4,3.360
1780148312243,0.199,0.916,-0.165,0.090,-0.055,-0.073,89.643,-21.146,1.010,2.237,4,4,3.247
1780148312256,0.201,0.922,-0.171,0.005,-0.062,-0.046,91.204,-20.294,1.121,2.302,4,4,3.247
1780148312270,0.197,0.932,-0.181,-0.078,-0.064,-0.017,92.912,-18.844,1.215,2.346,5,5,3.839
1780148312284,0.189,0.948,-0.194,-0.158,-0.060,0.012,94.607,-17.100,1.376,2.367,5,5,3.252
1780148312297,0.178,0.967,-0.211,-0.233,-0.048,0.041,96.291,-15.230,1.495,2.349,5,5,3.300
1780148312310,0.167,0.988,-0.231,-0.305,-0.028,0.069,98.070,-13.521,1.614,2.350,5,5,3.244
1780148312324,0.158,1.013,-0.255,-0.369,0.001,0.096,99.836,-12.143,1.742,2.308,5,5,3.932
1780148312338,0.151,1.035,-0.282,-0.427,0.038,0.122,101.720,-10.992,1.737,2.308,5,5,3.895
1780148312352,0.145,1.052,-0.310,-0.481,0.081,0.145,103.752,-9.983,1.695,2.370,5,5,3.262
1780148312366,0.141,1.071,-0.337,-0.531,0.128,0.167,105.487,-9.226,1.753,2.382,5,5,3.664
1780148312379,0.140,1.088,-0.364,-0.574,0.174,0.186,107.134,-8.662,1.753,2.284,5,5,3.257
1780148312393,0.140,1.100,-0.388,-0.612,0.216,0.202,108.756,-8.352,1.664,2.155,5,5,3.578
1780148312406,0.143,1.111,-0.410,-0.647,0.250,0.216,110.163,-8.256,1.613,2.003,5,5,3.889
1780148312420,0.149,1.119,-0.429,-0.681,0.272,0.228,111.366,-8.406,1.586,1.848,5,5,3.249
1780148312434,0.154,1.127,-0.449,-0.713,0.281,0.240,112.594,-8.523,1.591,1.721,5,5,3.982
1780148312447,0.155,1.136,-0.470,-0.742,0.280,0.252,113.799,-8.322,1.631,1.610,5,5,3.263
1780148312461,0.153,1.145,-0.494,-0.765,0.271,0.262,115.053,-7.862,1.686,1.470,5,5,3.265
1780148312474,0.149,1.151,-0.520,-0.782,0.258,0.271,116.493,-7.351,1.693,1.319,5,5,3.960
1780148312488,0.144,1.155,-0.547,-0.791,0.242,0.280,118.035,-6.761,1.682,1.156,5,5,3.248
1780148312502,0.134,1.156,-0.574,-0.792,0.225,0.288,119.591,-5.818,1.660,0.998,5,5,3.262
1780148312515,0.118,1.155,-0.600,-0.786,0.210,0.293,121.141,-4.487,1.634,0.784,5,5,3.255
1780148312529,0.099,1.152,-0.625,-0.773,0.200,0.296,122.695,-3.000,1.625,0.567,5,5,3.253
1780148312542,0.081,1.147,-0.649,-0.752,0.194,0.295,124.176,-1.619,1.621,0.348,1,1,3.902
1780148312556,0.065,1.142,-0.674,-0.724,0.191,0.290,125.629,-0.516,1.607,0.213,1,1,3.254
1780148312570,0.051,1.137,-0.696,-0.689,0.190,0.284,126.942,0.380,1.588,0.314,1,1,3.267
1780148312584,0.038,1.131,-0.716,-0.646,0.191,0.275,128.090,1.223,1.546,0.509,1,1,4.207
1780148312597,0.026,1.126,-0.732,-0.598,0.194,0.262,128.917,1.992,1.499,0.703,1,1,3.251
1780148312611,0.006,1.130,-0.740,-0.545,0.212,0.228,128.699,3.336,1.583,1.264,1,1,3.871
1780148312625,-0.022,1.103,-0.702,-0.502,0.256,0.168,123.760,7.785,0.807,2.055,1,1,3.255
1780148312638,-0.049,1.226,-0.533,-0.436,0.283,0.133,116.846,7.748,5.093,1.801,1,1,3.266
1780148312651,-0.041,1.196,-0.504,-0.369,0.310,0.098,113.170,5.603,0.560,1.868,1,1,3.267
1780148312665,-0.047,1.199,-0.530,-0.292,0.318,0.071,114.823,5.606,1.687,1.906,1,1,3.256
1780148312678,-0.056,1.170,-0.555,-0.226,0.314,0.063,118.567,6.290,1.240,1.513,1,1,3.875
1780148312692,-0.066,1.168,-0.524,-0.173,0.306,0.064,115.187,6.986,1.170,1.218,1,1,3.274
1780148312705,-0.070,1.163,-0.501,-0.127,0.300,0.069,112.751,7.162,1.067,1.095,1,1,3.256
1780148312720,-0.061,1.151,-0.491,-0.087,0.290,0.072,112.180,5.655,0.937,0.958,1,1,3.978
1780148312734,-0.035,1.138,-0.485,-0.052,0.282,0.065,112.243,2.238,1.069,0.861,1,1,4.283
1780148312748,-0.010,1.126,-0.483,-0.022,0.273,0.060,112.704,-0.706,1.122,0.755,1,1,3.884
1780148312762,0.003,1.116,-0.480,-0.004,0.260,0.042,112.819,-2.186,1.023,0.635,1,1,3.252
1780148312775,0.013,1.108,-0.474,0.008,0.247,0.023,112.649,-3.190,1.012,0.585,1,1,3.251
1780148312788,0.017,1.101,-0.467,0.018,0.232,0.005,112.229,-3.430,1.009,0.548,1,1,3.258
1780148312805,0.018,1.095,-0.461,0.025,0.217,-0.012,111.936,-3.349,1.015,0.533,1,1,6.400
1780148312818,0.015,1.092,-0.453,0.031,0.202,-0.023,111.310,-2.725,1.064,0.415,1,1,3.883
1780148312832,0.010,1.089,-0.445,0.038,0.188,-0.030,110.632,-2.002,1.062,0.351,1,1,3.248
1780148312845,0.006,1.085,-0.439,0.046,0.175,-0.033,110.261,-1.443,1.041,0.320,1,1,3.261
1780148312859,0.005,1.080,-0.432,0.056,0.165,-0.034,109.882,-1.188,1.027,0.329,1,1,3.244
1780148312872,0.007,1.076,-0.427,0.065,0.155,-0.037,109.711,-1.356,1.041,0.338,1,1,3.239
1780148312885,0.013,1.072,-0.423,0.073,0.146,-0.040,109.617,-1.908,1.038,0.323,1,1,3.839
1780148312900,0.019,1.068,-0.419,0.079,0.138,-0.045,109.524,-2.502,1.054,0.305,1,1,3.297
1780148312913,0.019,1.064,-0.415,0.085,0.130,-0.050,109.455,-2.437,1.023,0.307,1,1,3.332
1780148312927,0.017,1.061,-0.411,0.091,0.122,-0.054,109.304,-2.068,1.041,0.305,1,1,3.252
1780148312940,0.015,1.057,-0.407,0.096,0.115,-0.058,109.229,-1.742,1.040,0.283,1,1,3.248
1780148312953,0.018,1.054,-0.404,0.101,0.112,-0.058,109.120,-1.924,1.032,0.226,1,1,3.935
1780148312967,0.013,1.050,-0.401,0.105,0.106,-0.057,109.124,-1.334,1.032,0.219,1,1,3.260
1780148312981,0.013,1.047,-0.398,0.108,0.100,-0.056,109.151,-1.266,1.024,0.206,1,1,3.606
1780148312995,0.014,1.043,-0.396,0.111,0.095,-0.056,109.267,-1.243,1.034,0.185,1,1,3.330
1780148313008,0.014,1.040,-0.395,0.113,0.090,-0.057,109.401,-1.222,1.030,0.176,1,1,3.379
1780148313022,0.012,1.036,-0.394,0.114,0.086,-0.057,109.543,-1.016,1.029,0.165,1,1,4.459
1780148313036,0.011,1.034,-0.392,0.115,0.082,-0.057,109.577,-0.816,1.039,0.155,1,1,3.265
1780148313050,0.010,1.031,-0.391,0.116,0.079,-0.057,109.657,-0.667,1.044,0.159,1,1,3.356
1780148313063,0.009,1.029,-0.390,0.118,0.075,-0.057,109.737,-0.555,1.050,0.176,1,1,3.275
1780148313077,0.009,1.027,-0.389,0.120,0.071,-0.058,109.845,-0.564,1.048,0.189,1,1,3.252
1780148313090,0.009,1.026,-0.388,0.122,0.068,-0.060,109.921,-0.517,1.061,0.216,1,1,3.887
1780148313104,0.008,1.024,-0.388,0.126,0.064,-0.061,109.965,-0.446,1.059,0.242,1,1,3.276
1780148313117,0.007,1.022,-0.387,0.130,0.061,-0.064,110.100,-0.336,1.056,0.276,1,1,3.257
1780148313131,0.005,1.020,-0.387,0.135,0.058,-0.066,110.267,-0.060,1.042,0.293,1,1,3.246
1780148313144,0.003,1.018,-0.388,0.141,0.056,-0.068,110.455,0.152,1.055,0.310,1,1,3.253
1780148313157,0.000,1.017,-0.388,0.147,0.053,-0.069,110.604,0.462,1.065,0.327,1,1,3.830
1780148313171,-0.002,1.016,-0.389,0.154,0.051,-0.070,110.749,0.624,1.086,0.349,1,1,3.248
1780148313185,-0.003,1.017,-0.390,0.162,0.049,-0.071,110.858,0.770,1.109,0.379,1,1,3.252
1780148313198,-0.006,1.018,-0.391,0.171,0.047,-0.072,110.938,0.970,1.124,0.407,1,1,3.258
1780148313211,-0.008,1.020,-0.393,0.180,0.046,-0.074,111.058,1.135,1.155,0.453,1,1,3.329
1780148313226,-0.011,1.022,-0.396,0.191,0.046,-0.078,111.220,1.349,1.164,0.504,4,4,3.851
1780148313240,-0.012,1.026,-0.400,0.203,0.046,-0.084,111.421,1.433,1.216,0.556,4,4,3.262
1780148313254,-0.012,1.032,-0.404,0.216,0.046,-0.090,111.602,1.323,1.258,0.611,4,4,3.653
1780148313276,-0.009,1.043,-0.409,0.232,0.043,-0.092,111.698,0.984,1.382,0.668,4,4,6.017
1780148313294,-0.020,1.062,-0.413,0.251,0.041,-0.094,111.407,1.825,1.586,0.766,4,4,3.466
1780148313307,-0.020,1.086,-0.419,0.274,0.041,-0.099,111.159,1.711,1.698,0.887,3,3,4.064
1780148313330,-0.014,1.112,-0.425,0.301,0.038,-0.101,110.897,1.154,1.775,1.036,3,3,12.074
1780148313347,-0.017,1.146,-0.428,0.340,0.035,-0.099,110.272,1.313,1.963,1.338,3,3,3.526
1780148313360,-0.017,1.183,-0.427,0.383,0.032,-0.096,109.410,1.188,2.033,1.517,3,3,3.411
1780148313374,-0.003,1.222,-0.423,0.432,0.025,-0.090,108.460,0.336,2.129,1.712,3,3,3.317
1780148313388,0.017,1.260,-0.412,0.486,0.009,-0.079,107.175,-0.895,2.146,1.930,3,3,4.945
1780148313406,0.043,1.292,-0.388,0.546,-0.022,-0.065,105.176,-2.433,2.086,2.287,3,3,3.313
1780148313419,0.065,1.310,-0.359,0.615,-0.061,-0.051,102.831,-3.819,1.810,2.665,3,3,3.245
1780148313432,0.058,1.312,-0.344,0.685,-0.090,-0.039,101.631,-3.140,1.358,2.653,3,3,3.324
1780148313447,0.037,1.276,-0.352,0.753,-0.105,-0.019,105.052,0.056,0.825,2.598,3,3,4.305
1780148313460,0.054,1.225,-0.353,0.801,-0.131,0.001,110.453,-4.288,0.569,2.256,4,4,3.697
1780148313474,0.098,1.183,-0.315,0.808,-0.183,0.025,102.461,-9.740,1.206,1.953,4,4,3.243
1780148313487,0.120,1.157,-0.274,0.793,-0.262,0.054,96.870,-12.188,1.048,2.488,4,4,3.236
1780148313501,0.112,1.133,-0.232,0.769,-0.328,0.080,91.624,-10.643,0.920,2.178,4,4,3.230
1780148313514,0.099,1.106,-0.195,0.740,-0.380,0.109,86.651,-8.349,0.816,1.918,4,4,3.241
1780148313527,0.080,1.070,-0.164,0.701,-0.413,0.139,81.265,-4.910,0.680,1.595,4,4,3.690
1780148313541,0.062,1.036,-0.135,0.650,-0.427,0.168,76.468,-1.545,0.659,1.408,4,4,3.243
1780148313555,0.047,1.004,-0.109,0.589,-0.428,0.198,72.334,1.204,0.631,1.450,4,4,3.235
1780148313568,0.033,0.976,-0.085,0.520,-0.416,0.227,69.160,3.519,0.606,1.622,4,4,3.224
1780148313581,0.025,0.951,-0.064,0.442,-0.399,0.257,66.939,4.564,0.602,1.879,4,4,3.245
1780148313594,0.021,0.933,-0.044,0.357,-0.381,0.287,65.795,4.829,0.672,2.134,4,4,3.696
1780148313608,0.016,0.926,-0.026,0.271,-0.369,0.318,65.611,4.867,0.855,2.264,4,4,3.226
1780148313622,0.008,0.922,-0.011,0.182,-0.363,0.347,65.917,5.457,0.922,2.400,4,4,3.339
1780148313635,-0.004,0.924,0.001,0.091,-0.360,0.373,66.751,6.339,1.032,2.512,4,4,3.233
1780148313648,-0.021,0.930,0.009,-0.001,-0.358,0.398,68.053,7.596,1.143,2.644,4,4,3.222
1780148313662,-0.040,0.943,0.012,-0.094,-0.357,0.419,69.790,8.904,1.305,2.705,5,5,3.695
1780148313675,-0.064,0.963,0.010,-0.183,-0.351,0.438,71.892,10.190,1.517,2.673,5,5,3.220
1780148313689,-0.086,0.989,0.001,-0.269,-0.340,0.453,74.229,11.100,1.683,2.642,5,5,3.275
1780148313702,-0.104,1.026,-0.010,-0.352,-0.324,0.467,76.486,11.503,1.917,2.639,5,5,3.230
1780148313715,-0.117,1.061,-0.028,-0.432,-0.306,0.479,79.042,11.504,1.916,2.630,5,5,3.225
1780148313729,-0.123,1.095,-0.051,-0.509,-0.289,0.489,81.666,11.176,1.929,2.611,5,5,3.702
1780148313743,-0.127,1.135,-0.078,-0.583,-0.272,0.497,84.189,10.651,2.131,2.601,5,5,3.247
1780148313756,-0.132,1.174,-0.111,-0.651,-0.255,0.503,86.872,10.213,2.192,2.520,5,5,3.253
1780148313769,-0.140,1.205,-0.150,-0.710,-0.235,0.508,89.817,10.031,2.175,2.356,5,5,3.283
1780148313783,-0.151,1.230,-0.192,-0.761,-0.212,0.511,92.903,10.118,2.117,2.215,5,5,3.225
1780148313796,-0.162,1.248,-0.236,-0.805,-0.185,0.509,96.066,10.187,2.069,2.048,5,5,3.691
1780148313810,-0.167,1.260,-0.283,-0.838,-0.160,0.503,99.362,9.986,2.026,1.789,5,5,3.226
1780148313823,-0.160,1.263,-0.342,-0.859,-0.137,0.493,103.297,9.037,2.107,1.521,5,5,3.275
1780148313837,-0.145,1.260,-0.400,-0.866,-0.124,0.486,107.202,7.733,2.057,1.090,5,5,4.161
1780148313851,-0.133,1.252,-0.459,-0.859,-0.124,0.481,111.112,6.654,2.074,0.778,5,5,3.230
1780148313864,-0.131,1.243,-0.514,-0.839,-0.131,0.474,114.715,6.253,2.007,0.533,1,1,3.688
1780148313878,-0.139,1.232,-0.562,-0.805,-0.139,0.462,117.894,6.538,1.926,0.386,1,1,3.882
1780148313892,-0.147,1.221,-0.600,-0.759,-0.144,0.445,120.547,6.950,1.757,0.513,1,1,3.252
1780148313907,-0.151,1.209,-0.630,-0.705,-0.146,0.426,122.709,7.099,1.624,0.730,1,1,4.923
1780148313920,-0.149,1.200,-0.654,-0.646,-0.145,0.406,124.353,6.799,1.545,0.898,1,1,3.264
1780148313934,-0.146,1.191,-0.673,-0.585,-0.143,0.386,125.590,6.397,1.459,1.020,1,1,3.722
1780148313947,-0.143,1.180,-0.687,-0.522,-0.134,0.361,126.626,6.096,1.375,1.160,1,1,3.303
1780148313962,-0.168,1.077,-0.661,-0.473,-0.100,0.298,105.589,8.502,1.375,1.739,1,1,4.798
1780148313976,-0.180,1.205,-0.457,-0.400,-0.065,0.269,99.825,8.131,5.675,1.783,1,1,3.227
1780148313989,-0.186,1.130,-0.443,-0.330,-0.007,0.245,80.382,10.245,0.600,2.143,1,1,3.279
1780148314003,-0.184,1.146,-0.476,-0.257,0.033,0.237,85.000,9.686,1.933,1.967,1,1,3.682
1780148314016,-0.165,1.106,-0.532,-0.188,0.049,0.230,93.375,7.955,1.784,1.678,1,1,3.225
1780148314030,-0.172,1.109,-0.494,-0.138,0.047,0.226,91.546,8.638,1.268,1.152,1,1,3.246
1780148314043,-0.158,1.107,-0.471,-0.091,0.032,0.235,91.271,7.053,1.081,1.277,1,1,3.232
1780148314056,-0.141,1.095,-0.476,-0.058,0.022,0.231,94.491,5.246,1.031,0.844,1,1,3.225
1780148314070,-0.122,1.079,-0.481,-0.046,0.023,0.219,97.701,3.096,0.989,0.278,1,1,3.695
1780148314083,-0.115,1.074,-0.474,-0.036,0.020,0.208,98.727,2.495,1.007,0.240,1,1,3.259
1780148314097,-0.101,1.069,-0.467,-0.028,0.014,0.194,99.679,1.263,1.036,0.295,1,1,3.259
1780148314110,-0.089,1.063,-0.463,-0.029,0.009,0.178,100.842,0.200,1.009,0.285,1,1,3.231
1780148314123,-0.081,1.060,-0.454,-0.030,0.003,0.162,101.135,-0.311,1.045,0.302,1,1,3.228
1780148314137,-0.079,1.057,-0.446,-0.029,-0.003,0.150,101.586,-0.182,1.029,0.236,1,1,4.309
1780148314151,-0.080,1.055,-0.438,-0.023,-0.008,0.142,101.812,0.431,1.052,0.194,1,1,3.232
1780148314164,-0.080,1.054,-0.428,-0.015,-0.012,0.137,101.832,0.737,1.055,0.227,1,1,3.220
1780148314178,-0.077,1.053,-0.419,-0.005,-0.015,0.133,101.865,0.811,1.051,0.270,1,1,3.229
1780148314191,-0.077,1.051,-0.412,0.006,-0.016,0.132,102.044,1.107,1.035,0.303,1,1,3.248
1780148314205,-0.074,1.048,-0.406,0.016,-0.016,0.131,102.380,1.041,1.030,0.310,1,1,3.739
1780148314218,-0.067,1.045,-0.400,0.025,-0.016,0.130,102.754,0.469,1.023,0.284,1,1,3.227
1780148314232,-0.058,1.043,-0.396,0.033,-0.017,0.127,103.127,-0.262,1.036,0.238,1,1,3.228
1780148314245,-0.051,1.040,-0.391,0.039,-0.017,0.122,103.456,-0.819,1.035,0.207,1,1,3.242
1780148314258,-0.048,1.038,-0.387,0.045,-0.018,0.117,103.756,-0.837,1.035,0.201,1,1,3.226
1780148314272,-0.046,1.036,-0.383,0.051,-0.018,0.112,103.944,-0.689,1.041,0.196,1,1,3.723
1780148314286,-0.046,1.034,-0.378,0.056,-0.017,0.108,104.149,-0.423,1.035,0.189,1,1,4.053
1780148314301,-0.044,1.033,-0.375,0.060,-0.017,0.105,104.346,-0.389,1.042,0.178,1,1,3.293
1780148314314,-0.040,1.031,-0.372,0.063,-0.016,0.103,104.645,-0.551,1.040,0.158,1,1,3.305
1780148314327,-0.036,1.029,-0.369,0.066,-0.016,0.101,104.904,-0.832,1.037,0.137,1,1,3.326
1780148314341,-0.032,1.027,-0.367,0.068,-0.015,0.097,105.189,-1.059,1.032,0.124,1,1,3.687
1780148314354,-0.029,1.026,-0.364,0.070,-0.015,0.093,105.399,-1.149,1.039,0.116,1,1,3.223
1780148314369,-0.028,1.024,-0.362,0.072,-0.015,0.091,105.596,-1.004,1.045,0.117,1,1,3.263
1780148314382,-0.026,1.023,-0.360,0.073,-0.014,0.088,105.829,-0.991,1.042,0.121,1,1,3.220
1780148314396,-0.024,1.022,-0.359,0.075,-0.014,0.086,106.069,-1.032,1.046,0.118,1,1,3.425
1780148314409,-0.021,1.020,-0.358,0.076,-0.014,0.083,106.348,-1.159,1.046,0.117,1,1,3.689
1780148314423,-0.018,1.019,-0.358,0.078,-0.013,0.080,106.620,-1.286,1.044,0.115,1,1,3.227
1780148314437,-0.015,1.018,-0.356,0.080,-0.014,0.076,106.779,-1.359,1.057,0.129,1,1,3.700
1780148314450,-0.014,1.017,-0.356,0.082,-0.014,0.073,106.933,-1.252,1.061,0.150,1,1,3.305
1780148314464,-0.013,1.017,-0.354,0.086,-0.014,0.070,107.033,-1.240,1.071,0.175,1,1,3.230
1780148314477,-0.011,1.018,-0.353,0.090,-0.014,0.067,107.093,-1.314,1.085,0.206,1,1,3.715
1780148314491,-0.009,1.019,-0.353,0.096,-0.013,0.063,107.199,-1.344,1.095,0.245,1,1,3.229
1780148314507,-0.007,1.020,-0.353,0.103,-0.013,0.059,107.325,-1.370,1.099,0.285,1,1,6.405
1780148314521,-0.006,1.021,-0.352,0.111,-0.013,0.055,107.438,-1.292,1.099,0.341,1,1,3.246
1780148314534,-0.007,1.022,-0.353,0.121,-0.012,0.050,107.574,-1.101,1.114,0.391,1,1,3.362
1780148314548,-0.006,1.024,-0.353,0.133,-0.011,0.046,107.711,-1.010,1.126,0.439,3,3,3.730
1780148314561,-0.006,1.026,-0.354,0.146,-0.009,0.042,107.856,-0.936,1.140,0.487,3,3,3.231
1780148314575,-0.006,1.030,-0.356,0.160,-0.008,0.040,107.987,-0.803,1.163,0.526,3,3,3.221
1780148314588,0.015,1.002,-0.359,0.175,-0.009,0.045,110.816,-4.525,0.751,0.591,3,3,3.262
1780148314601,0.010,1.006,-0.362,0.191,-0.007,0.041,110.860,-3.645,1.177,0.619,3,3,3.249
1780148314615,0.007,1.011,-0.364,0.208,-0.004,0.037,110.851,-2.941,1.201,0.660,3,3,3.697
1780148314629,0.004,1.017,-0.368,0.226,0.000,0.033,110.816,-2.427,1.245,0.710,3,3,3.248
1780148314642,0.000,1.024,-0.371,0.245,0.006,0.030,110.852,-1.859,1.248,0.756,3,3,3.231
1780148314657,-0.001,1.030,-0.375,0.265,0.012,0.027,110.971,-1.527,1.252,0.803,3,3,4.478
1780148314670,-0.001,1.036,-0.380,0.286,0.019,0.024,111.097,-1.373,1.282,0.843,3,3,3.229
1780148314683,-0.002,1.046,-0.385,0.308,0.025,0.022,111.094,-1.154,1.358,0.887,3,3,3.717
1780148314700,-0.011,1.065,-0.390,0.331,0.035,0.016,110.860,-0.334,1.567,0.994,3,3,3.247
1780148314713,0.004,1.082,-0.394,0.357,0.042,0.012,110.582,-1.432,1.566,1.055,3,3,3.225
1780148314726,0.010,1.099,-0.396,0.385,0.045,0.010,110.237,-1.815,1.539,1.133,3,3,3.223
1780148314740,0.005,1.119,-0.396,0.416,0.049,0.009,109.688,-1.275,1.620,1.239,3,3,3.235
1780148314753,0.003,1.145,-0.394,0.451,0.056,0.009,108.947,-1.062,1.735,1.375,3,3,3.699
1780148314773,0.013,1.172,-0.387,0.493,0.059,0.013,107.818,-1.622,1.784,1.598,3,3,7.060
1780148314790,0.019,1.195,-0.372,0.540,0.059,0.022,106.300,-1.983,1.715,1.780,3,3,3.318
1780148314803,0.022,1.215,-0.356,0.593,0.057,0.029,104.712,-2.091,1.667,1.957,3,3,3.316
1780148314817,0.026,1.229,-0.338,0.659,0.052,0.034,103.159,-2.249,1.533,2.391,3,3,3.581
1780148314830,0.016,1.242,-0.335,0.727,0.049,0.036,102.869,-1.380,1.557,2.503,3,3,3.710
1780148314844,0.011,1.212,-0.354,0.793,0.057,0.030,106.761,-0.707,0.958,2.517,3,3,3.232
1780148314857,0.038,1.167,-0.369,0.839,0.060,0.012,112.431,-4.513,0.937,2.098,3,3,3.220
1780148314871,0.073,1.143,-0.349,0.858,0.047,0.001,109.591,-9.113,1.054,1.392,3,3,3.564
1780148314884,0.119,1.111,-0.312,0.849,-0.006,0.011,102.832,-14.020,1.303,1.552,3,3,3.270
1780148314898,0.137,1.096,-0.276,0.827,-0.067,0.016,98.444,-15.452,1.068,1.660,4,4,3.728
1780148314912,0.139,1.073,-0.245,0.794,-0.123,0.017,94.116,-15.316,0.734,1.600,4,4,3.220
1780148314925,0.139,1.048,-0.217,0.750,-0.175,0.020,90.015,-15.038,0.648,1.571,4,4,3.243
1780148314938,0.133,1.021,-0.193,0.694,-0.219,0.025,86.471,-13.784,0.563,1.562,4,4,3.296
1780148314952,0.126,0.998,-0.170,0.630,-0.251,0.030,83.656,-12.259,0.591,1.515,4,4,3.220
1780148314965,0.120,0.975,-0.150,0.562,-0.271,0.037,81.203,-10.790,0.562,1.467,4,4,4.759
1780148314980,0.115,0.953,-0.132,0.485,-0.277,0.048,79.195,-9.895,0.525,1.601,4,4,3.234
1780148314993,0.116,0.933,-0.115,0.402,-0.276,0.062,77.783,-10.390,0.577,1.819,4,4,3.225
1780148315007,0.122,0.920,-0.103,0.316,-0.273,0.081,77.516,-11.387,0.697,2.025,4,4,3.235
1780148315020,0.127,0.912,-0.093,0.229,-0.271,0.102,77.855,-11.963,0.790,2.125,4,4,3.225
1780148315035,0.134,0.906,-0.087,0.140,-0.272,0.125,78.637,-12.748,0.829,2.302,4,4,5.969
1780148315050,0.140,0.906,-0.084,0.049,-0.276,0.149,79.796,-13.044,0.951,2.479,4,4,3.232
1780148315063,0.140,0.915,-0.083,-0.041,-0.282,0.175,81.168,-12.552,1.106,2.577,4,4,3.227
1780148315076,0.132,0.928,-0.088,-0.130,-0.286,0.203,82.790,-11.110,1.234,2.631,4,4,3.228
1780148315090,0.116,0.944,-0.095,-0.218,-0.283,0.228,84.566,-9.111,1.332,2.659,4,4,3.217
1780148315103,0.098,0.964,-0.102,-0.303,-0.269,0.251,86.075,-7.188,1.465,2.641,5,5,3.762
1780148315117,0.086,0.992,-0.110,-0.384,-0.244,0.273,87.425,-5.901,1.624,2.671,5,5,3.231
1780148315130,0.082,1.027,-0.122,-0.463,-0.215,0.295,88.762,-5.288,1.839,2.701,5,5,3.223
1780148315144,0.084,1.069,-0.139,-0.539,-0.187,0.319,90.258,-5.129,2.047,2.720,5,5,3.623
1780148315157,0.085,1.105,-0.163,-0.611,-0.161,0.341,92.138,-4.938,2.038,2.702,5,5,3.225
1780148315172,0.082,1.143,-0.194,-0.676,-0.133,0.359,94.194,-4.492,2.143,2.593,5,5,5.693
1780148315186,0.070,1.180,-0.229,-0.732,-0.100,0.374,96.315,-3.600,2.234,2.426,5,5,3.221
1780148315199,0.052,1.206,-0.267,-0.782,-0.063,0.385,98.764,-2.385,2.125,2.353,5,5,3.225
1780148315213,0.033,1.223,-0.303,-0.828,-0.020,0.392,101.151,-1.068,1.969,2.373,5,5,3.237
1780148315226,0.019,1.233,-0.346,-0.869,0.020,0.400,104.080,-0.208,1.970,2.297,5,5,3.230
1780148315239,0.014,1.243,-0.397,-0.902,0.053,0.401,107.131,0.067,2.088,2.016,5,5,3.706
1780148315253,0.016,1.247,-0.458,-0.920,0.074,0.401,110.529,-0.088,2.234,1.577,5,5,3.228
1780148315267,0.014,1.244,-0.526,-0.923,0.081,0.402,114.293,-0.004,2.344,1.112,5,5,4.114
1780148315281,-0.006,1.235,-0.597,-0.908,0.081,0.397,118.102,1.013,2.430,0.599,5,5,3.225
1780148315294,-0.038,1.222,-0.663,-0.877,0.081,0.383,121.684,2.566,2.419,0.104,5,5,3.260
1780148315307,-0.065,1.209,-0.720,-0.832,0.082,0.360,124.826,3.945,2.254,0.432,1,1,3.730
1780148315321,-0.084,1.195,-0.765,-0.776,0.085,0.332,127.504,4.923,2.022,0.779,1,1,3.268
1780148315335,-0.101,1.187,-0.797,-0.714,0.091,0.305,129.259,5.855,1.878,1.028,1,1,3.248
1780148315350,-0.098,1.126,-0.799,-0.647,0.105,0.277,101.178,5.557,0.868,1.275,1,1,3.235
1780148315363,0.027,1.252,-0.626,-0.536,0.102,0.222,96.482,2.307,5.797,2.641,1,1,3.223
1780148315376,-0.075,1.210,-0.567,-0.437,0.119,0.208,89.339,8.844,2.439,2.198,5,5,3.743
1780148315390,-0.083,1.213,-0.618,-0.347,0.122,0.205,94.515,8.647,2.180,2.002,5,5,3.224
1780148315403,-0.080,1.162,-0.656,-0.272,0.120,0.200,102.428,7.920,1.493,1.690,5,5,3.245
1780148315417,-0.074,1.171,-0.602,-0.226,0.109,0.196,99.070,6.923,1.490,0.999,5,5,3.230
1780148315430,-0.049,1.143,-0.615,-0.196,0.098,0.182,103.888,3.787,1.146,0.639,5,5,3.231
1780148315443,-0.049,1.131,-0.614,-0.185,0.096,0.169,105.841,3.711,1.044,0.178,1,1,3.683
1780148315457,-0.040,1.128,-0.594,-0.173,0.093,0.159,105.103,2.592,1.084,0.195,1,1,3.227
1780148315471,-0.036,1.119,-0.582,-0.160,0.088,0.155,105.569,2.073,0.995,0.187,1,1,3.228
1780148315484,-0.031,1.112,-0.569,-0.152,0.084,0.153,105.665,1.395,0.998,0.123,1,1,3.321
1780148315497,-0.022,1.109,-0.551,-0.146,0.078,0.152,104.982,0.353,1.066,0.133,1,1,3.254
1780148315511,-0.016,1.104,-0.536,-0.138,0.073,0.150,104.659,-0.291,1.018,0.147,1,1,3.705
1780148315525,-0.014,1.099,-0.522,-0.129,0.068,0.151,104.409,-0.362,1.018,0.205,1,1,3.220
1780148315538,-0.010,1.095,-0.507,-0.118,0.064,0.153,103.939,-0.721,1.038,0.258,1,1,3.234
1780148315551,-0.008,1.092,-0.493,-0.106,0.061,0.155,103.652,-0.908,1.038,0.304,1,1,3.240
1780148315565,-0.005,1.089,-0.481,-0.094,0.059,0.159,103.480,-1.093,1.041,0.332,1,1,3.247
1780148315578,0.002,1.084,-0.470,-0.082,0.057,0.161,103.467,-1.797,1.026,0.320,1,1,3.688
1780148315592,0.012,1.080,-0.460,-0.072,0.055,0.162,103.447,-2.837,1.043,0.254,1,1,3.227
1780148315605,0.023,1.076,-0.449,-0.063,0.053,0.159,103.370,-3.959,1.051,0.197,1,1,3.219
1780148315618,0.031,1.073,-0.439,-0.054,0.050,0.155,103.290,-4.640,1.043,0.174,1,1,3.225
1780148315632,0.036,1.070,-0.431,-0.046,0.047,0.150,103.301,-4.945,1.048,0.167,1,1,3.218
1780148315645,0.038,1.068,-0.422,-0.039,0.044,0.146,103.290,-4.920,1.052,0.166,1,1,3.684
1780148315659,0.040,1.066,-0.415,-0.031,0.042,0.142,103.328,-4.913,1.047,0.169,1,1,3.266
1780148315672,0.043,1.063,-0.408,-0.025,0.039,0.139,103.405,-5.047,1.054,0.159,1,1,3.220
1780148315685,0.047,1.061,-0.401,-0.019,0.038,0.135,103.490,-5.175,1.056,0.135,1,1,3.216
1780148315699,0.052,1.059,-0.394,-0.014,0.036,0.130,103.482,-5.572,1.052,0.123,1,1,3.239
1780148315712,0.057,1.057,-0.388,-0.009,0.034,0.124,103.529,-5.888,1.048,0.127,1,1,3.672
1780148315726,0.061,1.054,-0.382,-0.003,0.032,0.118,103.642,-6.107,1.044,0.135,1,1,3.228
1780148315739,0.064,1.052,-0.377,0.002,0.030,0.112,103.748,-6.213,1.048,0.138,1,1,3.216
1780148315752,0.068,1.050,-0.372,0.006,0.029,0.106,103.875,-6.414,1.045,0.148,1,1,3.227
1780148315766,0.072,1.047,-0.368,0.012,0.028,0.099,103.979,-6.691,1.040,0.165,1,1,3.215
1780148315779,0.076,1.045,-0.363,0.017,0.026,0.091,104.102,-6.955,1.041,0.186,1,1,3.671
1780148315793,0.081,1.042,-0.360,0.022,0.024,0.083,104.263,-7.250,1.033,0.211,1,1,3.218
1780148315806,0.084,1.039,-0.357,0.028,0.021,0.075,104.491,-7.396,1.021,0.233,1,1,3.221
1780148315821,0.087,1.035,-0.354,0.034,0.018,0.066,104.696,-7.421,1.016,0.254,1,1,4.772
1780148315834,0.087,1.033,-0.351,0.039,0.016,0.057,104.886,-7.259,1.023,0.256,1,1,3.260
1780148315848,0.088,1.030,-0.348,0.045,0.013,0.050,105.066,-7.114,1.022,0.257,2,2,3.784
1780148315862,0.086,1.028,-0.347,0.052,0.011,0.043,105.293,-6.647,1.031,0.252,2,2,3.229
1780148315875,0.085,1.027,-0.345,0.058,0.010,0.038,105.418,-6.362,1.049,0.253,2,2,3.254
1780148315889,0.084,1.026,-0.343,0.065,0.008,0.033,105.582,-6.095,1.065,0.258,2,2,3.248
1780148315902,0.083,1.026,-0.342,0.072,0.007,0.029,105.718,-5.851,1.073,0.276,2,2,3.221
1780148315915,0.083,1.026,-0.340,0.080,0.006,0.025,105.795,-5.667,1.073,0.299,2,2,3.713
1780148315929,0.082,1.026,-0.340,0.089,0.005,0.021,105.973,-5.463,1.075,0.327,2,2,3.227
1780148315943,0.081,1.026,-0.339,0.099,0.003,0.018,106.119,-5.265,1.073,0.359,2,2,3.224
1780148315956,0.082,1.026,-0.339,0.110,0.002,0.015,106.315,-5.247,1.076,0.395,2,2,3.229
1780148315970,0.083,1.025,-0.339,0.121,-0.001,0.013,106.544,-5.273,1.072,0.437,2,2,4.380
1780148315985,0.084,1.025,-0.340,0.134,-0.006,0.013,106.786,-5.358,1.090,0.478,3,3,3.792
1780148315999,0.086,1.026,-0.341,0.147,-0.011,0.011,107.091,-5.462,1.124,0.514,3,3,3.246
1780148316013,0.088,1.027,-0.344,0.161,-0.016,0.008,107.448,-5.545,1.126,0.550,3,3,4.093
1780148316026,0.089,1.028,-0.346,0.176,-0.021,0.004,107.755,-5.557,1.138,0.590,3,3,3.242
1780148316040,0.088,1.030,-0.350,0.191,-0.026,-0.001,108.112,-5.397,1.145,0.617,3,3,3.233
1780148316053,0.087,1.031,-0.353,0.207,-0.031,-0.006,108.469,-5.147,1.149,0.642,3,3,3.970
1780148316067,0.085,1.033,-0.357,0.222,-0.034,-0.011,108.825,-4.863,1.160,0.656,3,3,3.228
1780148316082,0.083,1.035,-0.361,0.238,-0.035,-0.016,109.217,-4.575,1.178,0.674,3,3,3.244
1780148316095,0.080,1.038,-0.366,0.255,-0.036,-0.021,109.631,-4.194,1.186,0.692,3,3,3.226
1780148316112,0.076,1.040,-0.371,0.271,-0.035,-0.025,110.009,-3.734,1.196,0.723,3,3,7.274
1780148316126,0.071,1.043,-0.376,0.289,-0.033,-0.029,110.353,-3.206,1.211,0.749,3,3,3.679
1780148316139,0.064,1.048,-0.382,0.307,-0.031,-0.033,110.688,-2.517,1.259,0.785,3,3,3.235
1780148316153,0.055,1.055,-0.387,0.325,-0.025,-0.039,110.890,-1.665,1.330,0.837,3,3,3.227
1780148316166,0.053,1.065,-0.392,0.345,-0.019,-0.044,110.936,-1.585,1.370,0.898,3,3,3.227
1780148316179,0.050,1.076,-0.398,0.367,-0.014,-0.049,110.981,-1.378,1.419,0.964,3,3,3.297
1780148316193,0.049,1.090,-0.402,0.392,-0.008,-0.054,110.883,-1.367,1.473,1.049,4,4,3.677
1780148316207,0.050,1.106,-0.406,0.419,-0.002,-0.056,110.612,-1.442,1.532,1.146,4,4,3.239
1780148316220,0.046,1.127,-0.407,0.450,0.006,-0.057,110.103,-1.220,1.653,1.265,4,4,3.222
1780148316233,0.046,1.151,-0.406,0.484,0.014,-0.056,109.442,-1.252,1.723,1.398,4,4,3.220
1780148316246,0.050,1.178,-0.402,0.522,0.021,-0.052,108.524,-1.513,1.807,1.522,4,4,3.223
1780148316260,0.055,1.207,-0.393,0.564,0.029,-0.043,107.339,-1.859,1.852,1.673,4,4,3.678
1780148316274,0.064,1.230,-0.377,0.613,0.032,-0.036,105.800,-2.491,1.743,1.896,4,4,3.221
1780148316287,0.075,1.246,-0.363,0.672,0.028,-0.031,104.510,-3.327,1.625,2.220,4,4,3.222
1780148316300,0.077,1.253,-0.353,0.740,0.020,-0.030,103.591,-3.476,1.420,2.509,4,4,3.213
1780148316313,0.064,1.235,-0.355,0.806,0.017,-0.033,104.756,-1.906,0.954,2.504,4,4,3.222
1780148316327,0.067,1.167,-0.387,0.860,0.025,-0.052,79.234,-2.299,1.132,2.348,4,4,3.693
1780148316342,0.089,1.140,-0.378,0.872,0.023,-0.064,82.012,-6.372,0.832,1.253,4,4,3.963
1780148316357,0.141,1.089,-0.334,0.840,-0.023,-0.058,73.972,-11.842,1.418,1.212,4,4,4.596
1780148316370,0.163,1.067,-0.291,0.801,-0.092,-0.054,70.961,-14.105,1.081,1.914,4,4,3.237
1780148316384,0.159,1.033,-0.259,0.757,-0.155,-0.057,67.324,-13.562,0.530,1.812,4,4,3.452
1780148316397,0.151,0.999,-0.231,0.704,-0.207,-0.059,64.197,-12.126,0.474,1.708,4,4,3.714
1780148316411,0.138,0.968,-0.207,0.639,-0.246,-0.064,62.217,-8.940,0.452,1.640,4,4,3.235
1780148316424,0.122,0.946,-0.187,0.567,-0.268,-0.068,62.162,-6.001,0.573,1.572,4,4,3.231
1780148316438,0.113,0.930,-0.170,0.490,-0.274,-0.069,62.961,-4.576,0.610,1.579,4,4,3.748
1780148316452,0.116,0.913,-0.159,0.407,-0.270,-0.064,64.670,-5.887,0.582,1.751,4,4,3.221
1780148316465,0.123,0.903,-0.151,0.321,-0.264,-0.052,66.836,-7.496,0.747,1.926,4,4,3.709
1780148316479,0.137,0.900,-0.145,0.236,-0.259,-0.041,69.224,-9.376,0.932,1.982,4,4,3.228
1780148316494,0.154,0.901,-0.143,0.154,-0.261,-0.025,71.736,-11.371,1.077,2.052,4,4,4.857
1780148316507,0.171,0.905,-0.146,0.072,-0.269,-0.006,74.608,-12.950,1.139,2.156,4,4,3.242
1780148316520,0.180,0.911,-0.153,-0.008,-0.280,0.016,77.619,-13.493,1.161,2.235,4,4,3.261
1780148316536,0.178,0.923,-0.164,-0.084,-0.287,0.040,80.586,-12.864,1.249,2.226,5,5,5.793
1780148316550,0.166,0.938,-0.176,-0.157,-0.286,0.067,83.351,-11.256,1.356,2.192,5,5,3.234
1780148316563,0.152,0.956,-0.189,-0.226,-0.274,0.093,85.788,-9.575,1.444,2.176,5,5,3.283
1780148316577,0.144,0.978,-0.202,-0.292,-0.253,0.119,87.984,-8.511,1.528,2.173,5,5,3.928
1780148316591,0.144,1.005,-0.218,-0.352,-0.229,0.147,90.053,-8.177,1.693,2.116,5,5,3.222
1780148316604,0.146,1.028,-0.237,-0.404,-0.207,0.176,92.196,-8.017,1.686,2.037,5,5,3.818
1780148316618,0.146,1.048,-0.256,-0.453,-0.188,0.204,94.293,-7.729,1.620,1.975,5,5,3.238
1780148316633,0.139,1.070,-0.272,-0.496,-0.169,0.227,95.963,-6.970,1.678,1.831,5,5,5.094
1780148316647,0.127,1.091,-0.285,-0.531,-0.152,0.244,97.364,-5.896,1.659,1.648,5,5,3.233
1780148316660,0.114,1.108,-0.299,-0.563,-0.136,0.255,98.735,-4.761,1.610,1.518,5,5,3.220
1780148316674,0.102,1.119,-0.314,-0.596,-0.121,0.262,100.317,-3.693,1.522,1.532,5,5,3.704
1780148316688,0.092,1.126,-0.331,-0.635,-0.108,0.269,102.094,-2.902,1.450,1.716,5,5,3.226
1780148316701,0.087,1.132,-0.349,-0.677,-0.096,0.280,103.784,-2.516,1.471,1.863,5,5,3.242
1780148316714,0.077,1.142,-0.369,-0.715,-0.081,0.292,105.417,-1.819,1.573,1.850,5,5,3.221
1780148316728,0.062,1.151,-0.392,-0.749,-0.059,0.304,107.128,-0.705,1.656,1.800,5,5,3.940
1780148316742,0.043,1.157,-0.419,-0.777,-0.030,0.315,109.119,0.558,1.683,1.781,5,5,3.708
1780148316756,0.026,1.161,-0.448,-0.799,0.004,0.323,111.210,1.634,1.692,1.703,5,5,3.230
1780148316769,0.013,1.164,-0.481,-0.811,0.038,0.327,113.434,2.318,1.729,1.520,5,5,3.283
1780148316783,0.005,1.164,-0.517,-0.812,0.067,0.328,115.821,2.632,1.758,1.238,5,5,3.234
1780148316798,-0.001,1.160,-0.557,-0.801,0.089,0.326,118.390,2.794,1.781,0.876,5,5,3.910
1780148316811,-0.010,1.155,-0.594,-0.779,0.103,0.322,120.787,3.154,1.769,0.558,1,1,3.691
1780148316826,-0.022,1.147,-0.626,-0.746,0.114,0.313,122.928,3.808,1.679,0.401,1,1,4.683
1780148316840,-0.036,1.141,-0.651,-0.705,0.122,0.299,124.563,4.575,1.594,0.506,1,1,3.240
1780148316853,-0.046,1.133,-0.671,-0.658,0.129,0.283,125.891,5.142,1.486,0.660,1,1,3.268
1780148316867,-0.053,1.126,-0.685,-0.608,0.136,0.266,126.819,5.469,1.403,0.781,1,1,3.450
1780148316880,-0.059,1.120,-0.695,-0.556,0.142,0.247,127.420,5.746,1.352,0.875,1,1,3.715
1780148316894,-0.086,1.101,-0.690,-0.498,0.163,0.206,127.680,8.643,1.113,1.504,1,1,3.243
1780148316907,-0.079,1.161,-0.607,-0.450,0.174,0.171,121.635,7.708,2.769,1.185,1,1,3.231
1780148316922,-0.054,1.238,-0.463,-0.364,0.160,0.131,114.574,6.301,3.989,2.087,1,1,3.259
1780148316935,-0.068,1.184,-0.465,-0.300,0.158,0.111,86.664,9.131,0.641,1.426,1,1,3.231
1780148316950,-0.093,1.175,-0.522,-0.213,0.157,0.104,92.719,9.913,2.116,2.042,1,1,3.728
1780148316963,-0.093,1.153,-0.517,-0.161,0.138,0.106,95.565,9.663,0.788,1.261,1,1,3.237
1780148316977,-0.087,1.156,-0.483,-0.115,0.118,0.112,93.848,8.558,1.254,1.170,1,1,3.228
1780148316990,-0.084,1.144,-0.480,-0.076,0.100,0.119,95.837,7.771,0.984,1.058,1,1,3.225
1780148317003,-0.085,1.127,-0.477,-0.054,0.092,0.123,98.032,7.677,0.860,0.574,1,1,3.258
1780148317017,-0.073,1.119,-0.471,-0.044,0.092,0.120,99.151,6.041,1.026,0.258,1,1,3.698
1780148317034,-0.064,1.110,-0.469,-0.032,0.092,0.119,100.706,4.688,1.019,0.305,1,1,6.990
1780148317048,-0.056,1.104,-0.463,-0.025,0.088,0.116,101.421,3.645,1.014,0.160,1,1,3.240
1780148317061,-0.046,1.097,-0.455,-0.022,0.085,0.113,101.985,2.312,1.020,0.062,1,1,3.301
1780148317075,-0.038,1.092,-0.448,-0.022,0.080,0.108,102.426,1.338,1.020,0.042,1,1,3.268
1780148317088,-0.033,1.087,-0.440,-0.024,0.074,0.105,102.615,0.849,1.023,0.130,1,1,3.740
1780148317106,-0.030,1.084,-0.429,-0.023,0.067,0.105,102.486,0.571,1.046,0.145,1,1,3.261
1780148317119,-0.027,1.082,-0.420,-0.019,0.061,0.106,102.366,0.345,1.049,0.186,1,1,3.234
1780148317132,-0.025,1.079,-0.412,-0.012,0.056,0.109,102.552,0.218,1.043,0.248,1,1,3.237
1780148317146,-0.023,1.076,-0.405,-0.006,0.052,0.112,102.679,0.061,1.051,0.278,1,1,3.266
1780148317159,-0.016,1.074,-0.399,0.002,0.048,0.115,102.793,-0.598,1.053,0.284,1,1,3.708
1780148317173,-0.009,1.070,-0.393,0.010,0.045,0.116,102.970,-1.410,1.034,0.251,1,1,3.233
1780148317186,0.001,1.066,-0.387,0.017,0.042,0.114,103.152,-2.346,1.043,0.211,1,1,3.233
1780148317199,0.008,1.063,-0.382,0.023,0.040,0.111,103.348,-3.020,1.043,0.182,1,1,3.239
1780148317213,0.013,1.060,-0.377,0.028,0.037,0.106,103.530,-3.357,1.038,0.169,1,1,3.221
1780148317226,0.017,1.057,-0.372,0.033,0.035,0.102,103.662,-3.527,1.038,0.159,1,1,3.694
1780148317240,0.019,1.055,-0.368,0.037,0.033,0.098,103.864,-3.600,1.035,0.139,1,1,3.268
1780148317253,0.022,1.052,-0.364,0.040,0.031,0.093,104.039,-3.673,1.034,0.114,1,1,3.265
1780148317267,0.025,1.049,-0.361,0.042,0.029,0.089,104.251,-3.833,1.031,0.097,1,1,3.226
1780148317280,0.028,1.046,-0.357,0.043,0.028,0.085,104.423,-4.008,1.025,0.083,1,1,3.231
1780148317293,0.033,1.043,-0.354,0.044,0.025,0.081,104.551,-4.312,1.035,0.089,1,1,3.850
1780148317310,0.037,1.041,-0.351,0.045,0.023,0.075,104.671,-4.605,1.031,0.106,1,1,3.233
1780148317323,0.041,1.038,-0.348,0.046,0.020,0.069,104.842,-4.852,1.019,0.126,1,1,3.228
1780148317336,0.045,1.035,-0.345,0.047,0.017,0.063,105.015,-5.030,1.029,0.141,1,1,3.269
1780148317350,0.048,1.033,-0.343,0.047,0.014,0.055,105.180,-5.158,1.035,0.155,1,1,3.236
1780148317363,0.050,1.031,-0.341,0.048,0.012,0.048,105.262,-5.191,1.036,0.168,1,1,3.685
1780148317379,0.052,1.029,-0.339,0.049,0.008,0.041,105.413,-5.148,1.035,0.181,1,1,5.662
1780148317393,0.052,1.028,-0.337,0.050,0.005,0.034,105.495,-5.004,1.036,0.192,1,1,3.328
1780148317406,0.052,1.026,-0.335,0.053,0.002,0.027,105.555,-4.796,1.038,0.199,1,1,3.233
1780148317424,0.051,1.025,-0.332,0.056,-0.001,0.021,105.593,-4.544,1.037,0.219,1,1,7.387
1780148317437,0.052,1.024,-0.331,0.061,-0.003,0.014,105.648,-4.389,1.049,0.251,2,2,3.686
1780148317451,0.050,1.023,-0.329,0.067,-0.005,0.009,105.751,-4.064,1.048,0.268,2,2,3.237
1780148317464,0.050,1.023,-0.328,0.074,-0.007,0.003,105.832,-3.892,1.060,0.305,2,2,3.223
1780148317477,0.050,1.023,-0.327,0.083,-0.009,-0.003,105.912,-3.754,1.066,0.359,2,2,3.244
1780148317491,0.047,1.023,-0.327,0.094,-0.011,-0.009,105.991,-3.360,1.086,0.413,2,2,3.227
1780148317504,0.046,1.024,-0.327,0.106,-0.012,-0.015,106.158,-3.135,1.079,0.457,3,3,3.672
1780148317518,0.046,1.024,-0.327,0.119,-0.013,-0.024,106.344,-3.092,1.084,0.522,3,3,3.226
1780148317531,0.044,1.025,-0.328,0.133,-0.014,-0.029,106.543,-2.841,1.113,0.522,3,3,3.226
1780148317545,0.044,1.027,-0.330,0.147,-0.014,-0.035,106.781,-2.726,1.131,0.549,3,3,3.232
1780148317559,0.044,1.028,-0.332,0.162,-0.015,-0.041,107.080,-2.710,1.124,0.573,3,3,3.318
1780148317573,0.043,1.030,-0.335,0.176,-0.016,-0.047,107.415,-2.510,1.140,0.590,3,3,3.860
1780148317586,0.041,1.031,-0.338,0.191,-0.016,-0.053,107.762,-2.305,1.126,0.605,3,3,3.237
1780148317600,0.039,1.033,-0.342,0.206,-0.016,-0.057,108.061,-2.042,1.156,0.623,3,3,3.222
1780148317613,0.037,1.038,-0.346,0.221,-0.016,-0.060,108.367,-1.774,1.216,0.622,3,3,3.256
1780148317626,0.036,1.040,-0.349,0.236,-0.017,-0.065,108.600,-1.708,1.179,0.668,3,3,3.220
1780148317640,0.033,1.044,-0.354,0.252,-0.016,-0.070,108.934,-1.361,1.207,0.686,3,3,3.809
1780148317654,0.027,1.049,-0.359,0.267,-0.015,-0.076,109.213,-0.834,1.256,0.705,3,3,3.247
1780148317667,0.015,1.059,-0.363,0.283,-0.011,-0.083,109.283,0.199,1.383,0.742,3,3,3.225
1780148317680,0.016,1.072,-0.369,0.300,-0.007,-0.091,109.347,0.068,1.434,0.797,3,3,3.232
1780148317694,0.018,1.082,-0.374,0.318,-0.004,-0.097,109.462,-0.216,1.395,0.829,3,3,3.215
1780148317707,0.012,1.091,-0.378,0.337,-0.001,-0.103,109.508,0.289,1.390,0.887,3,3,3.680
1780148317721,0.002,1.102,-0.382,0.359,0.005,-0.108,109.436,1.139,1.424,0.959,3,3,3.233
1780148317734,-0.005,1.115,-0.384,0.382,0.014,-0.113,109.259,1.616,1.483,1.049,3,3,3.232
1780148317747,-0.008,1.129,-0.386,0.408,0.023,-0.117,108.987,1.677,1.503,1.141,3,3,3.228
1780148317761,-0.008,1.145,-0.386,0.438,0.032,-0.118,108.591,1.594,1.535,1.241,3,3,3.250
1780148317774,-0.007,1.161,-0.384,0.470,0.040,-0.117,108.035,1.363,1.550,1.345,3,3,3.694
1780148317788,-0.003,1.176,-0.381,0.506,0.046,-0.115,107.415,0.911,1.540,1.443,3,3,3.227
1780148317801,0.005,1.193,-0.361,0.544,0.053,-0.114,105.507,0.212,1.565,1.554,3,3,3.299
1780148317814,0.016,1.207,-0.353,0.586,0.055,-0.110,104.646,-0.723,1.565,1.689,3,3,3.225
1780148317828,0.033,1.219,-0.343,0.638,0.052,-0.107,103.670,-2.060,1.529,1.973,3,3,3.218
1780148317841,0.043,1.234,-0.341,0.706,0.043,-0.103,103.415,-2.746,1.614,2.480,4,4,3.674
1780148317855,0.041,1.241,-0.341,0.772,0.039,-0.102,103.508,-2.510,1.427,2.503,4,4,3.224
1780148317868,0.039,1.207,-0.362,0.837,0.042,-0.094,107.911,-2.248,0.932,2.506,4,4,3.241
1780148317882,0.064,1.162,-0.382,0.881,0.030,-0.101,113.568,-5.365,1.044,2.071,4,4,3.461
1780148317896,0.085,1.133,-0.368,0.892,0.008,-0.100,111.927,-9.349,0.742,1.319,4,4,4.633
1780148317914,0.130,1.103,-0.326,0.860,-0.056,-0.076,104.758,-13.872,1.337,1.812,4,4,8.972
1780148317929,0.130,1.082,-0.289,0.820,-0.119,-0.064,99.612,-13.440,0.830,1.783,4,4,3.250
1780148317943,0.126,1.058,-0.259,0.776,-0.171,-0.053,95.106,-12.529,0.681,1.585,4,4,3.259
1780148317956,0.118,1.028,-0.232,0.722,-0.212,-0.040,90.421,-10.683,0.500,1.471,4,4,3.234
1780148317970,0.106,0.999,-0.209,0.657,-0.237,-0.028,86.703,-7.969,0.505,1.399,4,4,3.240
1780148317983,0.096,0.972,-0.189,0.582,-0.247,-0.016,83.748,-5.612,0.470,1.471,4,4,3.713
1780148317997,0.090,0.948,-0.172,0.499,-0.241,-0.001,81.981,-4.663,0.461,1.711,4,4,3.737
1780148318011,0.096,0.930,-0.158,0.411,-0.229,0.019,81.215,-6.383,0.611,1.954,4,4,3.220
1780148318024,0.103,0.919,-0.146,0.322,-0.219,0.044,81.212,-7.648,0.726,2.116,4,4,3.239
1780148318037,0.111,0.912,-0.137,0.231,-0.209,0.069,81.647,-8.857,0.822,2.246,4,4,3.230
1780148318051,0.121,0.910,-0.131,0.140,-0.205,0.095,82.394,-10.058,0.926,2.359,4,4,3.688
1780148318065,0.129,0.914,-0.127,0.050,-0.208,0.124,83.335,-10.744,1.045,2.446,4,4,3.228
1780148318078,0.131,0.923,-0.128,-0.037,-0.216,0.153,84.661,-10.508,1.157,2.505,4,4,3.258
1780148318091,0.123,0.938,-0.132,-0.121,-0.225,0.183,86.158,-9.259,1.272,2.548,4,4,3.234
1780148318105,0.103,0.953,-0.140,-0.202,-0.230,0.211,87.827,-7.043,1.361,2.521,4,4,3.232
1780148318118,0.076,0.971,-0.149,-0.282,-0.224,0.235,89.410,-4.486,1.510,2.500,5,5,3.709
1780148318132,0.051,0.997,-0.160,-0.358,-0.206,0.256,90.824,-2.462,1.675,2.471,5,5,3.255
1780148318145,0.036,1.029,-0.173,-0.427,-0.181,0.275,92.161,-1.353,1.823,2.394,5,5,3.220
1780148318158,0.029,1.060,-0.192,-0.487,-0.153,0.295,93.738,-0.819,1.837,2.276,5,5,3.251
1780148318172,0.026,1.083,-0.214,-0.545,-0.126,0.309,95.681,-0.608,1.727,2.246,5,5,3.238
1780148318186,0.022,1.105,-0.239,-0.601,-0.097,0.322,97.623,-0.360,1.778,2.234,5,5,5.135
1780148318200,0.018,1.130,-0.264,-0.651,-0.068,0.332,99.343,-0.123,1.867,2.181,5,5,3.238
1780148318214,0.012,1.153,-0.291,-0.696,-0.035,0.340,101.149,0.250,1.881,2.095,5,5,3.235
1780148318227,0.006,1.169,-0.320,-0.737,0.000,0.347,103.138,0.606,1.804,2.076,5,5,3.240
1780148318241,0.001,1.181,-0.349,-0.773,0.037,0.354,105.168,0.853,1.743,2.058,5,5,3.228
1780148318257,-0.002,1.187,-0.377,-0.805,0.071,0.362,107.228,1.029,1.642,1.967,5,5,6.106
1780148318270,-0.013,1.192,-0.412,-0.832,0.101,0.363,109.617,1.663,1.778,1.809,5,5,3.228
1780148318284,-0.019,1.196,-0.453,-0.848,0.126,0.361,112.156,1.999,1.868,1.536,5,5,3.231
1780148318297,-0.024,1.196,-0.500,-0.854,0.146,0.356,114.959,2.154,1.935,1.222,5,5,3.236
1780148318311,-0.030,1.193,-0.548,-0.845,0.160,0.350,117.822,2.389,1.975,0.828,5,5,3.242
1780148318325,-0.042,1.188,-0.595,-0.823,0.169,0.341,120.542,2.987,1.971,0.491,5,5,3.703
1780148318339,-0.057,1.181,-0.637,-0.789,0.177,0.327,123.013,3.813,1.901,0.386,5,5,3.264
1780148318352,-0.071,1.173,-0.671,-0.745,0.184,0.309,125.064,4.637,1.774,0.567,5,5,3.266
1780148318365,-0.081,1.165,-0.696,-0.694,0.190,0.288,126.635,5.214,1.613,0.775,5,5,3.263
1780148318379,-0.085,1.158,-0.714,-0.638,0.195,0.267,127.653,5.370,1.499,0.925,5,5,3.265
1780148318392,-0.098,1.149,-0.719,-0.575,0.204,0.240,128.031,6.417,1.317,1.238,1,1,3.883
1780148318406,-0.092,1.164,-0.676,-0.518,0.205,0.211,123.479,5.658,1.530,1.104,1,1,3.255
1780148318420,-0.053,1.248,-0.545,-0.440,0.193,0.177,116.753,4.012,3.933,1.753,1,1,3.277
1780148318433,-0.076,1.222,-0.513,-0.368,0.192,0.155,112.778,7.452,0.897,1.566,1,1,3.477
1780148318447,-0.083,1.216,-0.531,-0.305,0.194,0.143,114.439,7.682,1.451,1.376,1,1,3.294
1780148318460,-0.092,1.186,-0.566,-0.241,0.193,0.140,118.649,8.001,1.467,1.428,1,1,3.839
1780148318474,-0.093,1.179,-0.543,-0.198,0.186,0.141,116.051,7.850,1.027,0.922,1,1,3.281
1780148318488,-0.087,1.178,-0.515,-0.156,0.179,0.147,113.163,6.940,1.169,0.975,1,1,4.027
1780148318501,-0.083,1.166,-0.505,-0.117,0.168,0.151,112.666,6.206,0.949,0.939,1,1,3.250
1780148318515,-0.075,1.153,-0.500,-0.086,0.163,0.152,112.776,5.086,0.954,0.754,1,1,3.246
1780148318528,-0.067,1.143,-0.496,-0.066,0.158,0.148,112.910,3.916,1.013,0.443,1,1,3.849
1780148318542,-0.059,1.133,-0.492,-0.051,0.151,0.144,112.975,2.978,1.004,0.351,1,1,3.251
1780148318556,-0.051,1.126,-0.484,-0.042,0.145,0.138,112.483,2.016,1.024,0.199,1,1,3.549
1780148318569,-0.042,1.118,-0.476,-0.036,0.138,0.129,111.981,0.952,1.020,0.146,1,1,3.244
1780148318582,-0.034,1.112,-0.467,-0.032,0.130,0.120,111.382,0.192,1.026,0.171,1,1,3.256
1780148318596,-0.031,1.106,-0.460,-0.029,0.122,0.111,110.972,-0.055,1.008,0.146,1,1,3.846
1780148318610,-0.031,1.101,-0.451,-0.026,0.114,0.106,110.399,0.068,1.031,0.104,1,1,3.299
1780148318623,-0.030,1.098,-0.442,-0.023,0.107,0.102,109.748,0.162,1.051,0.109,1,1,3.278
1780148318637,-0.029,1.094,-0.433,-0.018,0.100,0.101,109.113,0.168,1.044,0.142,1,1,3.255
1780148318651,-0.027,1.090,-0.426,-0.012,0.094,0.100,108.746,0.126,1.031,0.177,1,1,4.208
1780148318664,-0.024,1.085,-0.420,-0.007,0.088,0.101,108.496,-0.105,1.028,0.184,1,1,3.884
1780148318678,-0.020,1.081,-0.414,-0.001,0.083,0.100,108.208,-0.545,1.039,0.166,1,1,3.253
1780148318692,-0.014,1.077,-0.408,0.003,0.078,0.098,107.944,-1.012,1.032,0.141,1,1,3.428
1780148318707,-0.009,1.074,-0.402,0.007,0.073,0.096,107.687,-1.451,1.044,0.116,1,1,5.017
1780148318720,-0.005,1.071,-0.396,0.010,0.069,0.092,107.464,-1.785,1.037,0.111,1,1,3.248
1780148318738,-0.002,1.068,-0.391,0.013,0.065,0.087,107.276,-1.939,1.036,0.106,1,1,3.850
1780148318753,-0.001,1.064,-0.386,0.016,0.061,0.084,107.114,-1.818,1.033,0.096,1,1,3.284
1780148318767,-0.001,1.061,-0.381,0.018,0.057,0.081,106.970,-1.692,1.024,0.090,1,1,3.285
1780148318780,0.000,1.058,-0.377,0.021,0.054,0.079,106.851,-1.665,1.029,0.096,1,1,3.245
1780148318793,0.003,1.055,-0.373,0.023,0.051,0.078,106.777,-1.873,1.028,0.090,1,1,3.257
1780148318807,0.007,1.051,-0.369,0.025,0.047,0.075,106.747,-2.185,1.027,0.085,1,1,3.943
1780148318821,0.010,1.048,-0.365,0.027,0.044,0.071,106.706,-2.357,1.025,0.090,1,1,3.279
1780148318834,0.010,1.046,-0.362,0.029,0.041,0.068,106.646,-2.250,1.030,0.091,1,1,3.250
1780148318852,0.010,1.044,-0.358,0.032,0.039,0.066,106.527,-2.017,1.038,0.112,1,1,8.182
1780148318866,0.010,1.042,-0.355,0.035,0.037,0.065,106.531,-1.952,1.049,0.126,1,1,3.242
1780148318879,0.012,1.040,-0.353,0.039,0.035,0.064,106.544,-2.059,1.048,0.141,1,1,3.843
1780148318893,0.014,1.039,-0.351,0.043,0.033,0.062,106.610,-2.132,1.046,0.153,1,1,3.252
1780148318906,0.016,1.037,-0.349,0.048,0.032,0.060,106.602,-2.166,1.053,0.169,1,1,3.256
1780148318920,0.017,1.036,-0.347,0.053,0.030,0.058,106.614,-2.265,1.048,0.196,1,1,3.261
1780148318933,0.018,1.034,-0.345,0.059,0.029,0.056,106.603,-2.230,1.051,0.226,1,1,3.254
1780148318946,0.020,1.033,-0.343,0.067,0.027,0.053,106.652,-2.308,1.060,0.264,1,1,3.899
1780148318962,0.022,1.032,-0.342,0.076,0.026,0.050,106.737,-2.414,1.061,0.308,1,1,3.313
1780148318975,0.023,1.032,-0.341,0.086,0.025,0.044,106.793,-2.492,1.068,0.359,1,1,3.280
1780148318988,0.025,1.032,-0.341,0.097,0.024,0.039,106.909,-2.564,1.087,0.400,1,1,3.284
1780148319002,0.027,1.031,-0.341,0.109,0.022,0.033,107.091,-2.622,1.070,0.444,1,1,3.268
1780148319016,0.027,1.031,-0.342,0.122,0.021,0.026,107.342,-2.506,1.098,0.486,3,3,3.979
1780148319030,0.026,1.031,-0.344,0.136,0.020,0.018,107.582,-2.384,1.108,0.513,3,3,3.261
1780148319043,0.025,1.032,-0.346,0.149,0.019,0.011,107.880,-2.177,1.111,0.535,3,3,3.520
1780148319057,0.025,1.033,-0.349,0.163,0.019,0.004,108.166,-2.046,1.135,0.548,3,3,3.255
1780148319072,0.025,1.034,-0.351,0.177,0.019,-0.003,108.470,-1.944,1.141,0.568,3,3,4.877
1780148319085,0.024,1.035,-0.354,0.190,0.019,-0.010,108.801,-1.789,1.120,0.570,3,3,3.801
1780148319099,0.024,1.035,-0.358,0.204,0.018,-0.016,109.201,-1.693,1.137,0.580,3,3,3.264
1780148319112,0.023,1.039,-0.362,0.217,0.018,-0.023,109.458,-1.536,1.216,0.593,3,3,3.296
1780148319127,0.024,1.032,-0.366,0.230,0.017,-0.027,110.134,-1.740,0.974,0.595,3,3,3.350
1780148319140,0.025,1.034,-0.370,0.244,0.015,-0.032,110.468,-1.715,1.184,0.619,3,3,3.249
1780148319154,0.025,1.037,-0.375,0.258,0.013,-0.037,110.731,-1.696,1.209,0.638,3,3,3.833
1780148319168,0.024,1.041,-0.380,0.272,0.011,-0.041,110.969,-1.526,1.230,0.660,3,3,3.362
1780148319181,0.021,1.046,-0.385,0.287,0.010,-0.045,111.199,-1.202,1.252,0.693,3,3,3.234
1780148319194,0.014,1.054,-0.389,0.303,0.010,-0.049,111.216,-0.542,1.315,0.735,3,3,3.234
1780148319208,0.003,1.067,-0.394,0.320,0.012,-0.056,111.122,0.406,1.456,0.802,3,3,3.269
1780148319221,0.006,1.080,-0.399,0.339,0.015,-0.063,111.056,0.083,1.479,0.874,3,3,3.794
1780148319235,0.009,1.093,-0.404,0.360,0.016,-0.068,110.975,-0.133,1.453,0.942,3,3,3.492
1780148319248,0.003,1.105,-0.406,0.384,0.018,-0.071,110.749,0.293,1.452,1.017,3,3,3.253
1780148319262,-0.006,1.120,-0.407,0.411,0.023,-0.073,110.332,1.028,1.528,1.111,3,3,3.306
1780148319275,-0.010,1.138,-0.406,0.440,0.030,-0.074,109.753,1.300,1.588,1.225,3,3,3.273
1780148319288,-0.008,1.158,-0.404,0.473,0.037,-0.073,109.096,1.052,1.621,1.346,3,3,3.895
1780148319303,-0.002,1.178,-0.399,0.509,0.041,-0.069,108.225,0.504,1.657,1.464,3,3,3.709
1780148319316,0.004,1.199,-0.389,0.549,0.042,-0.062,107.077,0.014,1.671,1.592,3,3,3.290
1780148319330,0.017,1.218,-0.378,0.596,0.040,-0.054,105.879,-0.995,1.663,1.806,3,3,3.274
1780148319343,0.032,1.234,-0.370,0.654,0.031,-0.048,105.022,-2.140,1.631,2.189,3,3,3.254
1780148319356,0.034,1.244,-0.363,0.723,0.021,-0.045,104.415,-2.193,1.492,2.512,4,4,3.833
1780148319370,0.023,1.232,-0.372,0.789,0.021,-0.038,105.926,-0.872,1.139,2.505,4,4,3.271
1780148319384,0.030,1.176,-0.399,0.852,0.021,-0.030,78.987,-1.864,1.009,2.508,4,4,3.272
1780148319397,0.060,1.144,-0.403,0.881,0.002,-0.037,84.696,-6.161,0.973,1.718,4,4,3.244
1780148319410,0.092,1.110,-0.375,0.883,-0.034,-0.029,81.926,-11.294,0.902,1.345,4,4,3.292
1780148319424,0.141,1.078,-0.330,0.852,-0.111,-0.008,77.079,-15.791,1.430,2.191,4,4,3.839
1780148319438,0.142,1.055,-0.291,0.814,-0.184,0.001,73.926,-15.375,0.819,2.097,4,4,3.261
1780148319451,0.136,1.023,-0.257,0.766,-0.249,0.011,70.134,-13.953,0.587,2.009,4,4,3.241
1780148319464,0.128,0.992,-0.226,0.707,-0.301,0.020,66.728,-12.076,0.536,1.855,4,4,3.249
1780148319478,0.113,0.963,-0.199,0.638,-0.336,0.028,64.238,-8.887,0.546,1.725,4,4,3.274
1780148319491,0.100,0.939,-0.176,0.561,-0.353,0.038,63.037,-6.164,0.560,1.664,4,4,4.084
1780148319506,0.097,0.918,-0.158,0.478,-0.352,0.054,63.002,-5.876,0.510,1.787,4,4,3.405
1780148319519,0.102,0.902,-0.143,0.391,-0.345,0.078,63.825,-7.205,0.629,1.993,4,4,3.258
1780148319532,0.107,0.889,-0.130,0.303,-0.336,0.106,64.916,-8.415,0.668,2.154,4,4,3.249
1780148319546,0.116,0.882,-0.120,0.211,-0.328,0.135,66.496,-9.690,0.800,2.363,4,4,3.249
1780148319559,0.128,0.880,-0.113,0.117,-0.327,0.166,68.528,-11.220,0.912,2.527,4,4,3.815
1780148319573,0.137,0.884,-0.111,0.024,-0.333,0.197,70.960,-11.964,1.042,2.638,4,4,3.255
1780148319586,0.140,0.897,-0.117,-0.067,-0.343,0.229,73.908,-11.721,1.216,2.729,4,4,3.246
1780148319600,0.130,0.916,-0.131,-0.154,-0.354,0.262,77.171,-10.304,1.416,2.713,4,4,3.252
1780148319613,0.107,0.941,-0.154,-0.234,-0.354,0.292,80.632,-7.949,1.656,2.575,4,4,3.331
1780148319626,0.075,0.967,-0.179,-0.306,-0.338,0.319,83.932,-5.289,1.825,2.413,5,5,3.794
1780148319640,0.048,0.998,-0.205,-0.371,-0.300,0.343,86.863,-3.215,1.913,2.376,5,5,3.248
1780148319654,0.029,1.027,-0.232,-0.429,-0.250,0.368,89.678,-1.809,1.907,2.419,5,5,3.266
1780148319667,0.019,1.047,-0.262,-0.483,-0.194,0.391,92.736,-1.048,1.759,2.472,5,5,3.248
1780148319680,0.015,1.066,-0.291,-0.533,-0.139,0.409,95.525,-0.730,1.749,2.425,5,5,3.269
1780148319694,0.010,1.087,-0.317,-0.576,-0.089,0.425,97.825,-0.334,1.786,2.234,5,5,3.839
1780148319708,0.004,1.108,-0.340,-0.611,-0.046,0.435,99.790,0.123,1.774,1.974,5,5,3.271
1780148319721,0.000,1.127,-0.360,-0.638,-0.009,0.440,101.468,0.346,1.731,1.734,5,5,3.250
1780148319734,0.003,1.139,-0.379,-0.660,0.018,0.444,103.136,0.054,1.606,1.553,5,5,3.259
1780148319748,0.011,1.145,-0.396,-0.682,0.037,0.448,104.866,-0.615,1.513,1.466,5,5,3.261
1780148319761,0.023,1.148,-0.413,-0.705,0.047,0.454,106.593,-1.559,1.469,1.454,5,5,3.876
1780148319775,0.037,1.151,-0.435,-0.730,0.049,0.458,108.506,-2.663,1.564,1.503,5,5,3.262
1780148319788,0.037,1.152,-0.451,-0.747,0.047,0.462,109.994,-2.544,1.428,1.317,5,5,3.263
1780148319802,0.028,1.154,-0.466,-0.760,0.045,0.463,111.268,-1.696,1.444,1.190,5,5,3.252
1780148319815,0.017,1.155,-0.480,-0.767,0.045,0.462,112.450,-0.608,1.424,1.041,5,5,3.715
1780148319829,0.004,1.153,-0.492,-0.769,0.050,0.457,113.648,0.561,1.371,0.909,5,5,3.895
1780148319843,-0.007,1.150,-0.503,-0.766,0.058,0.450,114.675,1.488,1.335,0.788,5,5,3.259
1780148319856,-0.016,1.145,-0.514,-0.758,0.069,0.442,115.705,2.260,1.297,0.687,5,5,3.237
1780148319870,-0.026,1.139,-0.523,-0.745,0.084,0.431,116.652,3.130,1.267,0.640,5,5,3.265
1780148319883,-0.036,1.133,-0.531,-0.727,0.103,0.418,117.485,3.909,1.246,0.660,5,5,3.250
1780148319896,-0.041,1.125,-0.538,-0.705,0.125,0.401,118.210,4.198,1.196,0.723,1,1,3.788
1780148319910,-0.040,1.119,-0.542,-0.678,0.149,0.383,118.697,3.913,1.167,0.757,1,1,3.242
1780148319924,-0.035,1.112,-0.547,-0.648,0.170,0.364,119.247,3.175,1.156,0.738,1,1,3.295
1780148319937,-0.025,1.108,-0.552,-0.616,0.185,0.344,119.556,2.005,1.235,0.650,1,1,3.258
1780148319950,-0.012,1.103,-0.560,-0.579,0.192,0.326,120.253,0.655,1.272,0.547,1,1,3.244
1780148319964,0.001,1.099,-0.569,-0.538,0.189,0.307,120.881,-0.552,1.299,0.571,1,1,3.825
1780148319978,0.012,1.093,-0.577,-0.493,0.175,0.288,121.603,-1.691,1.239,0.727,1,1,3.284
1780148319991,0.022,1.085,-0.580,-0.446,0.154,0.269,121.924,-2.695,1.145,0.906,1,1,3.249
1780148320004,0.003,1.058,-0.567,-0.395,0.155,0.214,121.957,1.154,0.688,1.523,1,1,3.273
1780148320018,-0.028,1.118,-0.480,-0.356,0.151,0.168,116.032,2.395,2.905,1.227,1,1,4.035
1780148320032,-0.031,1.193,-0.368,-0.278,0.169,0.137,110.088,2.301,3.527,1.985,1,1,3.874
1780148320046,-0.042,1.169,-0.390,-0.198,0.185,0.117,113.266,3.530,1.127,1.996,1,1,3.252
1780148320059,-0.060,1.149,-0.446,-0.105,0.196,0.114,117.397,4.498,1.876,2.369,1,1,3.247
1780148320073,-0.068,1.123,-0.432,-0.053,0.178,0.112,116.115,6.277,0.625,1.330,1,1,3.287
1780148320086,-0.046,1.129,-0.420,-0.009,0.167,0.118,114.224,3.883,1.336,1.167,1,1,3.254
1780148320100,-0.039,1.099,-0.440,-0.009,0.151,0.107,117.973,2.802,1.007,0.331,1,1,4.721
1780148320114,-0.031,1.100,-0.428,-0.013,0.143,0.097,116.112,1.875,1.129,0.197,1,1,3.244
1780148320127,-0.022,1.092,-0.424,-0.014,0.133,0.089,115.544,0.709,1.004,0.170,1,1,3.308
1780148320141,-0.013,1.085,-0.419,-0.021,0.119,0.083,114.810,-0.302,0.999,0.331,1,1,3.255
1780148320154,-0.001,1.082,-0.410,-0.023,0.104,0.075,113.616,-1.692,1.062,0.325,1,1,3.251
1780148320168,0.005,1.078,-0.402,-0.022,0.091,0.066,112.539,-2.191,1.039,0.301,1,1,4.313
1780148320182,0.003,1.074,-0.394,-0.017,0.079,0.059,111.662,-1.755,1.011,0.270,1,1,3.256
1780148320195,-0.001,1.072,-0.387,-0.012,0.070,0.055,110.776,-1.123,1.041,0.225,1,1,3.296
1780148320209,-0.006,1.070,-0.379,-0.005,0.062,0.054,109.826,-0.458,1.055,0.232,1,1,3.252
1780148320223,-0.007,1.067,-0.371,0.003,0.055,0.053,109.063,-0.267,1.037,0.230,1,1,3.641
1780148320236,-0.001,1.064,-0.365,0.010,0.050,0.052,108.503,-0.863,1.034,0.202,1,1,4.184
1780148320250,0.006,1.061,-0.360,0.015,0.046,0.048,108.113,-1.723,1.032,0.167,1,1,3.241
1780148320264,0.011,1.058,-0.355,0.018,0.042,0.043,107.733,-2.164,1.018,0.163,1,1,3.247
1780148320279,0.013,1.055,-0.350,0.022,0.038,0.037,107.281,-2.247,1.025,0.176,1,1,4.976
1780148320292,0.011,1.053,-0.344,0.026,0.035,0.031,106.785,-1.875,1.025,0.180,1,1,3.271
1780148320305,0.010,1.050,-0.340,0.029,0.032,0.026,106.511,-1.567,1.021,0.164,1,1,3.806
1780148320319,0.011,1.046,-0.336,0.032,0.030,0.022,106.332,-1.624,0.996,0.133,1,1,3.252
1780148320333,0.013,1.043,-0.333,0.033,0.028,0.018,106.281,-1.756,1.008,0.104,1,1,4.184
1780148320347,0.014,1.040,-0.330,0.033,0.026,0.014,106.095,-1.838,1.024,0.087,1,1,3.272
1780148320360,0.014,1.038,-0.326,0.032,0.025,0.011,105.865,-1.667,1.021,0.074,1,1,3.250
1780148320374,0.013,1.036,-0.322,0.032,0.023,0.009,105.664,-1.488,1.017,0.058,1,1,3.836
1780148320388,0.011,1.034,-0.319,0.031,0.022,0.007,105.477,-1.234,1.018,0.035,1,1,3.283
1780148320401,0.011,1.032,-0.315,0.031,0.021,0.007,105.346,-1.157,1.012,0.021,1,1,3.280
1780148320415,0.011,1.031,-0.312,0.030,0.020,0.006,105.194,-1.122,1.032,0.018,1,1,3.243
1780148320431,0.011,1.029,-0.309,0.029,0.019,0.005,105.080,-1.086,1.022,0.023,1,1,5.992
1780148320444,0.011,1.028,-0.307,0.029,0.018,0.005,104.957,-0.941,1.035,0.031,1,1,3.843
1780148320458,0.009,1.027,-0.303,0.030,0.018,0.004,104.752,-0.769,1.032,0.052,1,1,3.242
1780148320471,0.006,1.027,-0.300,0.032,0.018,0.005,104.495,-0.383,1.048,0.095,1,1,3.260
1780148320485,0.002,1.027,-0.297,0.036,0.019,0.008,104.322,0.112,1.054,0.157,1,1,3.255
1780148320498,-0.001,1.026,-0.294,0.040,0.021,0.012,104.206,0.425,1.052,0.204,1,1,3.253
1780148320512,0.000,1.026,-0.292,0.046,0.023,0.015,104.109,0.266,1.042,0.244,1,1,3.827
1780148320526,0.001,1.025,-0.290,0.053,0.025,0.019,104.124,0.182,1.037,0.271,1,1,3.295
1780148320539,0.001,1.024,-0.289,0.060,0.028,0.022,104.237,0.151,1.036,0.284,1,1,3.258
1780148320553,0.001,1.022,-0.289,0.067,0.031,0.025,104.437,0.109,1.030,0.278,1,1,3.809
1780148320566,0.004,1.021,-0.288,0.073,0.034,0.027,104.508,-0.291,1.030,0.267,1,1,3.268
1780148320580,0.003,1.020,-0.289,0.078,0.038,0.030,104.667,-0.184,1.044,0.285,3,3,3.841
1780148320595,0.008,1.020,-0.288,0.084,0.043,0.031,104.712,-0.710,1.051,0.284,3,3,5.075
1780148320609,0.012,1.019,-0.288,0.089,0.047,0.033,104.879,-1.162,1.056,0.287,3,3,3.254
1780148320622,0.015,1.018,-0.288,0.094,0.050,0.035,105.029,-1.545,1.038,0.282,3,3,3.291
1780148320636,0.018,1.017,-0.289,0.099,0.053,0.036,105.192,-1.828,1.040,0.262,3,3,3.255
1780148320649,0.021,1.016,-0.290,0.102,0.057,0.037,105.414,-2.026,1.059,0.247,4,4,3.832
1780148320663,0.027,1.016,-0.292,0.104,0.060,0.035,105.626,-2.713,1.073,0.206,4,4,3.804
1780148320677,0.033,1.018,-0.294,0.104,0.063,0.030,105.827,-3.182,1.116,0.202,4,4,3.254
1780148320690,0.041,1.017,-0.294,0.102,0.066,0.022,105.971,-4.054,1.082,0.244,4,4,3.250
1780148320704,0.049,1.012,-0.296,0.099,0.067,0.011,106.378,-4.824,0.986,0.278,4,4,3.264
1780148320717,0.053,1.006,-0.298,0.096,0.066,0.000,106.834,-5.238,0.931,0.287,4,4,3.854
1780148320731,0.054,0.999,-0.300,0.094,0.063,-0.012,107.330,-5.226,0.925,0.319,4,4,3.261
1780148320744,0.052,0.994,-0.302,0.092,0.059,-0.023,107.780,-4.759,0.952,0.331,4,4,3.252
1780148320758,0.049,0.990,-0.305,0.089,0.055,-0.035,108.140,-4.173,0.986,0.337,4,4,3.849
1780148320772,0.044,0.988,-0.308,0.086,0.051,-0.046,108.511,-3.423,1.007,0.338,4,4,3.270
1780148320785,0.038,0.986,-0.311,0.083,0.047,-0.056,108.765,-2.634,1.013,0.317,4,4,3.808
1780148320799,0.034,0.986,-0.312,0.079,0.042,-0.064,108.832,-2.128,1.047,0.305,4,4,3.275
1780148320812,0.031,0.987,-0.313,0.076,0.037,-0.072,108.696,-1.711,1.073,0.290,4,4,3.241
1780148320826,0.026,0.990,-0.310,0.073,0.032,-0.079,108.267,-1.141,1.075,0.269,4,4,3.244
1780148320839,0.020,0.992,-0.308,0.071,0.028,-0.084,107.820,-0.476,1.079,0.232,4,4,3.244
1780148320852,0.014,0.994,-0.307,0.069,0.025,-0.087,107.559,0.182,1.073,0.189,4,4,3.837
1780148320866,0.008,0.994,-0.305,0.067,0.022,-0.089,107.395,0.767,1.041,0.147,4,4,3.260
1780148320880,0.003,0.993,-0.306,0.065,0.020,-0.090,107.438,1.265,1.023,0.113,4,4,3.255
1780148320893,-0.000,0.991,-0.307,0.063,0.017,-0.090,107.586,1.542,1.020,0.096,4,4,3.275
1780148320906,-0.004,0.990,-0.307,0.060,0.015,-0.089,107.604,1.849,1.017,0.080,4,4,3.264
1780148320920,-0.007,0.989,-0.308,0.057,0.013,-0.088,107.708,2.093,1.010,0.060,4,4,3.879
1780148320934,-0.010,0.987,-0.309,0.054,0.012,-0.085,107.869,2.289,1.010,0.051,4,4,3.262
1780148320947,-0.013,0.987,-0.309,0.051,0.010,-0.083,107.878,2.471,1.037,0.043,4,4,3.260
1780148320960,-0.015,0.987,-0.309,0.049,0.009,-0.080,107.831,2.515,1.046,0.031,4,4,3.263
1780148320974,-0.017,0.988,-0.309,0.046,0.008,-0.077,107.752,2.611,1.054,0.018,4,4,3.242
1780148320987,-0.019,0.989,-0.310,0.044,0.008,-0.074,107.734,2.712,1.055,0.005,1,1,3.839
1780148321001,-0.020,0.988,-0.311,0.043,0.008,-0.072,107.863,2.656,1.038,0.012,1,1,3.244
1780148321014,-0.021,0.988,-0.311,0.042,0.007,-0.070,107.889,2.621,1.036,0.020,1,1,3.245
1780148321028,-0.022,0.987,-0.312,0.041,0.007,-0.068,107.906,2.616,1.024,0.033,1,1,3.271
1780148321041,-0.024,0.987,-0.312,0.040,0.006,-0.067,107.969,2.762,1.034,0.030,1,1,3.251
1780148321058,-0.025,0.987,-0.313,0.039,0.005,-0.065,107.994,2.773,1.041,0.034,1,1,4.118
1780148321072,-0.026,0.987,-0.314,0.039,0.005,-0.064,108.056,2.709,1.032,0.048,1,1,3.281
1780148321085,-0.027,0.986,-0.314,0.038,0.004,-0.063,108.018,2.707,1.027,0.056,1,1,3.275
1780148321099,-0.030,0.986,-0.314,0.038,0.003,-0.062,108.012,2.917,1.024,0.046,1,1,3.262
1780148321112,-0.035,0.985,-0.313,0.036,0.000,-0.058,107.910,3.415,1.034,0.066,1,1,3.256
1780148321125,-0.041,0.987,-0.311,0.033,-0.001,-0.051,107.621,4.040,1.076,0.154,2,2,3.939
1780148321140,-0.048,0.988,-0.310,0.029,-0.001,-0.040,107.413,4.703,1.065,0.240,2,2,3.427
1780148321153,-0.058,0.990,-0.309,0.026,0.001,-0.026,107.213,5.555,1.097,0.346,2,2,3.281
1780148321166,-0.060,0.991,-0.308,0.024,0.005,-0.012,107.161,5.559,1.065,0.378,2,2,3.245
1780148321180,-0.056,0.991,-0.310,0.023,0.008,0.001,107.318,4.848,1.052,0.343,2,2,3.247
1780148321193,-0.049,0.991,-0.312,0.021,0.012,0.011,107.546,3.857,1.063,0.296,1,1,3.830
1780148321207,-0.038,0.992,-0.312,0.019,0.015,0.017,107.582,2.552,1.068,0.202,1,1,3.233
1780148321220,-0.026,0.992,-0.313,0.015,0.018,0.018,107.598,1.082,1.072,0.127,1,1,3.241
1780148321233,-0.015,0.989,-0.313,0.010,0.019,0.016,107.701,-0.322,1.011,0.152,1,1,3.249
1780148321247,-0.009,0.985,-0.314,0.002,0.020,0.011,108.030,-0.904,0.969,0.212,1,1,3.299
1780148321260,-0.007,0.981,-0.316,-0.006,0.021,0.006,108.385,-1.029,0.969,0.269,4,4,4.026
1780148321274,-0.008,0.978,-0.317,-0.017,0.022,0.002,108.606,-0.775,0.978,0.303,4,4,3.252
1780148321288,-0.009,0.979,-0.318,-0.028,0.022,-0.001,108.631,-0.589,1.047,0.327,4,4,3.242
1780148321301,-0.000,0.979,-0.316,-0.039,0.014,0.000,108.272,-1.541,1.021,0.390,4,4,3.278
1780148321314,0.007,0.981,-0.319,-0.051,0.004,0.001,108.518,-2.217,1.114,0.435,4,4,3.243
1780148321328,0.023,0.979,-0.324,-0.062,-0.017,0.004,109.091,-3.904,1.110,0.662,3,3,3.852
1780148321342,0.046,0.980,-0.327,-0.073,-0.052,0.014,109.284,-6.038,1.197,1.069,3,3,3.252
1780148321355,0.087,0.983,-0.326,-0.080,-0.109,0.035,108.999,-9.476,1.479,1.710,3,3,3.254
1780148321368,0.149,0.989,-0.337,-0.087,-0.198,0.066,109.860,-13.350,1.961,2.661,3,3,3.244
1780148321382,0.206,0.994,-0.364,-0.090,-0.283,0.099,111.800,-16.340,2.043,2.685,3,3,3.251
1780148321395,0.238,0.999,-0.389,-0.086,-0.365,0.130,113.594,-17.918,1.722,2.668,4,4,3.824
1780148321409,0.244,1.003,-0.406,-0.074,-0.445,0.155,114.709,-17.733,1.394,2.643,4,4,3.246
1780148321422,0.238,1.010,-0.419,-0.051,-0.521,0.172,115.313,-16.440,1.380,2.630,4,4,3.250
1780148321436,0.226,1.014,-0.431,-0.022,-0.594,0.186,115.992,-14.718,1.305,2.661,4,4,3.247
1780148321449,0.213,1.019,-0.441,0.012,-0.665,0.195,116.370,-13.082,1.284,2.693,4,4,3.255
1780148321462,0.198,1.025,-0.449,0.051,-0.733,0.200,116.602,-11.317,1.325,2.736,4,4,3.805
1780148321476,0.186,1.032,-0.454,0.094,-0.799,0.200,116.454,-9.878,1.315,2.793,4,4,3.246
1780148321490,0.182,1.039,-0.450,0.141,-0.862,0.197,115.503,-9.365,1.264,2.841,4,4,3.262
1780148321503,0.189,1.046,-0.435,0.187,-0.923,0.195,113.595,-9.940,1.242,2.859,4,4,3.248
1780148321516,0.207,1.048,-0.410,0.229,-0.981,0.196,110.712,-11.794,1.250,2.839,4,4,3.263
1780148321530,0.235,1.046,-0.378,0.265,-1.038,0.201,107.084,-14.365,1.359,2.800,4,4,3.805
1780148321544,0.265,1.039,-0.340,0.295,-1.092,0.210,102.690,-17.028,1.371,2.755,4,4,3.248
1780148321558,0.296,1.035,-0.297,0.318,-1.144,0.224,98.175,-19.165,1.503,2.721,4,4,3.990
1780148321571,0.317,1.029,-0.246,0.334,-1.195,0.244,93.198,-20.410,1.469,2.723,4,4,3.239
1780148321584,0.325,1.015,-0.189,0.337,-1.222,0.271,87.539,-20.521,1.355,2.203,4,4,3.261
1780148321598,0.346,0.996,-0.105,0.314,-1.214,0.313,80.964,-20.824,2.004,1.755,4,4,3.880
1780148321612,0.364,0.987,-0.016,0.280,-1.201,0.356,75.437,-20.752,2.226,1.815,4,4,3.252
1780148321626,0.348,0.997,-0.013,0.242,-1.215,0.394,76.612,-18.769,1.213,2.207,4,4,4.038
1780148321639,0.278,1.015,-0.078,0.205,-1.211,0.376,82.325,-13.966,2.400,1.345,4,4,3.248
1780148321653,0.140,1.072,-0.111,0.182,-1.171,0.382,84.950,-7.929,3.784,0.698,4,4,3.266
1780148321666,0.056,1.109,-0.098,0.168,-1.123,0.412,84.941,-3.110,2.620,1.206,4,4,3.846
1780148321680,0.091,1.133,-0.099,0.163,-1.066,0.441,85.763,-5.396,1.871,1.282,4,4,3.249
1780148321696,0.127,1.135,-0.105,0.160,-1.016,0.443,87.250,-8.410,1.504,0.574,4,4,5.907
1780148321709,0.130,1.124,-0.122,0.157,-0.969,0.443,90.374,-8.657,1.039,0.498,4,4,3.246
1780148321724,0.134,1.114,-0.136,0.153,-0.927,0.440,92.736,-9.066,1.028,0.412,4,4,4.160
1780148321737,0.136,1.104,-0.149,0.146,-0.889,0.436,95.016,-9.139,1.009,0.332,1,1,3.832
1780148321752,0.139,1.097,-0.160,0.138,-0.852,0.427,96.750,-9.349,1.033,0.256,1,1,3.540
1780148321765,0.137,1.093,-0.167,0.128,-0.817,0.416,97.781,-8.998,1.074,0.204,1,1,3.320
1780148321779,0.128,1.089,-0.175,0.119,-0.783,0.408,98.812,-7.812,1.065,0.252,1,1,3.262
1780148321792,0.124,1.082,-0.186,0.108,-0.749,0.401,100.326,-7.244,1.003,0.309,1,1,3.270
1780148321805,0.128,1.075,-0.195,0.095,-0.716,0.392,101.539,-7.694,1.022,0.321,1,1,3.896
1780148321819,0.135,1.070,-0.201,0.079,-0.685,0.380,102.294,-8.428,1.062,0.342,1,1,3.265
1780148321834,0.136,1.066,-0.207,0.064,-0.654,0.367,102.921,-8.410,1.053,0.367,1,1,3.279
1780148321847,0.128,1.064,-0.211,0.051,-0.623,0.358,103.225,-7.481,1.061,0.372,1,1,3.248
1780148321860,0.123,1.061,-0.214,0.039,-0.594,0.349,103.532,-6.819,1.036,0.330,1,1,3.247
1780148321874,0.120,1.058,-0.217,0.028,-0.568,0.343,103.719,-6.365,1.035,0.328,1,1,3.802
1780148321888,0.118,1.055,-0.222,0.019,-0.543,0.337,104.113,-6.166,1.036,0.320,1,1,3.242
1780148321901,0.117,1.051,-0.225,0.009,-0.519,0.331,104.403,-6.183,1.027,0.302,1,1,3.235
1780148321914,0.118,1.049,-0.228,0.001,-0.497,0.325,104.560,-6.284,1.039,0.291,1,1,3.256
1780148321928,0.120,1.046,-0.230,-0.007,-0.476,0.319,104.722,-6.494,1.037,0.286,1,1,3.249
1780148321941,0.120,1.043,-0.232,-0.015,-0.456,0.314,104.818,-6.518,1.034,0.289,1,1,3.786
1780148321955,0.107,1.038,-0.235,-0.022,-0.436,0.309,105.094,-4.986,0.970,0.284,1,1,3.336
1780148321968,0.103,1.034,-0.238,-0.030,-0.417,0.303,105.312,-4.580,1.005,0.284,1,1,3.253
1780148321982,0.099,1.032,-0.240,-0.036,-0.395,0.301,105.437,-4.234,1.030,0.363,1,1,3.245
1780148321995,0.101,1.033,-0.241,-0.042,-0.375,0.298,105.286,-4.485,1.094,0.334,1,1,3.251
1780148322008,0.099,1.032,-0.242,-0.048,-0.354,0.294,105.175,-4.387,1.047,0.319,1,1,3.948
1780148322022,0.103,1.031,-0.242,-0.052,-0.332,0.290,105.077,-4.951,1.057,0.351,1,1,3.275
1780148322036,0.106,1.031,-0.242,-0.055,-0.312,0.283,104.894,-5.382,1.080,0.275,1,1,3.245
1780148322049,0.116,1.030,-0.242,-0.056,-0.298,0.276,104.737,-6.543,1.074,0.123,1,1,3.255
1780148322063,0.128,1.028,-0.242,-0.055,-0.291,0.272,104.673,-7.986,1.087,0.190,1,1,3.260
1780148322076,0.150,1.024,-0.242,-0.053,-0.296,0.264,104.627,-10.313,1.158,0.439,1,1,3.854
1780148322090,0.189,1.022,-0.240,-0.052,-0.326,0.252,104.290,-13.757,1.425,1.111,1,1,3.258
1780148322106,0.271,1.016,-0.242,-0.053,-0.407,0.255,104.691,-18.677,2.286,2.524,1,1,5.219
1780148322120,0.356,1.012,-0.240,-0.059,-0.485,0.267,104.455,-23.269,2.394,2.579,1,1,3.843
1780148322133,0.424,1.021,-0.241,-0.067,-0.559,0.291,104.158,-26.452,2.288,2.677,1,1,3.267
1780148322148,0.461,1.019,-0.242,-0.071,-0.631,0.296,104.266,-28.891,1.622,2.545,4,4,5.492
1780148322162,0.453,1.023,-0.250,-0.063,-0.701,0.287,104.866,-27.368,1.234,2.507,4,4,3.246
1780148322176,0.427,1.042,-0.263,-0.041,-0.768,0.281,105.468,-24.265,1.562,2.559,4,4,3.242
1780148322189,0.399,1.052,-0.279,-0.010,-0.832,0.281,106.469,-21.143,1.438,2.641,4,4,3.261
1780148322202,0.372,1.055,-0.284,0.025,-0.894,0.286,106.821,-18.154,1.193,2.701,4,4,3.282
1780148322216,0.352,1.046,-0.277,0.060,-0.933,0.290,105.933,-15.841,0.868,2.216,4,4,3.825
1780148322230,0.331,1.030,-0.254,0.091,-0.955,0.295,102.464,-13.420,0.727,1.811,4,4,3.250
1780148322243,0.313,1.011,-0.215,0.116,-0.968,0.300,96.843,-11.640,0.887,1.578,4,4,3.246
1780148322256,0.296,0.994,-0.164,0.134,-0.978,0.305,90.795,-10.150,1.125,1.430,4,4,3.275
1780148322270,0.274,0.980,-0.114,0.146,-0.981,0.314,85.461,-8.244,1.209,1.292,4,4,3.262
1780148322283,0.249,0.930,-0.052,0.141,-0.979,0.309,76.694,-6.245,1.363,0.941,4,4,4.164
1780148322298,0.224,0.934,0.044,0.100,-0.980,0.317,71.821,-4.909,2.374,1.512,4,4,3.259
1780148322312,0.227,0.922,0.034,0.060,-1.007,0.325,74.929,-6.656,0.737,2.024,4,4,3.270
1780148322325,0.212,0.948,-0.038,0.033,-1.015,0.325,80.792,-5.750,2.217,1.428,4,4,3.260
1780148322339,0.110,0.948,-0.052,0.007,-0.977,0.276,83.694,0.922,2.349,1.205,4,4,3.275
1780148322353,0.031,0.996,-0.056,-0.010,-0.946,0.284,84.691,4.612,2.671,0.672,1,1,4.578
1780148322367,0.066,1.044,-0.056,-0.018,-0.909,0.286,85.315,2.123,2.261,0.395,1,1,3.263
1780148322380,0.074,1.057,-0.060,-0.020,-0.877,0.280,86.411,0.929,1.373,0.157,1,1,3.258
1780148322393,0.068,1.052,-0.077,-0.020,-0.844,0.275,89.195,1.128,1.027,0.150,1,1,3.261
1780148322408,0.072,1.048,-0.088,-0.019,-0.813,0.269,91.040,0.209,1.038,0.114,1,1,4.886
1780148322422,0.074,1.046,-0.100,-0.017,-0.784,0.261,92.778,-0.468,1.060,0.077,1,1,3.916
1780148322436,0.074,1.042,-0.111,-0.015,-0.756,0.251,94.469,-0.835,1.031,0.053,1,1,3.250
1780148322449,0.074,1.039,-0.121,-0.012,-0.729,0.241,95.881,-1.055,1.036,0.074,1,1,3.306
1780148322463,0.072,1.037,-0.131,-0.009,-0.702,0.230,97.159,-1.150,1.046,0.085,1,1,3.441
1780148322476,0.069,1.036,-0.140,-0.005,-0.675,0.221,98.243,-1.004,1.061,0.089,1,1,3.267
1780148322490,0.066,1.033,-0.149,-0.002,-0.649,0.213,99.318,-0.970,1.040,0.079,1,1,3.857
1780148322504,0.064,1.031,-0.157,0.001,-0.625,0.206,100.251,-0.966,1.038,0.080,1,1,3.263
1780148322518,0.062,1.027,-0.166,0.003,-0.600,0.199,101.248,-0.952,1.011,0.075,1,1,4.154
1780148322531,0.061,1.023,-0.175,0.005,-0.577,0.193,102.231,-1.118,1.014,0.072,1,1,3.245
1780148322545,0.059,1.021,-0.183,0.006,-0.554,0.188,102.986,-1.033,1.029,0.077,1,1,3.264
1780148322558,0.056,1.019,-0.190,0.007,-0.532,0.184,103.649,-0.882,1.031,0.105,1,1,3.851
1780148322572,0.054,1.016,-0.198,0.007,-0.511,0.182,104.340,-0.886,1.028,0.124,1,1,3.258
1780148322586,0.054,1.013,-0.205,0.006,-0.490,0.179,104.973,-1.046,1.023,0.128,1,1,4.022
1780148322600,0.055,1.010,-0.212,0.004,-0.470,0.177,105.551,-1.381,1.019,0.122,1,1,3.244
1780148322615,0.056,1.008,-0.219,0.002,-0.451,0.174,106.046,-1.630,1.030,0.125,1,1,5.130
1780148322628,0.056,1.007,-0.225,-0.000,-0.433,0.171,106.397,-1.867,1.041,0.121,1,1,3.816
1780148322642,0.058,1.006,-0.230,-0.002,-0.415,0.168,106.716,-2.132,1.046,0.111,1,1,3.453
1780148322656,0.058,1.005,-0.235,-0.005,-0.399,0.165,106.916,-2.212,1.045,0.109,1,1,3.282
1780148322669,0.058,1.004,-0.240,-0.007,-0.383,0.161,107.155,-2.378,1.041,0.101,1,1,3.406
1780148322683,0.058,1.002,-0.244,-0.009,-0.368,0.158,107.369,-2.471,1.033,0.095,1,1,4.167
1780148322697,0.059,1.001,-0.249,-0.011,-0.353,0.154,107.585,-2.604,1.032,0.092,1,1,3.934
1780148322711,0.059,1.000,-0.253,-0.013,-0.340,0.151,107.699,-2.687,1.037,0.094,1,1,3.258
1780148322724,0.060,0.999,-0.256,-0.015,-0.326,0.147,107.849,-2.847,1.030,0.085,1,1,3.256
1780148322738,0.060,0.997,-0.260,-0.017,-0.314,0.144,108.038,-2.954,1.032,0.079,1,1,3.282
1780148322751,0.061,0.996,-0.264,-0.018,-0.302,0.140,108.173,-3.042,1.033,0.069,1,1,3.266
1780148322765,0.061,0.996,-0.266,-0.019,-0.291,0.136,108.117,-3.130,1.047,0.051,1,1,3.800
1780148322778,0.062,0.997,-0.268,-0.019,-0.280,0.132,108.041,-3.223,1.057,0.035,1,1,3.264
1780148322794,0.063,0.997,-0.270,-0.018,-0.270,0.128,108.002,-3.372,1.054,0.016,1,1,3.256
1780148322807,0.063,0.998,-0.273,-0.016,-0.260,0.123,107.961,-3.389,1.067,0.028,1,1,3.255
1780148322823,0.063,0.998,-0.275,-0.013,-0.250,0.119,107.940,-3.406,1.063,0.057,1,1,5.891
1780148322837,0.064,0.999,-0.277,-0.010,-0.240,0.115,107.915,-3.462,1.073,0.092,2,2,3.797
1780148322851,0.064,1.001,-0.279,-0.004,-0.230,0.111,107.846,-3.449,1.095,0.141,2,2,3.996
1780148322865,0.063,1.003,-0.282,0.003,-0.220,0.108,107.845,-3.377,1.107,0.183,2,2,3.267
1780148322878,0.063,1.007,-0.285,0.011,-0.208,0.105,107.856,-3.348,1.143,0.260,2,2,3.257
1780148322891,0.063,1.013,-0.288,0.021,-0.195,0.101,107.802,-3.260,1.194,0.315,2,2,3.254
1780148322905,0.064,1.022,-0.291,0.033,-0.180,0.096,107.672,-3.320,1.269,0.398,3,3,3.825
1780148322919,0.064,1.035,-0.295,0.047,-0.162,0.088,107.514,-3.307,1.379,0.525,3,3,3.278
1780148322932,0.065,1.052,-0.298,0.064,-0.142,0.079,107.245,-3.290,1.479,0.653,3,3,3.283
1780148322945,0.068,1.072,-0.301,0.084,-0.121,0.072,106.857,-3.489,1.565,0.746,3,3,3.266
1780148322959,0.077,1.109,-0.305,0.108,-0.098,0.066,106.371,-3.916,1.971,0.896,3,3,3.251
1780148322972,0.092,1.136,-0.305,0.140,-0.088,0.069,105.779,-4.800,1.792,1.007,3,3,3.835
1780148322986,0.100,1.168,-0.302,0.178,-0.087,0.068,104.971,-5.121,1.905,1.151,3,3,3.404
1780148323000,0.108,1.189,-0.298,0.218,-0.095,0.073,104.193,-5.556,1.688,1.308,3,3,3.247
1780148323013,0.106,1.198,-0.293,0.260,-0.101,0.077,103.580,-5.281,1.418,1.374,3,3,3.267
1780148323027,0.113,1.194,-0.279,0.298,-0.110,0.077,102.156,-6.011,1.138,1.337,3,3,3.639
1780148323040,0.110,1.173,-0.267,0.328,-0.125,0.077,101.103,-5.823,0.708,1.224,4,4,3.848
1780148323054,0.121,1.136,-0.245,0.344,-0.145,0.070,96.716,-9.303,0.555,1.015,4,4,3.258
1780148323067,0.134,1.092,-0.222,0.345,-0.166,0.066,89.603,-13.311,0.519,0.804,4,4,3.249
1780148323081,0.138,1.038,-0.164,0.325,-0.178,0.059,80.418,-13.167,1.126,0.541,4,4,3.271
1780148323094,0.138,1.010,-0.111,0.295,-0.183,0.051,74.738,-12.594,1.136,0.596,4,4,3.250
1780148323107,0.150,0.979,-0.068,0.250,-0.196,0.049,69.461,-13.664,0.997,1.072,4,4,3.839
1780148323121,0.155,0.959,-0.035,0.196,-0.212,0.047,66.276,-13.981,0.906,1.351,4,4,3.277
1780148323135,0.157,0.946,-0.010,0.137,-0.231,0.048,64.823,-13.870,0.875,1.569,4,4,3.257
1780148323148,0.155,0.939,0.008,0.075,-0.250,0.051,64.646,-13.236,0.886,1.724,4,4,3.281
1780148323162,0.150,0.939,0.019,0.010,-0.268,0.057,65.678,-12.234,0.978,1.839,4,4,3.285
1780148323176,0.144,0.949,0.021,-0.055,-0.280,0.065,67.616,-11.179,1.161,1.858,4,4,4.012
1780148323193,0.138,0.968,0.015,-0.115,-0.287,0.077,70.230,-10.159,1.397,1.775,4,4,3.306
1780148323206,0.132,0.991,0.004,-0.170,-0.287,0.092,73.002,-9.150,1.507,1.694,4,4,3.242
1780148323219,0.123,1.016,-0.013,-0.217,-0.279,0.107,75.926,-8.076,1.622,1.520,4,4,3.262
1780148323233,0.111,1.037,-0.035,-0.255,-0.264,0.119,79.052,-6.736,1.595,1.322,4,4,3.250
1780148323246,0.095,1.051,-0.061,-0.292,-0.240,0.127,82.431,-5.211,1.505,1.339,5,5,3.885
1780148323260,0.077,1.062,-0.087,-0.331,-0.207,0.132,85.718,-3.571,1.494,1.519,5,5,3.253
1780148323275,0.059,1.070,-0.114,-0.370,-0.167,0.137,88.950,-1.977,1.471,1.654,5,5,4.900
1780148323289,0.040,1.078,-0.144,-0.406,-0.123,0.138,92.151,-0.401,1.520,1.700,5,5,3.226
1780148323302,0.021,1.082,-0.178,-0.439,-0.078,0.134,95.562,1.026,1.544,1.689,5,5,3.263
1780148323316,0.006,1.085,-0.216,-0.466,-0.035,0.125,99.060,2.086,1.608,1.599,5,5,3.702
1780148323329,0.001,1.088,-0.259,-0.483,0.006,0.111,102.563,2.246,1.662,1.441,5,5,3.255
1780148323346,0.015,1.088,-0.308,-0.490,0.034,0.099,106.331,1.015,1.786,1.023,5,5,3.252
1780148323359,0.037,1.086,-0.358,-0.484,0.046,0.091,109.914,-0.643,1.866,0.512,5,5,3.270
1780148323372,0.053,1.083,-0.404,-0.468,0.043,0.086,113.214,-1.776,1.776,0.068,5,5,3.238
1780148323386,0.056,1.076,-0.445,-0.444,0.031,0.080,116.257,-2.057,1.627,0.350,1,1,3.704
1780148323399,0.054,1.070,-0.478,-0.413,0.013,0.071,118.702,-1.899,1.514,0.601,1,1,3.223
1780148323413,0.054,1.065,-0.504,-0.378,-0.009,0.060,120.611,-1.887,1.454,0.824,1,1,3.228
1780148323426,0.058,1.050,-0.521,-0.337,-0.035,0.045,122.522,-2.371,1.151,1.067,1,1,3.217
1780148323440,0.062,1.001,-0.511,-0.288,-0.062,0.025,94.826,-4.870,0.343,1.362,1,1,3.817
1780148323453,0.078,1.104,-0.384,-0.268,-0.094,0.018,90.994,-4.972,4.134,0.969,1,1,3.690
1780148323467,0.078,1.172,-0.277,-0.226,-0.117,0.003,87.299,-4.615,3.374,1.189,1,1,3.244
1780148323480,0.056,1.142,-0.268,-0.199,-0.118,0.003,88.212,-0.205,0.641,0.508,1,1,3.245
1780148323494,0.023,1.136,-0.304,-0.149,-0.100,0.001,92.890,2.209,1.646,1.187,1,1,3.251
1780148323507,0.014,1.108,-0.346,-0.110,-0.085,0.009,99.135,2.744,1.388,0.980,1,1,3.261
1780148323521,0.008,1.104,-0.338,-0.079,-0.072,0.020,99.054,3.119,1.041,0.837,1,1,3.697
1780148323537,0.010,1.105,-0.320,-0.051,-0.060,0.030,97.845,2.544,1.119,0.785,1,1,5.629
1780148323552,0.015,1.102,-0.312,-0.027,-0.051,0.037,97.826,1.615,1.064,0.667,1,1,4.671
1780148323565,0.018,1.096,-0.310,-0.004,-0.047,0.041,98.584,0.977,0.988,0.607,1,1,3.226
1780148323579,0.024,1.089,-0.308,0.017,-0.047,0.046,99.198,0.072,0.990,0.587,1,1,3.226
1780148323592,0.030,1.084,-0.308,0.032,-0.047,0.048,100.001,-0.787,1.042,0.450,1,1,3.801
1780148323606,0.037,1.077,-0.311,0.043,-0.046,0.046,101.129,-1.700,1.007,0.307,1,1,3.249
1780148323619,0.042,1.071,-0.312,0.050,-0.046,0.041,101.969,-2.445,1.015,0.267,1,1,3.222
1780148323632,0.046,1.067,-0.311,0.058,-0.046,0.034,102.454,-2.922,1.019,0.292,1,1,3.244
1780148323646,0.046,1.062,-0.310,0.065,-0.047,0.028,102.757,-2.796,1.010,0.291,1,1,3.223
1780148323659,0.043,1.059,-0.308,0.071,-0.047,0.023,103.052,-2.453,1.025,0.267,1,1,3.692
1780148323674,0.041,1.056,-0.307,0.077,-0.046,0.021,103.300,-2.217,1.023,0.232,1,1,4.713
1780148323688,0.038,1.053,-0.306,0.082,-0.045,0.021,103.525,-1.857,1.034,0.203,1,1,3.373
1780148323702,0.035,1.050,-0.306,0.084,-0.043,0.023,103.905,-1.549,1.017,0.176,1,1,3.284
1780148323715,0.033,1.046,-0.305,0.084,-0.042,0.028,104.180,-1.368,1.022,0.167,1,1,3.240
1780148323730,0.032,1.044,-0.304,0.083,-0.041,0.035,104.361,-1.198,1.023,0.209,1,1,5.654
1780148323744,0.033,1.041,-0.304,0.081,-0.039,0.042,104.655,-1.368,1.021,0.228,1,1,3.218
1780148323757,0.035,1.038,-0.304,0.080,-0.038,0.048,104.877,-1.653,1.030,0.219,1,1,3.424
1780148323771,0.036,1.035,-0.304,0.078,-0.037,0.054,105.126,-1.835,1.028,0.219,1,1,3.240
1780148323784,0.040,1.034,-0.303,0.076,-0.036,0.059,105.191,-2.326,1.041,0.199,1,1,3.230
1780148323798,0.042,1.032,-0.302,0.075,-0.035,0.064,105.205,-2.629,1.039,0.182,1,1,3.728
1780148323811,0.044,1.031,-0.301,0.075,-0.035,0.067,105.251,-2.818,1.044,0.170,1,1,3.216
1780148323826,0.046,1.030,-0.301,0.074,-0.034,0.071,105.310,-2.970,1.054,0.164,1,1,4.966
1780148323840,0.049,1.029,-0.299,0.074,-0.033,0.073,105.324,-3.277,1.044,0.149,1,1,3.248
1780148323854,0.053,1.027,-0.300,0.074,-0.033,0.073,105.470,-3.762,1.050,0.120,1,1,4.310
1780148323867,0.057,1.025,-0.300,0.074,-0.032,0.072,105.625,-4.114,1.043,0.085,1,1,3.725
1780148323881,0.060,1.024,-0.300,0.074,-0.032,0.070,105.704,-4.339,1.047,0.073,1,1,3.232
1780148323895,0.062,1.023,-0.299,0.074,-0.032,0.067,105.722,-4.545,1.048,0.089,1,1,3.296
1780148323908,0.064,1.022,-0.299,0.075,-0.031,0.064,105.776,-4.616,1.051,0.102,1,1,3.236
1780148323921,0.065,1.021,-0.299,0.076,-0.030,0.061,105.914,-4.631,1.045,0.105,1,1,3.222
1780148323935,0.066,1.020,-0.300,0.077,-0.028,0.059,106.053,-4.723,1.043,0.101,1,1,3.689
1780148323948,0.068,1.018,-0.300,0.078,-0.027,0.056,106.172,-4.807,1.033,0.102,1,1,3.231
1780148323962,0.070,1.017,-0.301,0.079,-0.027,0.054,106.319,-4.905,1.047,0.111,1,1,3.244
1780148323975,0.071,1.016,-0.301,0.081,-0.026,0.051,106.431,-4.996,1.038,0.118,1,1,3.226
1780148323990,0.076,1.015,-0.302,0.082,-0.024,0.046,106.517,-5.408,1.064,0.153,1,1,5.108
1780148324004,0.076,1.014,-0.302,0.084,-0.024,0.043,106.640,-5.326,1.037,0.146,2,2,3.683
1780148324017,0.077,1.013,-0.303,0.087,-0.023,0.041,106.754,-5.363,1.044,0.168,2,2,3.222
1780148324031,0.078,1.012,-0.304,0.091,-0.023,0.038,106.881,-5.400,1.048,0.188,2,2,3.231
1780148324044,0.080,1.011,-0.305,0.095,-0.023,0.034,107.000,-5.493,1.057,0.219,2,2,3.223
1780148324057,0.087,1.011,-0.306,0.099,-0.023,0.025,107.099,-6.149,1.090,0.299,2,2,3.239
1780148324071,0.088,1.010,-0.307,0.105,-0.024,0.017,107.254,-6.142,1.058,0.299,3,3,3.675
1780148324087,0.088,1.010,-0.309,0.110,-0.026,0.009,107.463,-6.052,1.059,0.331,3,3,5.389
1780148324100,0.085,1.010,-0.311,0.116,-0.027,0.002,107.662,-5.592,1.067,0.322,3,3,3.231
1780148324113,0.083,1.010,-0.313,0.122,-0.028,-0.002,107.808,-5.221,1.071,0.300,3,3,3.225
1780148324127,0.080,1.011,-0.315,0.127,-0.029,-0.005,107.975,-4.795,1.093,0.290,3,3,3.237
1780148324140,0.077,1.012,-0.318,0.133,-0.029,-0.007,108.127,-4.394,1.111,0.286,4,4,3.679
1780148324154,0.075,1.013,-0.321,0.138,-0.029,-0.008,108.331,-4.082,1.099,0.287,4,4,3.319
1780148324167,0.073,1.013,-0.324,0.144,-0.028,-0.009,108.603,-3.874,1.089,0.283,4,4,3.220
1780148324181,0.071,1.012,-0.327,0.149,-0.026,-0.009,108.866,-3.695,1.066,0.286,4,4,3.218
1780148324194,0.070,1.012,-0.330,0.154,-0.025,-0.010,109.104,-3.513,1.083,0.295,4,4,3.560
1780148324208,0.069,1.013,-0.333,0.160,-0.023,-0.010,109.297,-3.436,1.112,0.312,4,4,3.716
1780148324222,0.070,1.014,-0.336,0.166,-0.021,-0.011,109.475,-3.516,1.125,0.333,4,4,3.292
1780148324235,0.071,1.012,-0.340,0.174,-0.020,-0.011,109.969,-3.683,1.059,0.361,4,4,3.218
1780148324249,0.071,1.014,-0.344,0.182,-0.021,-0.012,110.100,-3.652,1.138,0.396,4,4,3.483
1780148324262,0.070,1.016,-0.347,0.190,-0.022,-0.014,110.269,-3.618,1.153,0.421,4,4,3.233
1780148324278,0.070,1.019,-0.351,0.200,-0.022,-0.016,110.439,-3.533,1.171,0.465,3,3,3.699
1780148324291,0.070,1.023,-0.355,0.211,-0.023,-0.019,110.582,-3.509,1.188,0.500,3,3,3.225
1780148324305,0.069,1.027,-0.360,0.223,-0.023,-0.021,110.766,-3.370,1.199,0.534,3,3,3.224
1780148324318,0.067,1.030,-0.364,0.235,-0.023,-0.024,110.907,-3.205,1.206,0.568,3,3,3.233
1780148324331,0.064,1.036,-0.368,0.249,-0.022,-0.027,111.005,-2.890,1.240,0.607,3,3,3.217
1780148324346,0.057,1.043,-0.372,0.263,-0.019,-0.031,110.975,-2.228,1.281,0.651,3,3,5.272
1780148324360,0.054,1.051,-0.376,0.279,-0.015,-0.035,110.937,-1.956,1.325,0.718,3,3,3.227
1780148324374,0.054,1.059,-0.380,0.297,-0.011,-0.039,110.948,-1.990,1.317,0.775,3,3,3.251
1780148324387,0.051,1.066,-0.384,0.316,-0.006,-0.042,110.950,-1.779,1.307,0.828,3,3,3.232
1780148324400,0.049,1.073,-0.388,0.336,-0.001,-0.045,110.912,-1.585,1.311,0.888,3,3,3.227
1780148324414,0.047,1.081,-0.390,0.359,0.005,-0.046,110.773,-1.408,1.327,0.955,4,4,4.277
1780148324428,0.045,1.090,-0.392,0.383,0.012,-0.046,110.556,-1.338,1.358,1.031,4,4,3.230
1780148324441,0.045,1.100,-0.393,0.410,0.019,-0.045,110.274,-1.387,1.377,1.126,4,4,3.223
1780148324455,0.046,1.111,-0.394,0.440,0.026,-0.041,109.953,-1.495,1.424,1.240,4,4,3.223
1780148324468,0.049,1.124,-0.391,0.473,0.032,-0.037,109.353,-1.770,1.448,1.341,4,4,3.223
1780148324481,0.054,1.136,-0.388,0.509,0.038,-0.032,108.686,-2.232,1.446,1.459,4,4,3.686
1780148324495,0.059,1.149,-0.380,0.549,0.041,-0.024,107.745,-2.621,1.464,1.615,4,4,3.221
1780148324508,0.063,1.164,-0.372,0.596,0.043,-0.018,106.752,-2.915,1.492,1.814,4,4,3.234
1780148324522,0.068,1.179,-0.362,0.654,0.045,-0.014,105.709,-3.303,1.527,2.157,4,4,3.492
1780148324535,0.069,1.192,-0.367,0.722,0.043,-0.011,105.894,-3.286,1.567,2.502,4,4,3.236
1780148324549,0.069,1.186,-0.377,0.788,0.044,-0.013,107.124,-3.281,1.202,2.503,3,3,3.687
1780148324562,0.081,1.164,-0.387,0.852,0.039,-0.022,109.515,-4.945,0.995,2.517,3,3,3.240
1780148324576,0.099,1.152,-0.391,0.913,0.028,-0.031,110.295,-6.942,1.112,2.527,3,3,3.844
1780148324590,0.118,1.123,-0.391,0.965,0.008,-0.028,112.041,-10.193,0.829,2.373,3,3,3.217
1780148324605,0.161,1.074,-0.376,0.975,-0.048,-0.016,118.050,-17.568,1.104,1.967,3,3,4.967
1780148324618,0.163,1.047,-0.350,0.933,-0.107,-0.020,112.985,-17.934,0.543,1.637,4,4,3.686
1780148324632,0.170,1.025,-0.323,0.873,-0.162,-0.029,108.356,-18.880,0.688,1.762,4,4,3.218
1780148324645,0.164,1.009,-0.294,0.804,-0.215,-0.029,104.023,-17.306,0.736,1.857,4,4,3.221
1780148324658,0.157,0.988,-0.270,0.735,-0.253,-0.028,100.200,-15.665,0.600,1.629,4,4,3.216
1780148324673,0.139,0.962,-0.247,0.659,-0.276,-0.026,96.209,-11.541,0.518,1.591,4,4,3.267
1780148324686,0.123,0.938,-0.226,0.574,-0.281,-0.025,92.713,-8.084,0.530,1.671,4,4,3.714
1780148324702,0.117,0.916,-0.205,0.483,-0.272,-0.022,89.675,-7.037,0.493,1.885,4,4,5.438
1780148324715,0.123,0.900,-0.191,0.387,-0.258,-0.013,88.424,-8.655,0.625,2.135,4,4,3.234
1780148324729,0.132,0.893,-0.179,0.288,-0.247,-0.001,87.978,-10.205,0.804,2.287,4,4,3.232
1780148324742,0.147,0.889,-0.170,0.192,-0.241,0.015,88.026,-12.023,0.938,2.355,4,4,3.228
1780148324755,0.163,0.889,-0.165,0.097,-0.246,0.035,88.611,-13.761,1.017,2.443,4,4,3.899
1780148324769,0.173,0.893,-0.164,0.006,-0.258,0.058,89.490,-14.472,1.065,2.534,4,4,3.292
1780148324783,0.172,0.902,-0.167,-0.084,-0.273,0.083,90.678,-13.922,1.130,2.594,4,4,3.247
1780148324796,0.163,0.915,-0.173,-0.170,-0.284,0.109,91.932,-12.413,1.252,2.595,4,4,3.246
1780148324810,0.144,0.932,-0.183,-0.253,-0.285,0.134,93.344,-10.170,1.390,2.568,4,4,3.264
1780148324823,0.121,0.954,-0.195,-0.333,-0.272,0.158,94.762,-7.800,1.542,2.528,5,5,3.711
1780148324837,0.103,0.977,-0.209,-0.409,-0.246,0.180,96.141,-6.093,1.613,2.526,5,5,3.234
1780148324850,0.097,1.004,-0.225,-0.479,-0.213,0.203,97.447,-5.369,1.695,2.520,5,5,3.227
1780148324865,0.097,1.033,-0.245,-0.541,-0.177,0.226,98.808,-5.156,1.793,2.425,5,5,4.988
1780148324878,0.096,1.054,-0.267,-0.599,-0.142,0.249,100.489,-4.916,1.696,2.383,5,5,3.219
1780148324892,0.091,1.075,-0.288,-0.654,-0.106,0.267,102.020,-4.441,1.698,2.375,5,5,3.979
1780148324906,0.082,1.097,-0.308,-0.705,-0.068,0.283,103.255,-3.638,1.757,2.339,5,5,3.237
1780148324919,0.070,1.119,-0.328,-0.752,-0.028,0.293,104.433,-2.682,1.787,2.267,5,5,3.221
1780148324933,0.057,1.139,-0.351,-0.793,0.012,0.298,105.739,-1.763,1.797,2.184,5,5,3.251
1780148324946,0.047,1.155,-0.377,-0.831,0.049,0.299,107.274,-1.034,1.791,2.095,5,5,3.225
1780148324960,0.044,1.168,-0.406,-0.865,0.082,0.298,109.023,-0.889,1.789,2.001,5,5,3.699
1780148324973,0.042,1.180,-0.442,-0.891,0.106,0.296,111.089,-0.803,1.887,1.759,5,5,3.227
1780148324987,0.039,1.189,-0.487,-0.907,0.122,0.291,113.537,-0.666,2.022,1.433,5,5,3.237
1780148325000,0.036,1.192,-0.540,-0.911,0.130,0.287,116.369,-0.526,2.116,1.085,5,5,3.233
1780148325013,0.030,1.187,-0.601,-0.902,0.130,0.284,119.668,-0.192,2.227,0.722,5,5,3.231
1780148325027,0.014,1.176,-0.664,-0.883,0.125,0.281,123.060,0.618,2.272,0.425,5,5,4.104
1780148325041,-0.006,1.169,-0.722,-0.849,0.116,0.270,125.910,1.641,2.273,0.122,5,5,3.235
1780148325054,-0.023,1.161,-0.773,-0.800,0.103,0.253,128.444,2.479,2.165,0.563,5,5,3.246
1780148325068,-0.035,1.150,-0.816,-0.742,0.086,0.233,130.732,3.036,1.996,0.897,5,5,3.225
1780148325081,-0.050,1.104,-0.842,-0.673,0.077,0.196,135.025,4.147,1.472,1.362,5,5,3.241
1780148325095,-0.025,1.226,-0.726,-0.572,0.058,0.169,128.371,3.106,4.326,2.167,1,1,4.383
1780148325109,-0.064,1.229,-0.638,-0.476,0.044,0.143,120.435,5.326,2.056,2.122,1,1,3.225
1780148325122,-0.087,1.205,-0.628,-0.416,0.048,0.138,120.464,8.344,0.993,1.139,1,1,3.220
1780148325135,-0.105,1.187,-0.674,-0.333,0.071,0.134,123.718,8.929,1.922,1.955,1,1,3.235
1780148325149,-0.104,1.164,-0.667,-0.284,0.080,0.135,124.138,8.610,0.839,1.029,1,1,3.230
1780148325162,-0.091,1.168,-0.627,-0.236,0.083,0.135,119.830,6.996,1.282,1.045,1,1,3.699
1780148325176,-0.084,1.158,-0.611,-0.191,0.075,0.133,118.489,5.885,0.975,1.001,1,1,3.235
1780148325189,-0.073,1.138,-0.608,-0.156,0.073,0.133,119.334,4.442,0.914,0.749,1,1,3.250
1780148325202,-0.061,1.129,-0.602,-0.132,0.076,0.136,119.112,2.971,1.055,0.549,1,1,3.227
1780148325216,-0.058,1.122,-0.591,-0.113,0.074,0.130,118.264,2.653,1.034,0.398,1,1,3.239
1780148325229,-0.050,1.114,-0.581,-0.096,0.068,0.121,117.540,1.622,1.021,0.361,1,1,3.697
1780148325243,-0.039,1.107,-0.571,-0.085,0.063,0.111,116.810,0.498,1.023,0.248,1,1,3.317
1780148325257,-0.031,1.100,-0.559,-0.078,0.058,0.100,115.948,-0.367,1.019,0.236,1,1,3.834
1780148325270,-0.028,1.094,-0.548,-0.075,0.052,0.090,115.120,-0.586,1.005,0.204,1,1,3.248
1780148325284,-0.027,1.090,-0.536,-0.071,0.045,0.082,114.188,-0.506,1.044,0.166,1,1,3.246
1780148325297,-0.027,1.087,-0.524,-0.066,0.039,0.077,113.240,-0.290,1.050,0.148,1,1,3.699
1780148325311,-0.026,1.085,-0.512,-0.058,0.034,0.074,112.342,-0.274,1.067,0.200,1,1,3.250
1780148325324,-0.025,1.081,-0.502,-0.049,0.029,0.071,111.691,-0.234,1.040,0.207,1,1,3.250
1780148325338,-0.021,1.078,-0.492,-0.039,0.024,0.067,111.077,-0.554,1.038,0.229,1,1,3.221
1780148325351,-0.015,1.074,-0.484,-0.031,0.020,0.061,110.726,-1.061,1.032,0.224,1,1,3.238
1780148325364,-0.010,1.069,-0.476,-0.024,0.016,0.053,110.465,-1.478,1.028,0.236,1,1,3.690
1780148325380,-0.005,1.066,-0.469,-0.018,0.012,0.046,110.221,-1.916,1.044,0.215,1,1,5.175
1780148325393,-0.004,1.063,-0.461,-0.013,0.008,0.039,109.805,-1.765,1.043,0.200,1,1,3.236
1780148325407,-0.003,1.061,-0.453,-0.007,0.006,0.032,109.385,-1.737,1.064,0.222,1,1,3.239
1780148325420,-0.005,1.059,-0.446,-0.001,0.004,0.027,109.034,-1.313,1.051,0.197,1,1,3.280
1780148325434,-0.007,1.056,-0.440,0.006,0.002,0.025,108.830,-0.986,1.037,0.190,1,1,4.206
1780148325448,-0.005,1.053,-0.434,0.012,0.001,0.023,108.738,-1.064,1.046,0.180,1,1,3.239
1780148325461,-0.003,1.050,-0.429,0.018,-0.000,0.021,108.663,-1.180,1.039,0.178,1,1,3.245
1780148325475,-0.001,1.048,-0.425,0.024,-0.002,0.020,108.672,-1.325,1.040,0.182,1,1,3.233
1780148325488,0.003,1.045,-0.421,0.029,-0.003,0.013,108.670,-1.661,1.049,0.214,1,1,3.246
1780148325501,0.002,1.042,-0.417,0.034,-0.004,0.012,108.599,-1.401,1.030,0.191,1,1,3.783
1780148325515,0.003,1.040,-0.413,0.040,-0.004,0.008,108.552,-1.301,1.042,0.204,1,1,3.262
1780148325529,-0.000,1.038,-0.409,0.046,-0.004,0.007,108.583,-0.858,1.045,0.203,1,1,3.224
1780148325542,0.001,1.036,-0.407,0.052,-0.005,0.006,108.647,-0.979,1.059,0.215,1,1,3.233
1780148325555,0.003,1.034,-0.404,0.058,-0.005,0.003,108.718,-1.068,1.058,0.227,1,1,3.232
1780148325568,0.004,1.033,-0.402,0.064,-0.005,-0.002,108.777,-1.073,1.071,0.250,1,1,3.709
1780148325582,0.002,1.032,-0.400,0.071,-0.006,-0.003,108.796,-0.789,1.073,0.247,1,1,3.285
1780148325596,0.001,1.032,-0.398,0.078,-0.007,-0.004,108.862,-0.559,1.085,0.262,1,1,3.229
1780148325609,-0.001,1.032,-0.397,0.085,-0.007,-0.005,108.892,-0.356,1.100,0.282,1,1,3.241
1780148325622,-0.002,1.033,-0.395,0.093,-0.006,-0.006,108.929,-0.149,1.114,0.300,1,1,3.243
1780148325636,-0.003,1.034,-0.394,0.102,-0.005,-0.008,108.989,-0.034,1.117,0.323,3,3,3.671
1780148325649,-0.004,1.035,-0.394,0.111,-0.003,-0.009,109.044,0.104,1.136,0.351,3,3,3.238
1780148325663,-0.005,1.036,-0.393,0.120,-0.001,-0.011,109.105,0.256,1.114,0.380,3,3,3.231
1780148325676,-0.008,1.036,-0.393,0.130,0.001,-0.014,109.262,0.592,1.098,0.407,3,3,3.223
1780148325689,-0.011,1.034,-0.394,0.141,0.005,-0.016,109.546,0.834,1.086,0.423,3,3,3.221
1780148325703,-0.012,1.033,-0.395,0.151,0.008,-0.018,109.865,0.990,1.087,0.428,3,3,3.713
1780148325717,-0.011,1.032,-0.396,0.161,0.011,-0.019,110.164,0.869,1.099,0.450,3,3,3.521
1780148325730,-0.010,1.033,-0.398,0.173,0.013,-0.021,110.376,0.658,1.138,0.474,3,3,3.220
1780148325746,-0.010,1.034,-0.400,0.184,0.015,-0.023,110.599,0.651,1.152,0.502,3,3,6.399
1780148325760,-0.011,1.036,-0.402,0.197,0.017,-0.025,110.799,0.803,1.177,0.542,3,3,3.246
1780148325773,-0.012,1.039,-0.405,0.211,0.019,-0.028,110.986,0.860,1.197,0.583,3,3,3.689
1780148325787,-0.013,1.042,-0.408,0.226,0.021,-0.031,111.136,0.864,1.207,0.625,3,3,3.231
1780148325803,-0.013,1.046,-0.411,0.242,0.023,-0.034,111.322,0.901,1.218,0.671,3,3,6.170
1780148325817,-0.012,1.050,-0.414,0.260,0.026,-0.037,111.544,0.772,1.241,0.734,3,3,3.243
1780148325830,-0.011,1.054,-0.418,0.279,0.028,-0.040,111.777,0.616,1.249,0.786,3,3,3.227
1780148325846,-0.011,1.060,-0.423,0.300,0.029,-0.043,111.912,0.627,1.297,0.857,3,3,4.179
1780148325860,-0.028,1.071,-0.425,0.322,0.033,-0.048,111.708,2.096,1.465,0.933,3,3,3.221
1780148325874,-0.025,1.088,-0.428,0.346,0.041,-0.058,111.476,1.721,1.535,1.041,3,3,4.353
1780148325888,-0.010,1.104,-0.432,0.373,0.044,-0.062,111.307,0.463,1.570,1.100,3,3,3.259
1780148325901,-0.005,1.122,-0.434,0.404,0.044,-0.063,110.905,0.060,1.598,1.200,3,3,3.260
1780148325914,-0.009,1.144,-0.431,0.437,0.045,-0.063,110.130,0.363,1.657,1.312,3,3,3.691
1780148325928,-0.008,1.167,-0.425,0.475,0.048,-0.060,109.137,0.286,1.714,1.449,3,3,3.246
1780148325942,-0.000,1.191,-0.415,0.516,0.050,-0.054,107.954,-0.274,1.733,1.605,3,3,3.232
1780148325955,0.007,1.214,-0.401,0.563,0.049,-0.047,106.524,-0.758,1.713,1.787,3,3,3.270
1780148325968,0.006,1.233,-0.391,0.618,0.048,-0.041,105.575,-0.658,1.655,2.053,3,3,3.222
1780148325981,-0.004,1.249,-0.394,0.688,0.052,-0.037,105.559,0.102,1.683,2.508,3,3,3.673
1780148325995,-0.013,1.249,-0.400,0.755,0.069,-0.033,106.308,0.951,1.390,2.552,3,3,3.234
1780148326009,0.001,1.229,-0.409,0.820,0.069,-0.026,108.320,-0.745,1.035,2.506,3,3,3.272
1780148326022,0.028,1.215,-0.405,0.883,0.047,-0.025,108.417,-3.771,1.139,2.553,3,3,3.235
1780148326035,0.035,1.173,-0.404,0.929,0.019,-0.030,112.035,-5.544,0.506,2.263,3,3,3.239
1780148326049,0.048,1.140,-0.386,0.937,0.004,-0.029,109.834,-8.744,0.522,1.212,4,4,3.716
1780148326063,0.094,1.094,-0.356,0.896,-0.056,-0.008,101.198,-14.912,1.157,1.724,4,4,3.231
1780148326076,0.098,1.068,-0.322,0.839,-0.114,0.002,96.178,-14.967,0.665,1.756,4,4,3.228
1780148326089,0.093,1.047,-0.288,0.781,-0.157,0.008,92.041,-13.498,0.759,1.477,4,4,3.248
1780148326106,0.090,1.020,-0.260,0.722,-0.188,0.019,88.127,-12.383,0.560,1.310,4,4,3.276
1780148326119,0.082,0.994,-0.234,0.656,-0.204,0.028,84.723,-10.225,0.530,1.251,4,4,3.710
1780148326133,0.077,0.968,-0.211,0.581,-0.209,0.039,81.717,-8.845,0.507,1.451,4,4,3.229
1780148326148,0.073,0.944,-0.190,0.493,-0.204,0.052,79.351,-7.853,0.485,1.835,4,4,5.451
1780148326162,0.076,0.926,-0.170,0.399,-0.195,0.067,77.955,-8.500,0.626,2.104,4,4,3.219
1780148326175,0.081,0.916,-0.153,0.302,-0.188,0.087,77.440,-9.047,0.743,2.274,4,4,3.229
1780148326188,0.087,0.910,-0.140,0.207,-0.186,0.107,77.618,-9.692,0.822,2.348,4,4,3.736
1780148326202,0.094,0.908,-0.131,0.112,-0.191,0.125,78.375,-10.243,0.910,2.475,4,4,3.270
1780148326215,0.099,0.912,-0.125,0.018,-0.205,0.146,79.393,-10.378,1.018,2.574,4,4,3.221
1780148326229,0.096,0.922,-0.123,-0.075,-0.223,0.166,80.798,-9.577,1.148,2.667,4,4,3.233
1780148326242,0.086,0.938,-0.125,-0.165,-0.239,0.187,82.429,-8.079,1.299,2.689,4,4,3.227
1780148326255,0.067,0.959,-0.133,-0.252,-0.250,0.209,84.295,-6.020,1.496,2.669,5,5,3.684
1780148326269,0.044,0.985,-0.145,-0.335,-0.251,0.228,86.224,-3.956,1.660,2.607,5,5,3.318
1780148326284,0.025,1.013,-0.161,-0.412,-0.238,0.247,88.241,-2.322,1.759,2.546,5,5,4.454
1780148326299,0.014,1.046,-0.182,-0.484,-0.215,0.265,90.293,-1.420,1.890,2.473,5,5,5.044
1780148326312,0.003,1.078,-0.205,-0.547,-0.185,0.284,92.356,-0.664,1.943,2.397,5,5,3.221
1780148326326,-0.005,1.105,-0.231,-0.605,-0.148,0.301,94.505,-0.056,1.865,2.388,5,5,3.693
1780148326340,-0.012,1.137,-0.255,-0.657,-0.107,0.313,96.311,0.392,2.003,2.303,5,5,3.221
1780148326353,-0.015,1.168,-0.280,-0.698,-0.064,0.319,97.978,0.572,2.032,2.097,5,5,3.225
1780148326366,-0.015,1.186,-0.308,-0.732,-0.024,0.321,100.075,0.599,1.828,1.977,5,5,3.243
1780148326380,-0.012,1.192,-0.337,-0.770,0.015,0.328,102.570,0.313,1.648,2.090,5,5,3.220
1780148326395,-0.003,1.202,-0.365,-0.809,0.048,0.337,104.647,-0.314,1.726,2.088,5,5,5.708
1780148326409,0.000,1.210,-0.396,-0.841,0.072,0.345,106.849,-0.513,1.752,1.901,5,5,3.228
1780148326422,0.002,1.214,-0.430,-0.867,0.088,0.351,109.245,-0.590,1.766,1.694,5,5,3.221
1780148326435,0.004,1.213,-0.468,-0.887,0.095,0.354,111.952,-0.659,1.763,1.511,5,5,3.228
1780148326449,0.005,1.211,-0.508,-0.901,0.093,0.357,114.588,-0.701,1.793,1.325,5,5,3.250
1780148326462,0.004,1.207,-0.547,-0.905,0.085,0.358,117.126,-0.557,1.809,1.090,5,5,3.720
1780148326476,-0.002,1.201,-0.586,-0.898,0.074,0.357,119.648,-0.092,1.802,0.821,5,5,3.229
1780148326490,-0.014,1.192,-0.624,-0.881,0.063,0.353,122.103,0.743,1.779,0.551,5,5,4.457
1780148326506,-0.028,1.182,-0.658,-0.852,0.057,0.344,124.374,1.759,1.725,0.191,5,5,3.262
1780148326519,-0.040,1.171,-0.687,-0.815,0.055,0.332,126.319,2.561,1.650,0.144,5,5,3.231
1780148326532,-0.048,1.160,-0.712,-0.772,0.057,0.318,127.918,3.114,1.566,0.387,1,1,3.811
1780148326546,-0.055,1.149,-0.730,-0.722,0.062,0.301,129.195,3.566,1.471,0.600,1,1,3.262
1780148326560,-0.060,1.141,-0.743,-0.672,0.071,0.280,129.969,3.916,1.410,0.765,1,1,3.244
1780148326573,-0.082,1.089,-0.742,-0.615,0.105,0.241,100.684,7.184,0.918,1.522,1,1,3.223
1780148326586,-0.092,1.150,-0.669,-0.541,0.128,0.208,97.706,7.135,2.666,1.707,1,1,3.225
1780148326599,-0.087,1.190,-0.591,-0.450,0.136,0.179,94.255,6.372,2.338,2.014,1,1,3.687
1780148326613,-0.092,1.197,-0.562,-0.359,0.133,0.157,93.579,6.545,1.380,2.059,1,1,3.245
