timestamp,ax,ay,az,gx,gy,gz,roll,pitch_k,acc_norm,gyro_norm,classe_prevista_raw,classe_prevista,delay_ms
1780148176404,0.0203518,0.669005,-0.140997,-0.0130274,-0.00350391,0.00579493,92.646,-1.55016,1.02567,0.0249497,0,0,3.354
1780148176418,0.025,0.800,-0.171,-0.015,-0.005,0.005,97.216,-1.696,1.018,0.020,0,0,3.322
1780148176433,0.029,0.858,-0.177,-0.018,-0.008,0.003,98.393,-1.844,1.023,0.030,0,0,5.159
1780148176447,0.030,0.890,-0.182,-0.019,-0.010,-0.001,99.140,-1.853,1.020,0.031,0,0,3.528
1780148176461,0.028,0.910,-0.188,-0.017,-0.011,-0.002,99.735,-1.686,1.022,0.020,0,0,3.340
1780148176474,0.026,0.924,-0.191,-0.017,-0.012,-0.003,100.088,-1.537,1.017,0.024,0,0,3.273
1780148176487,0.024,0.935,-0.191,-0.017,-0.012,-0.003,100.246,-1.384,1.021,0.024,0,0,3.268
1780148176501,0.021,0.943,-0.192,-0.018,-0.013,-0.002,100.385,-1.180,1.024,0.033,0,0,3.300
1780148176514,0.018,0.950,-0.194,-0.018,-0.014,-0.000,100.568,-1.002,1.026,0.034,0,0,3.250
1780148176528,0.017,0.955,-0.195,-0.018,-0.015,0.003,100.678,-0.886,1.023,0.040,0,0,3.246
1780148176541,0.015,0.959,-0.196,-0.017,-0.015,0.006,100.776,-0.762,1.018,0.043,0,0,3.268
1780148176555,0.016,0.963,-0.196,-0.017,-0.015,0.008,100.851,-0.829,1.022,0.040,0,0,3.247
1780148176570,0.017,0.965,-0.197,-0.016,-0.015,0.010,100.948,-0.948,1.015,0.029,0,0,5.453
1780148176584,0.019,0.968,-0.197,-0.015,-0.015,0.009,100.989,-1.064,1.024,0.016,0,0,3.261
1780148176597,0.020,0.970,-0.198,-0.013,-0.015,0.008,101.057,-1.191,1.015,0.016,0,0,3.282
1780148176610,0.020,0.973,-0.198,-0.010,-0.015,0.007,101.104,-1.193,1.030,0.035,0,0,3.264
1780148176624,0.020,0.974,-0.198,-0.007,-0.015,0.006,101.082,-1.189,1.010,0.041,0,0,3.293
1780148176637,0.021,0.976,-0.198,-0.004,-0.014,0.004,101.129,-1.216,1.022,0.051,0,0,3.255
1780148176651,0.020,0.977,-0.199,-0.001,-0.014,0.002,101.163,-1.169,1.021,0.058,0,0,3.387
1780148176666,0.020,0.979,-0.199,0.003,-0.013,0.000,101.204,-1.122,1.021,0.065,0,0,3.321
1780148176679,0.020,0.981,-0.199,0.006,-0.013,-0.002,101.198,-1.137,1.031,0.073,0,0,3.277
1780148176692,0.020,0.982,-0.199,0.010,-0.012,-0.003,101.228,-1.148,1.025,0.080,0,0,3.273
1780148176706,0.020,0.983,-0.201,0.013,-0.012,-0.006,101.332,-1.138,1.030,0.091,0,0,3.244
1780148176723,0.020,0.984,-0.202,0.017,-0.011,-0.008,101.461,-1.114,1.025,0.106,0,0,7.066
1780148176736,0.021,0.986,-0.202,0.021,-0.011,-0.012,101.456,-1.218,1.030,0.132,0,0,3.253
1780148176750,0.020,0.987,-0.202,0.026,-0.010,-0.015,101.440,-1.176,1.031,0.143,0,0,3.251
1780148176764,0.018,0.989,-0.202,0.031,-0.009,-0.019,101.452,-0.959,1.038,0.154,0,0,4.076
1780148176777,0.017,0.989,-0.203,0.036,-0.009,-0.021,101.531,-0.861,1.030,0.156,0,0,3.294
1780148176791,0.016,0.990,-0.204,0.041,-0.009,-0.024,101.658,-0.757,1.019,0.165,0,0,3.307
1780148176805,0.018,0.990,-0.204,0.046,-0.009,-0.027,101.594,-0.917,1.026,0.188,3,3,5.230
1780148176819,0.017,0.991,-0.205,0.052,-0.009,-0.031,101.662,-0.831,1.019,0.205,3,3,3.256
1780148176833,0.015,0.991,-0.206,0.057,-0.009,-0.033,101.852,-0.607,1.019,0.193,3,3,3.259
1780148176846,0.013,0.992,-0.207,0.061,-0.010,-0.035,101.943,-0.400,1.036,0.172,3,3,3.243
1780148176860,0.011,0.992,-0.209,0.065,-0.010,-0.036,102.074,-0.261,1.028,0.157,3,3,3.295
1780148176873,0.009,0.991,-0.212,0.068,-0.010,-0.037,102.402,-0.100,1.011,0.139,2,2,3.851
1780148176887,0.008,0.991,-0.214,0.069,-0.011,-0.036,102.686,0.037,1.018,0.111,2,2,3.257
1780148176901,0.006,0.991,-0.215,0.070,-0.011,-0.035,102.712,0.191,1.031,0.085,2,2,3.324
1780148176914,0.005,0.992,-0.216,0.070,-0.012,-0.033,102.743,0.273,1.024,0.084,2,2,3.277
1780148176927,0.004,0.992,-0.218,0.070,-0.013,-0.031,102.881,0.309,1.022,0.077,2,2,3.260
1780148176941,0.003,0.991,-0.220,0.070,-0.013,-0.029,103.136,0.387,1.023,0.067,2,2,3.882
1780148176955,0.002,0.991,-0.223,0.069,-0.013,-0.027,103.442,0.450,1.018,0.057,2,2,3.279
1780148176968,0.001,0.990,-0.226,0.068,-0.013,-0.024,103.647,0.477,1.014,0.058,2,2,3.263
1780148176981,0.001,0.990,-0.228,0.066,-0.013,-0.021,103.801,0.462,1.023,0.055,2,2,3.238
1780148176995,0.000,0.990,-0.229,0.065,-0.013,-0.019,103.889,0.480,1.026,0.057,2,2,3.290
1780148177010,0.000,0.990,-0.230,0.065,-0.013,-0.017,103.943,0.474,1.032,0.067,2,2,3.848
1780148177024,-0.001,0.990,-0.232,0.065,-0.012,-0.014,104.057,0.498,1.023,0.078,2,2,3.245
1780148177037,-0.002,0.990,-0.233,0.065,-0.012,-0.012,104.130,0.617,1.017,0.095,2,2,3.259
1780148177051,-0.003,0.990,-0.234,0.066,-0.011,-0.009,104.169,0.697,1.026,0.108,2,2,3.269
1780148177064,-0.003,0.990,-0.235,0.068,-0.011,-0.006,104.195,0.640,1.030,0.121,2,2,3.282
1780148177077,-0.004,0.991,-0.237,0.070,-0.010,-0.003,104.242,0.679,1.036,0.137,2,2,3.837
1780148177094,-0.003,0.991,-0.238,0.072,-0.010,-0.001,104.347,0.559,1.032,0.142,2,2,5.737
1780148177107,-0.002,0.991,-0.240,0.074,-0.009,0.001,104.478,0.454,1.028,0.143,2,2,3.241
1780148177121,-0.001,0.991,-0.242,0.077,-0.009,0.002,104.680,0.293,1.025,0.143,2,2,3.300
1780148177139,-0.001,0.991,-0.244,0.080,-0.009,0.003,104.826,0.266,1.035,0.146,2,2,7.890
1780148177152,-0.001,0.991,-0.246,0.082,-0.009,0.003,104.968,0.243,1.029,0.143,2,2,3.809
1780148177166,-0.002,0.990,-0.249,0.084,-0.009,0.004,105.238,0.261,1.022,0.134,2,2,3.246
1780148177179,-0.002,0.989,-0.251,0.085,-0.008,0.006,105.389,0.296,1.024,0.132,2,2,3.252
1780148177193,-0.002,0.989,-0.254,0.087,-0.007,0.008,105.587,0.291,1.019,0.132,2,2,3.298
1780148177206,-0.003,0.988,-0.257,0.088,-0.006,0.010,105.802,0.337,1.024,0.143,2,2,3.253
1780148177219,-0.003,0.988,-0.259,0.089,-0.005,0.014,105.952,0.403,1.033,0.151,2,2,3.936
1780148177233,-0.002,0.987,-0.261,0.089,-0.004,0.017,106.125,0.169,1.013,0.137,2,2,3.270
1780148177247,-0.001,0.987,-0.263,0.089,-0.003,0.020,106.241,0.054,1.039,0.147,2,2,3.267
1780148177260,0.000,0.988,-0.265,0.088,-0.001,0.024,106.334,-0.036,1.042,0.137,2,2,3.454
1780148177274,0.002,0.987,-0.267,0.088,-0.000,0.026,106.457,-0.230,1.035,0.118,2,2,3.260
1780148177287,0.003,0.987,-0.270,0.086,0.000,0.029,106.624,-0.327,1.038,0.100,2,2,4.350
1780148177302,0.004,0.988,-0.272,0.085,0.001,0.030,106.707,-0.495,1.050,0.088,2,2,3.294
1780148177317,0.006,0.988,-0.273,0.083,0.001,0.031,106.768,-0.682,1.040,0.075,2,2,4.887
1780148177330,0.008,0.988,-0.275,0.082,0.001,0.032,106.867,-0.837,1.037,0.072,2,2,3.255
1780148177344,0.008,0.989,-0.277,0.082,0.002,0.032,106.949,-0.899,1.049,0.075,2,2,3.252
1780148177357,0.009,0.989,-0.279,0.081,0.002,0.032,107.063,-0.947,1.045,0.076,2,2,4.018
1780148177371,0.010,0.989,-0.281,0.081,0.002,0.032,107.168,-0.982,1.046,0.086,2,2,3.250
1780148177387,0.012,0.989,-0.283,0.082,0.002,0.031,107.226,-1.157,1.041,0.097,2,2,4.282
1780148177400,0.013,0.990,-0.284,0.083,0.002,0.029,107.242,-1.313,1.056,0.128,2,2,3.244
1780148177413,0.015,0.991,-0.287,0.086,0.002,0.026,107.349,-1.422,1.064,0.156,2,2,3.278
1780148177427,0.017,0.992,-0.288,0.089,0.001,0.022,107.375,-1.576,1.063,0.182,3,3,3.841
1780148177441,0.018,0.993,-0.291,0.092,-0.000,0.017,107.517,-1.675,1.074,0.219,3,3,3.244
1780148177454,0.018,0.995,-0.294,0.097,-0.002,0.012,107.626,-1.640,1.107,0.253,3,3,3.262
1780148177467,0.018,0.997,-0.296,0.102,-0.004,0.007,107.706,-1.517,1.108,0.277,3,3,3.254
1780148177481,0.016,0.999,-0.299,0.108,-0.004,0.001,107.851,-1.216,1.086,0.289,3,3,3.276
1780148177494,0.014,1.000,-0.301,0.114,-0.004,-0.004,107.986,-0.997,1.092,0.305,3,3,3.848
1780148177508,0.014,1.002,-0.305,0.121,-0.003,-0.009,108.201,-0.908,1.103,0.325,3,3,3.253
1780148177522,0.013,1.004,-0.308,0.127,-0.001,-0.017,108.353,-0.805,1.134,0.363,3,3,3.350
1780148177536,0.007,0.999,-0.312,0.134,0.002,-0.024,108.931,-0.027,0.963,0.378,3,3,3.258
1780148177551,0.009,1.000,-0.315,0.140,0.004,-0.031,109.057,-0.281,1.094,0.377,3,3,3.259
1780148177564,0.010,1.003,-0.318,0.147,0.005,-0.038,109.120,-0.397,1.150,0.387,3,3,3.834
1780148177579,0.008,1.005,-0.322,0.152,0.006,-0.044,109.277,-0.246,1.109,0.364,3,3,3.328
1780148177592,0.006,1.006,-0.325,0.159,0.007,-0.049,109.475,-0.005,1.107,0.362,3,3,3.257
1780148177605,0.003,1.005,-0.329,0.165,0.006,-0.051,109.807,0.314,1.068,0.364,3,3,3.254
1780148177619,0.002,1.009,-0.334,0.173,0.005,-0.053,110.002,0.352,1.180,0.387,3,3,3.249
1780148177632,-0.001,1.011,-0.338,0.182,0.005,-0.054,110.152,0.622,1.144,0.419,3,3,3.850
1780148177647,-0.003,1.014,-0.342,0.192,0.004,-0.056,110.306,0.776,1.154,0.467,3,3,4.171
1780148177661,-0.004,1.017,-0.346,0.204,0.004,-0.058,110.461,0.864,1.180,0.508,3,3,3.245
1780148177674,-0.006,1.021,-0.351,0.216,0.004,-0.060,110.615,1.026,1.200,0.555,3,3,3.270
1780148177690,-0.010,1.027,-0.355,0.231,0.005,-0.062,110.690,1.326,1.228,0.622,3,3,3.256
1780148177703,-0.013,1.033,-0.359,0.247,0.007,-0.066,110.709,1.566,1.269,0.689,3,3,3.915
1780148177717,-0.017,1.042,-0.364,0.265,0.010,-0.069,110.688,1.814,1.328,0.756,3,3,3.258
1780148177730,-0.026,1.056,-0.368,0.285,0.015,-0.072,110.500,2.518,1.450,0.834,3,3,3.260
1780148177744,-0.034,1.073,-0.371,0.307,0.022,-0.078,110.207,2.986,1.526,0.938,3,3,3.278
1780148177757,-0.029,1.088,-0.374,0.332,0.029,-0.082,109.896,2.404,1.486,1.013,3,3,3.270
1780148177770,-0.027,1.103,-0.376,0.360,0.034,-0.085,109.558,2.149,1.481,1.102,3,3,3.880
1780148177784,-0.026,1.120,-0.375,0.392,0.038,-0.086,109.003,1.936,1.527,1.225,3,3,3.258
1780148177798,-0.023,1.137,-0.379,0.427,0.040,-0.086,108.802,1.581,1.590,1.362,3,3,3.248
1780148177811,-0.013,1.160,-0.373,0.467,0.039,-0.086,107.817,0.779,1.699,1.506,3,3,3.270
1780148177825,0.004,1.188,-0.363,0.513,0.032,-0.085,106.495,-0.416,1.843,1.697,3,3,3.360
1780148177838,0.023,1.215,-0.343,0.563,0.017,-0.085,104.688,-1.640,1.857,1.917,4,4,3.967
1780148177855,0.035,1.241,-0.321,0.626,-0.003,-0.086,102.798,-2.357,1.830,2.306,4,4,3.269
1780148177868,0.030,1.267,-0.316,0.695,-0.017,-0.093,102.224,-1.904,1.843,2.545,4,4,3.251
1780148177881,0.016,1.280,-0.337,0.762,-0.011,-0.105,103.563,-0.837,1.774,2.539,4,4,3.297
1780148177895,0.014,1.237,-0.368,0.827,-0.008,-0.118,109.314,-0.614,1.109,2.544,4,4,3.261
1780148177909,0.040,1.211,-0.373,0.886,-0.014,-0.139,110.946,-4.053,1.004,2.512,4,4,4.500
1780148177923,0.068,1.177,-0.354,0.915,-0.038,-0.138,108.049,-9.157,0.829,1.818,4,4,3.221
1780148177936,0.092,1.152,-0.328,0.902,-0.088,-0.127,104.246,-12.426,0.876,1.485,4,4,3.217
1780148177949,0.091,1.139,-0.296,0.872,-0.123,-0.126,100.517,-11.628,0.939,1.048,4,4,3.226
1780148177963,0.091,1.124,-0.266,0.837,-0.149,-0.121,96.961,-11.118,0.901,0.825,4,4,3.219
1780148177976,0.090,1.101,-0.238,0.794,-0.167,-0.113,93.317,-10.597,0.721,0.713,4,4,3.701
1780148177990,0.088,1.073,-0.211,0.740,-0.176,-0.104,89.306,-10.001,0.594,0.804,4,4,3.233
1780148178003,0.088,1.045,-0.186,0.675,-0.179,-0.093,85.529,-9.911,0.580,1.048,4,4,3.299
1780148178018,0.091,1.019,-0.161,0.602,-0.178,-0.079,82.109,-10.324,0.607,1.339,4,4,4.785
1780148178032,0.094,0.995,-0.138,0.520,-0.174,-0.062,79.174,-10.816,0.610,1.648,4,4,3.231
1780148178045,0.099,0.974,-0.117,0.430,-0.169,-0.042,77.053,-11.438,0.647,1.964,4,4,3.697
1780148178059,0.104,0.958,-0.098,0.334,-0.165,-0.018,75.796,-11.991,0.723,2.258,4,4,3.229
1780148178075,0.109,0.951,-0.082,0.232,-0.163,0.008,75.363,-12.229,0.869,2.501,4,4,4.563
1780148178088,0.112,0.949,-0.069,0.131,-0.163,0.037,75.460,-12.178,0.947,2.618,4,4,3.230
1780148178102,0.110,0.953,-0.060,0.033,-0.167,0.067,76.097,-11.345,1.051,2.657,4,4,3.260
1780148178118,0.102,0.963,-0.054,-0.061,-0.169,0.097,77.100,-9.917,1.174,2.655,5,5,3.734
1780148178131,0.087,0.978,-0.053,-0.151,-0.169,0.125,78.424,-7.992,1.338,2.651,5,5,3.227
1780148178145,0.068,0.997,-0.056,-0.238,-0.162,0.151,79.975,-5.898,1.448,2.636,5,5,3.231
1780148178159,0.047,1.021,-0.061,-0.322,-0.146,0.174,81.568,-3.959,1.625,2.631,5,5,3.233
1780148178172,0.029,1.054,-0.070,-0.403,-0.122,0.195,83.157,-2.479,1.832,2.658,5,5,3.281
1780148178187,0.018,1.098,-0.083,-0.481,-0.092,0.215,84.803,-1.645,2.094,2.688,5,5,4.916
1780148178201,0.011,1.145,-0.106,-0.556,-0.062,0.233,86.745,-1.190,2.261,2.701,5,5,3.234
1780148178214,0.009,1.189,-0.135,-0.626,-0.031,0.246,88.942,-0.983,2.298,2.631,5,5,3.243
1780148178227,0.009,1.228,-0.173,-0.687,-0.003,0.254,91.494,-0.884,2.308,2.420,5,5,3.241
1780148178241,0.007,1.255,-0.220,-0.742,0.023,0.260,94.616,-0.705,2.217,2.332,5,5,3.234
1780148178256,0.002,1.269,-0.274,-0.799,0.048,0.267,98.225,-0.388,2.158,2.427,5,5,5.199
1780148178270,-0.003,1.279,-0.338,-0.851,0.077,0.274,102.117,-0.092,2.298,2.389,5,5,3.791
1780148178283,-0.018,1.281,-0.404,-0.893,0.112,0.278,106.153,0.759,2.295,2.258,5,5,3.217
1780148178297,-0.033,1.279,-0.480,-0.923,0.153,0.279,110.322,1.446,2.496,2.122,5,5,3.244
1780148178310,-0.035,1.272,-0.565,-0.938,0.194,0.277,114.577,1.476,2.681,1.834,5,5,3.226
1780148178324,-0.030,1.261,-0.659,-0.933,0.227,0.277,118.864,1.213,2.892,1.372,5,5,4.418
1780148178338,-0.035,1.245,-0.751,-0.907,0.249,0.273,122.967,1.349,2.905,0.882,5,5,3.246
1780148178351,-0.049,1.227,-0.831,-0.865,0.267,0.263,126.670,1.956,2.731,0.767,5,5,3.231
1780148178368,-0.081,1.246,-0.894,-0.800,0.303,0.225,128.340,3.213,2.922,1.694,5,5,5.290
1780148178381,-0.095,1.366,-0.823,-0.678,0.317,0.219,123.705,3.442,4.086,2.595,5,5,3.234
1780148178400,-0.102,1.298,-0.784,-0.560,0.294,0.216,105.509,7.973,0.332,2.524,5,5,9.375
1780148178414,-0.114,1.296,-0.810,-0.447,0.279,0.225,108.544,8.300,1.906,2.547,5,5,3.237
1780148178427,-0.104,1.235,-0.804,-0.391,0.257,0.237,82.051,6.699,0.691,1.215,5,5,3.225
1780148178440,-0.074,1.221,-0.811,-0.362,0.251,0.199,87.261,3.820,1.463,0.890,5,5,3.230
1780148178454,-0.067,1.207,-0.787,-0.364,0.238,0.177,88.974,2.887,0.942,0.573,5,5,3.235
1780148178470,-0.069,1.189,-0.771,-0.354,0.225,0.166,91.718,3.298,0.918,0.199,1,1,7.163
1780148178484,-0.061,1.182,-0.747,-0.339,0.211,0.155,92.756,2.366,1.046,0.199,1,1,3.221
1780148178500,-0.062,1.172,-0.727,-0.325,0.197,0.149,94.038,2.617,1.007,0.175,1,1,5.688
1780148178514,-0.063,1.166,-0.702,-0.308,0.185,0.146,94.520,2.771,1.044,0.181,1,1,3.239
1780148178528,-0.060,1.158,-0.682,-0.290,0.178,0.144,95.366,2.521,1.027,0.203,1,1,3.242
1780148178542,-0.059,1.153,-0.662,-0.271,0.172,0.141,96.037,2.482,1.058,0.238,1,1,3.769
1780148178555,-0.061,1.146,-0.644,-0.254,0.167,0.140,96.821,2.753,1.026,0.236,1,1,3.227
1780148178569,-0.062,1.139,-0.627,-0.237,0.163,0.141,97.534,3.010,1.027,0.255,1,1,3.255
1780148178582,-0.060,1.134,-0.609,-0.222,0.161,0.142,97.985,2.739,1.045,0.264,1,1,3.220
1780148178595,-0.049,1.128,-0.593,-0.209,0.158,0.141,98.562,1.506,1.039,0.197,1,1,3.245
1780148178609,-0.040,1.120,-0.580,-0.197,0.154,0.137,99.305,0.507,1.004,0.103,1,1,3.724
1780148178623,-0.035,1.115,-0.565,-0.188,0.148,0.132,99.743,0.090,1.030,0.072,1,1,3.222
1780148178636,-0.034,1.111,-0.550,-0.177,0.143,0.126,100.004,0.105,1.056,0.109,1,1,3.258
1780148178649,-0.035,1.107,-0.537,-0.165,0.139,0.120,100.345,0.375,1.047,0.136,1,1,3.218
1780148178663,-0.033,1.102,-0.525,-0.154,0.135,0.116,100.751,0.357,1.038,0.149,1,1,3.235
1780148178676,-0.030,1.098,-0.513,-0.143,0.131,0.111,101.091,0.088,1.034,0.151,1,1,3.730
1780148178691,-0.024,1.094,-0.502,-0.131,0.126,0.105,101.409,-0.469,1.038,0.172,1,1,3.689
1780148178705,-0.017,1.089,-0.492,-0.120,0.120,0.096,101.759,-1.118,1.034,0.213,1,1,3.241
1780148178718,-0.012,1.085,-0.482,-0.109,0.113,0.086,102.063,-1.545,1.042,0.280,1,1,3.218
1780148178731,-0.010,1.082,-0.473,-0.096,0.106,0.073,102.371,-1.620,1.046,0.349,1,1,3.230
1780148178744,-0.010,1.079,-0.465,-0.083,0.099,0.061,102.685,-1.348,1.050,0.387,1,1,3.682
1780148178758,-0.010,1.076,-0.457,-0.068,0.092,0.048,102.981,-1.218,1.058,0.433,1,1,3.253
1780148178772,-0.010,1.074,-0.450,-0.053,0.085,0.035,103.337,-1.069,1.063,0.461,1,1,3.233
1780148178785,-0.011,1.071,-0.444,-0.038,0.078,0.022,103.728,-0.803,1.057,0.486,1,1,3.222
1780148178798,-0.012,1.068,-0.439,-0.023,0.071,0.009,104.159,-0.507,1.052,0.484,1,1,3.233
1780148178812,-0.014,1.066,-0.435,-0.009,0.064,-0.001,104.571,-0.148,1.084,0.468,1,1,3.683
1780148178825,-0.013,1.065,-0.431,0.005,0.058,-0.013,104.925,-0.221,1.114,0.496,1,1,3.246
1780148178839,-0.013,1.066,-0.429,0.019,0.051,-0.023,105.277,-0.063,1.138,0.483,1,1,3.258
1780148178852,-0.015,1.067,-0.426,0.033,0.044,-0.032,105.579,0.191,1.160,0.498,1,1,3.223
1780148178865,-0.019,1.070,-0.423,0.048,0.036,-0.039,105.771,0.610,1.190,0.517,1,1,3.327
1780148178879,-0.022,1.073,-0.420,0.065,0.029,-0.044,105.937,1.026,1.204,0.559,3,3,3.785
1780148178894,-0.028,1.077,-0.417,0.084,0.023,-0.048,106.024,1.648,1.208,0.627,3,3,3.421
1780148178908,-0.027,1.081,-0.416,0.107,0.016,-0.047,106.212,1.473,1.241,0.708,3,3,3.336
1780148178921,-0.049,1.089,-0.412,0.131,0.018,-0.056,106.108,3.426,1.412,0.833,3,3,3.289
1780148178935,-0.061,1.097,-0.410,0.158,0.026,-0.067,106.113,4.372,1.371,0.932,3,3,4.286
1780148178950,-0.069,1.109,-0.410,0.186,0.035,-0.077,106.129,4.954,1.431,1.025,3,3,4.420
1780148178964,-0.074,1.122,-0.409,0.216,0.045,-0.089,106.116,5.116,1.473,1.113,3,3,3.254
1780148178977,-0.076,1.136,-0.409,0.248,0.055,-0.101,106.066,5.040,1.506,1.188,3,3,3.246
1780148178990,-0.084,1.156,-0.408,0.281,0.065,-0.113,105.789,5.452,1.674,1.264,3,3,3.224
1780148179004,-0.092,1.183,-0.405,0.316,0.080,-0.129,105.364,5.703,1.812,1.423,3,3,3.297
1780148179017,-0.076,1.207,-0.401,0.355,0.091,-0.142,104.890,4.342,1.776,1.485,3,3,3.685
1780148179031,-0.060,1.231,-0.395,0.398,0.095,-0.151,104.247,3.061,1.799,1.580,3,3,3.227
1780148179044,-0.044,1.259,-0.384,0.445,0.093,-0.159,103.311,1.897,1.898,1.709,3,3,3.276
1780148179058,-0.023,1.291,-0.365,0.498,0.086,-0.166,101.929,0.498,2.054,1.905,3,3,3.312
1780148179071,0.008,1.323,-0.337,0.556,0.066,-0.172,100.056,-1.324,2.140,2.147,3,3,3.238
1780148179084,0.034,1.350,-0.307,0.624,0.035,-0.184,98.145,-2.796,2.080,2.561,4,4,3.689
1780148179098,0.052,1.369,-0.291,0.694,0.004,-0.214,97.181,-3.846,1.837,2.810,4,4,3.226
1780148179112,0.047,1.344,-0.324,0.761,-0.004,-0.252,101.547,-3.195,1.301,2.791,4,4,3.243
1780148179125,0.044,1.322,-0.360,0.826,-0.013,-0.288,105.596,-2.783,1.430,2.798,4,4,3.228
1780148179138,0.089,1.286,-0.352,0.856,-0.017,-0.313,105.860,-8.606,1.200,1.901,4,4,3.236
1780148179152,0.103,1.261,-0.320,0.878,-0.042,-0.312,101.757,-10.354,0.926,1.642,4,4,3.687
1780148179165,0.086,1.251,-0.294,0.873,-0.037,-0.321,99.191,-7.873,1.091,0.932,4,4,3.218
1780148179179,0.093,1.226,-0.269,0.852,-0.022,-0.325,96.171,-8.815,0.785,0.659,4,4,3.225
1780148179192,0.102,1.200,-0.243,0.819,-0.004,-0.320,93.011,-10.252,0.784,0.491,4,4,3.226
1780148179205,0.115,1.170,-0.216,0.774,0.011,-0.310,89.371,-12.330,0.738,0.561,4,4,3.354
1780148179223,0.130,1.137,-0.191,0.719,0.020,-0.294,85.472,-14.911,0.704,0.778,4,4,7.397
1780148179237,0.146,1.103,-0.165,0.655,0.022,-0.272,81.406,-17.659,0.742,1.049,4,4,3.232
1780148179251,0.161,1.070,-0.141,0.582,0.018,-0.246,77.694,-20.052,0.721,1.374,4,4,3.237
1780148179264,0.173,1.040,-0.119,0.502,0.011,-0.216,74.637,-21.765,0.674,1.697,4,4,3.229
1780148179277,0.182,1.015,-0.098,0.413,0.003,-0.182,72.639,-22.874,0.695,2.015,4,4,3.238
1780148179291,0.189,0.996,-0.079,0.320,-0.006,-0.144,71.372,-23.308,0.748,2.283,4,4,3.790
1780148179304,0.193,0.982,-0.063,0.223,-0.012,-0.103,70.908,-23.089,0.807,2.503,4,4,3.238
1780148179318,0.196,0.976,-0.049,0.123,-0.016,-0.059,71.215,-22.459,0.916,2.697,4,4,3.226
1780148179331,0.198,0.976,-0.041,0.025,-0.019,-0.013,72.204,-21.642,1.018,2.770,4,4,3.238
1780148179345,0.200,0.984,-0.036,-0.068,-0.021,0.034,73.569,-20.665,1.179,2.799,4,4,3.252
1780148179358,0.199,0.998,-0.035,-0.159,-0.025,0.082,75.184,-19.490,1.312,2.833,5,5,3.687
1780148179372,0.194,1.019,-0.038,-0.245,-0.027,0.130,76.977,-17.890,1.487,2.855,5,5,3.229
1780148179385,0.185,1.048,-0.043,-0.329,-0.027,0.178,78.692,-16.148,1.682,2.874,5,5,3.311
1780148179401,0.175,1.090,-0.052,-0.410,-0.025,0.224,80.446,-14.522,2.041,2.887,5,5,5.708
1780148179414,0.164,1.146,-0.069,-0.487,-0.023,0.269,82.384,-12.959,2.396,2.878,5,5,3.262
1780148179430,0.149,1.205,-0.098,-0.562,-0.023,0.314,84.619,-11.337,2.616,2.904,5,5,3.696
1780148179443,0.126,1.257,-0.139,-0.634,-0.021,0.354,87.370,-9.516,2.628,2.865,5,5,3.230
1780148179457,0.097,1.304,-0.191,-0.703,-0.019,0.387,90.446,-7.504,2.750,2.799,5,5,3.227
1780148179470,0.058,1.341,-0.256,-0.770,-0.016,0.415,94.030,-5.251,2.827,2.744,5,5,3.212
1780148179484,0.016,1.365,-0.336,-0.824,-0.010,0.433,98.186,-3.046,2.957,2.408,5,5,3.911
1780148179497,-0.021,1.373,-0.433,-0.861,-0.004,0.445,102.986,-1.302,3.105,1.981,5,5,3.683
1780148179511,-0.048,1.376,-0.545,-0.874,0.000,0.454,107.894,-0.121,3.385,1.401,5,5,3.224
1780148179524,-0.089,1.361,-0.665,-0.862,-0.001,0.461,113.080,1.407,3.581,0.841,5,5,3.277
1780148179538,-0.153,1.338,-0.776,-0.828,0.001,0.455,118.058,3.640,3.654,0.312,5,5,3.224
1780148179552,-0.216,1.315,-0.872,-0.775,0.008,0.434,122.511,5.914,3.471,0.661,5,5,3.956
1780148179565,-0.256,1.296,-0.948,-0.705,0.013,0.403,126.177,7.459,2.971,1.178,5,5,3.724
1780148179579,-0.315,1.202,-0.966,-0.624,0.077,0.331,100.133,11.034,2.286,2.756,5,5,3.263
1780148179592,-0.227,1.324,-0.749,-0.508,0.047,0.233,94.889,8.389,5.908,3.481,5,5,3.258
1780148179606,-0.351,1.207,-0.735,-0.396,0.069,0.227,75.592,13.767,3.373,2.581,5,5,3.238
1780148179619,-0.366,1.194,-0.819,-0.289,0.110,0.220,83.702,13.799,2.891,2.766,5,5,3.252
1780148179632,-0.309,1.144,-0.803,-0.255,0.093,0.216,92.276,6.359,1.042,0.721,1,1,3.721
1780148179648,-0.293,1.130,-0.806,-0.215,0.081,0.188,96.474,5.502,1.194,1.005,1,1,3.226
1780148179661,-0.287,1.111,-0.800,-0.206,0.076,0.171,100.002,5.887,0.987,0.283,1,1,3.223
1780148179674,-0.266,1.098,-0.785,-0.201,0.073,0.153,101.840,4.166,0.948,0.307,1,1,3.218
1780148179688,-0.253,1.092,-0.767,-0.199,0.063,0.138,102.784,3.656,1.043,0.361,1,1,3.681
1780148179701,-0.236,1.090,-0.745,-0.193,0.051,0.126,102.873,2.604,1.069,0.334,1,1,3.719
1780148179715,-0.228,1.087,-0.722,-0.184,0.042,0.122,102.890,2.536,1.048,0.193,1,1,3.249
1780148179729,-0.223,1.084,-0.702,-0.169,0.036,0.121,102.941,2.879,1.070,0.261,1,1,3.235
1780148179742,-0.215,1.082,-0.681,-0.154,0.032,0.123,102.964,2.815,1.060,0.313,1,1,3.231
1780148179758,-0.210,1.078,-0.664,-0.138,0.031,0.126,103.197,3.114,1.042,0.334,1,1,3.810
1780148179771,-0.203,1.077,-0.646,-0.123,0.031,0.131,103.283,3.060,1.070,0.378,1,1,3.698
1780148179786,-0.184,1.073,-0.632,-0.110,0.031,0.133,103.748,1.623,1.064,0.292,1,1,4.750
1780148179800,-0.164,1.068,-0.619,-0.100,0.029,0.130,104.294,0.044,1.060,0.172,1,1,3.283
1780148179813,-0.149,1.064,-0.606,-0.092,0.027,0.125,104.592,-0.962,1.051,0.135,1,1,3.230
1780148179826,-0.139,1.063,-0.593,-0.083,0.025,0.117,104.792,-1.247,1.069,0.168,1,1,3.238
1780148179840,-0.133,1.061,-0.579,-0.073,0.024,0.109,104.869,-1.135,1.071,0.202,1,1,3.697
1780148179853,-0.129,1.060,-0.568,-0.063,0.024,0.104,105.078,-0.748,1.072,0.217,1,1,3.228
1780148179867,-0.122,1.058,-0.557,-0.052,0.023,0.099,105.320,-0.880,1.086,0.239,1,1,3.223
1780148179880,-0.112,1.058,-0.547,-0.040,0.022,0.093,105.491,-1.348,1.102,0.264,1,1,3.223
1780148179893,-0.100,1.058,-0.538,-0.028,0.020,0.086,105.687,-1.944,1.110,0.307,1,1,3.315
1780148179908,-0.091,1.057,-0.529,-0.014,0.018,0.078,105.873,-2.326,1.106,0.367,1,1,3.884
1780148179924,-0.085,1.057,-0.520,0.000,0.015,0.069,106.059,-2.331,1.107,0.421,1,1,5.037
1780148179937,-0.081,1.057,-0.513,0.016,0.011,0.061,106.321,-2.115,1.111,0.461,1,1,3.236
1780148179950,-0.078,1.057,-0.507,0.033,0.007,0.055,106.615,-1.925,1.114,0.490,1,1,3.224
1780148179964,-0.072,1.056,-0.502,0.050,0.002,0.051,106.939,-1.986,1.125,0.512,1,1,3.739
1780148179977,-0.056,1.058,-0.498,0.067,-0.009,0.054,107.282,-3.137,1.198,0.604,1,1,3.687
1780148179991,-0.043,1.057,-0.495,0.085,-0.019,0.052,107.784,-3.944,1.155,0.611,1,1,3.230
1780148180005,-0.040,1.056,-0.492,0.102,-0.028,0.048,108.230,-3.803,1.108,0.605,1,1,3.253
1780148180018,-0.034,1.055,-0.488,0.119,-0.038,0.045,108.558,-3.822,1.125,0.632,1,1,3.335
1780148180031,-0.033,1.056,-0.486,0.137,-0.046,0.042,108.866,-3.408,1.150,0.658,1,1,3.283
1780148180046,-0.035,1.058,-0.483,0.156,-0.053,0.038,109.067,-2.707,1.178,0.695,1,1,3.692
1780148180060,-0.041,1.062,-0.480,0.177,-0.057,0.033,109.175,-1.721,1.242,0.754,1,1,3.232
1780148180073,-0.049,1.069,-0.478,0.201,-0.058,0.027,109.173,-0.641,1.305,0.825,1,1,3.267
1780148180087,-0.057,1.077,-0.475,0.227,-0.055,0.020,109.108,0.369,1.361,0.914,1,1,3.317
1780148180105,-0.063,1.088,-0.475,0.256,-0.049,0.012,109.111,1.054,1.421,1.035,1,1,3.308
1780148180118,-0.065,1.102,-0.474,0.287,-0.042,0.004,109.048,1.339,1.470,1.127,4,4,3.782
1780148180133,-0.062,1.117,-0.474,0.321,-0.033,-0.003,108.957,1.227,1.522,1.227,4,4,3.481
1780148180146,-0.058,1.136,-0.473,0.358,-0.026,-0.007,108.693,1.010,1.625,1.328,4,4,3.231
1780148180159,-0.085,1.167,-0.467,0.397,-0.014,-0.013,107.869,2.837,1.988,1.458,4,4,3.220
1780148180174,-0.060,1.202,-0.459,0.440,0.002,-0.020,106.978,1.222,2.060,1.634,4,4,3.301
1780148180187,-0.027,1.243,-0.447,0.491,0.006,-0.016,105.819,-0.572,2.252,1.796,4,4,3.675
1780148180201,-0.010,1.289,-0.424,0.548,0.004,-0.005,104.112,-1.393,2.333,2.054,4,4,3.226
1780148180214,0.013,1.340,-0.390,0.612,-0.006,0.010,102.008,-2.351,2.517,2.326,4,4,3.239
1780148180228,0.033,1.384,-0.355,0.682,-0.025,0.027,99.921,-3.221,2.434,2.593,4,4,3.224
1780148180241,0.018,1.416,-0.340,0.749,-0.034,0.030,98.976,-2.134,2.145,2.520,4,4,3.285
1780148180254,0.015,1.379,-0.373,0.814,-0.011,0.022,104.146,-1.623,1.243,2.579,4,4,3.684
1780148180268,0.088,1.360,-0.382,0.877,-0.029,0.003,105.800,-6.901,2.027,2.600,4,4,3.221
1780148180282,0.122,1.335,-0.361,0.937,-0.079,-0.001,103.620,-10.674,1.167,2.850,4,4,3.253
1780148180296,0.153,1.301,-0.331,0.961,-0.157,0.020,99.514,-14.707,1.064,2.761,4,4,3.223
1780148180309,0.161,1.276,-0.295,0.934,-0.233,0.034,95.285,-15.215,0.955,2.259,4,4,3.572
1780148180323,0.147,1.257,-0.257,0.897,-0.285,0.035,91.536,-12.848,1.019,1.630,4,4,3.705
1780148180337,0.139,1.226,-0.223,0.853,-0.319,0.042,87.339,-11.517,0.757,1.270,4,4,3.225
1780148180350,0.132,1.190,-0.194,0.797,-0.341,0.056,82.931,-10.077,0.598,1.174,4,4,3.239
1780148180363,0.129,1.151,-0.165,0.734,-0.351,0.071,78.222,-9.808,0.563,1.193,4,4,3.234
1780148180376,0.130,1.112,-0.139,0.664,-0.353,0.088,73.723,-10.407,0.531,1.329,4,4,3.220
1780148180390,0.133,1.075,-0.114,0.586,-0.348,0.109,69.666,-11.439,0.529,1.601,4,4,3.706
1780148180404,0.137,1.040,-0.091,0.498,-0.340,0.134,66.346,-12.720,0.562,1.960,4,4,3.228
1780148180418,0.143,1.014,-0.067,0.400,-0.331,0.161,64.212,-13.656,0.693,2.297,4,4,4.420
1780148180431,0.148,0.995,-0.045,0.295,-0.320,0.190,63.186,-14.211,0.756,2.613,4,4,3.299
1780148180445,0.150,0.985,-0.023,0.191,-0.309,0.222,62.805,-14.103,0.904,2.721,4,4,3.351
1780148180458,0.151,0.979,-0.004,0.091,-0.298,0.256,62.866,-13.752,0.965,2.747,4,4,3.725
1780148180472,0.148,0.983,0.011,-0.005,-0.286,0.292,63.801,-12.867,1.146,2.786,4,4,3.226
1780148180485,0.145,0.995,0.019,-0.097,-0.275,0.329,65.435,-11.985,1.267,2.807,4,4,3.227
1780148180499,0.135,1.012,0.020,-0.186,-0.266,0.363,67.600,-10.492,1.393,2.802,4,4,3.227
1780148180512,0.118,1.037,0.019,-0.272,-0.255,0.394,69.768,-8.638,1.585,2.773,4,4,3.233
1780148180525,0.099,1.068,0.015,-0.355,-0.239,0.423,71.953,-6.829,1.784,2.768,5,5,3.729
1780148180539,0.079,1.114,0.006,-0.435,-0.218,0.450,74.132,-5.254,2.151,2.775,5,5,3.226
1780148180552,0.064,1.181,-0.011,-0.511,-0.196,0.475,76.425,-4.225,2.705,2.761,5,5,3.228
1780148180566,0.054,1.253,-0.046,-0.585,-0.175,0.499,79.244,-3.521,2.930,2.765,5,5,3.236
1780148180579,0.047,1.313,-0.100,-0.656,-0.159,0.516,82.729,-3.003,2.934,2.701,5,5,3.233
1780148180592,0.034,1.370,-0.174,-0.725,-0.146,0.531,86.701,-2.284,3.167,2.665,5,5,3.702
1780148180610,0.011,1.405,-0.273,-0.790,-0.134,0.538,91.594,-1.240,3.314,2.604,5,5,3.605
1780148180623,-0.023,1.422,-0.389,-0.835,-0.114,0.541,97.019,0.078,3.516,2.137,5,5,3.284
1780148180636,-0.059,1.423,-0.516,-0.857,-0.087,0.543,102.665,1.314,3.678,1.667,5,5,3.234
1780148180650,-0.097,1.409,-0.649,-0.855,-0.059,0.540,108.387,2.548,3.845,1.140,5,5,3.222
1780148180663,-0.142,1.385,-0.781,-0.827,-0.034,0.527,113.920,3.860,3.949,0.653,1,1,3.730
1780148180677,-0.183,1.364,-0.901,-0.775,-0.015,0.502,118.827,5.093,3.780,0.766,1,1,3.237
1780148180690,-0.220,1.347,-0.993,-0.701,-0.003,0.467,122.957,6.292,3.318,1.325,1,1,3.224
1780148180703,-0.290,1.243,-1.031,-0.607,0.042,0.408,96.901,9.547,2.818,2.479,1,1,3.250
1780148180717,-0.152,1.363,-0.811,-0.492,0.006,0.317,91.964,6.078,6.344,3.351,1,1,3.227
1780148180730,-0.282,1.206,-0.786,-0.384,0.031,0.311,74.060,10.667,3.843,2.512,5,5,3.789
1780148180744,-0.316,1.232,-0.878,-0.277,0.069,0.309,81.090,11.308,3.557,2.726,5,5,3.254
1780148180757,-0.281,1.139,-0.870,-0.240,0.042,0.300,61.250,8.067,1.238,0.982,5,5,3.236
1780148180771,-0.223,1.157,-0.851,-0.179,0.044,0.255,65.446,4.159,1.934,1.687,5,5,3.232
1780148180784,-0.236,1.115,-0.845,-0.171,0.035,0.231,74.969,7.085,0.916,0.443,5,5,3.266
1780148180797,-0.219,1.104,-0.825,-0.154,0.034,0.209,78.650,5.558,0.967,0.453,1,1,3.711
1780148180811,-0.219,1.092,-0.810,-0.154,0.028,0.193,82.664,6.255,0.972,0.306,1,1,3.239
1780148180824,-0.199,1.090,-0.785,-0.157,0.018,0.178,84.540,4.450,1.101,0.399,1,1,3.231
1780148180838,-0.192,1.086,-0.762,-0.154,0.011,0.172,86.449,4.289,1.039,0.178,1,1,3.241
1780148180851,-0.182,1.083,-0.739,-0.147,0.006,0.167,88.079,3.688,1.046,0.129,1,1,3.243
1780148180864,-0.176,1.079,-0.719,-0.138,0.003,0.164,89.701,3.551,1.040,0.159,1,1,3.684
1780148180878,-0.166,1.077,-0.699,-0.127,0.001,0.162,91.058,2.991,1.057,0.182,1,1,3.251
1780148180892,-0.162,1.073,-0.681,-0.118,0.000,0.161,92.487,3.021,1.035,0.190,1,1,3.230
1780148180905,-0.156,1.070,-0.663,-0.108,0.001,0.161,93.677,2.932,1.043,0.223,1,1,3.226
1780148180918,-0.147,1.068,-0.646,-0.099,0.002,0.161,94.754,2.355,1.057,0.203,1,1,3.278
1780148180932,-0.132,1.065,-0.630,-0.091,0.002,0.158,95.881,1.065,1.057,0.130,1,1,3.699
1780148180945,-0.119,1.061,-0.616,-0.085,0.000,0.152,96.989,0.105,1.031,0.081,1,1,3.300
1780148180959,-0.107,1.059,-0.601,-0.079,-0.001,0.143,97.780,-0.717,1.061,0.117,1,1,3.740
1780148180973,-0.101,1.057,-0.587,-0.072,-0.002,0.134,98.482,-0.785,1.056,0.164,1,1,3.235
1780148180986,-0.098,1.056,-0.574,-0.064,-0.003,0.125,99.116,-0.512,1.062,0.188,1,1,3.247
1780148180999,-0.094,1.054,-0.562,-0.054,-0.003,0.118,99.829,-0.460,1.056,0.210,1,1,3.703
1780148181013,-0.087,1.052,-0.550,-0.044,-0.004,0.110,100.451,-0.791,1.066,0.250,1,1,3.230
1780148181029,-0.077,1.051,-0.539,-0.032,-0.005,0.100,101.039,-1.440,1.076,0.318,1,1,5.291
1780148181042,-0.066,1.049,-0.530,-0.019,-0.006,0.085,101.642,-2.186,1.084,0.428,1,1,3.250
1780148181055,-0.061,1.049,-0.521,-0.005,-0.008,0.073,102.165,-2.196,1.087,0.441,1,1,3.221
1780148181069,-0.056,1.049,-0.512,0.010,-0.010,0.057,102.670,-2.206,1.090,0.547,1,1,3.704
1780148181082,-0.056,1.049,-0.505,0.027,-0.013,0.047,103.155,-1.749,1.121,0.514,1,1,3.227
1780148181096,-0.055,1.051,-0.499,0.044,-0.016,0.038,103.689,-1.400,1.139,0.525,1,1,3.260
1780148181109,-0.052,1.052,-0.494,0.060,-0.019,0.030,104.237,-1.301,1.151,0.534,1,1,3.238
1780148181122,-0.050,1.053,-0.489,0.077,-0.024,0.024,104.793,-1.237,1.136,0.547,1,1,3.224
1780148181136,-0.046,1.054,-0.484,0.094,-0.031,0.021,105.238,-1.252,1.145,0.580,1,1,3.847
1780148181150,-0.031,1.057,-0.483,0.112,-0.048,0.024,105.899,-2.442,1.239,0.766,1,1,3.259
1780148181163,-0.036,1.055,-0.479,0.132,-0.055,0.021,106.324,-1.556,1.104,0.693,1,1,3.233
1780148181176,-0.040,1.060,-0.475,0.154,-0.058,0.015,106.601,-0.827,1.233,0.752,1,1,3.266
1780148181194,-0.053,1.067,-0.472,0.179,-0.057,0.008,106.706,0.655,1.331,0.858,1,1,3.255
1780148181207,-0.068,1.076,-0.469,0.207,-0.050,-0.001,106.787,2.200,1.395,0.969,4,4,3.710
1780148181221,-0.079,1.088,-0.466,0.238,-0.039,-0.012,106.838,3.204,1.439,1.089,4,4,3.481
1780148181234,-0.085,1.103,-0.466,0.270,-0.026,-0.022,106.880,3.627,1.515,1.202,4,4,3.227
1780148181248,-0.083,1.120,-0.465,0.306,-0.014,-0.033,106.891,3.425,1.567,1.304,4,4,3.307
1780148181261,-0.078,1.142,-0.465,0.344,-0.002,-0.043,106.775,2.992,1.691,1.403,4,4,3.225
1780148181274,-0.095,1.176,-0.461,0.386,0.010,-0.053,106.234,4.008,2.010,1.537,4,4,3.709
1780148181288,-0.073,1.218,-0.455,0.431,0.026,-0.067,105.534,2.593,2.189,1.726,4,4,3.259
1780148181302,-0.040,1.259,-0.445,0.484,0.031,-0.069,104.607,0.685,2.286,1.851,4,4,3.224
1780148181315,-0.018,1.307,-0.424,0.541,0.027,-0.066,103.132,-0.428,2.400,2.043,4,4,3.269
1780148181329,0.002,1.357,-0.393,0.599,0.016,-0.066,101.259,-1.335,2.494,2.115,4,4,3.430
1780148181342,0.029,1.398,-0.350,0.669,-0.003,-0.065,98.825,-2.612,2.457,2.522,4,4,3.793
1780148181356,0.043,1.431,-0.318,0.737,-0.029,-0.071,96.987,-3.247,2.211,2.610,4,4,3.477
1780148181369,0.026,1.420,-0.325,0.802,-0.024,-0.088,98.426,-1.496,1.337,2.560,4,4,3.216
1780148181383,0.054,1.356,-0.359,0.865,-0.023,-0.107,72.242,-4.310,1.287,2.569,4,4,3.216
1780148181396,0.102,1.328,-0.344,0.900,-0.049,-0.115,74.153,-9.358,1.354,1.982,4,4,3.451
1780148181410,0.143,1.305,-0.302,0.904,-0.123,-0.099,72.026,-12.830,1.470,2.299,4,4,3.681
1780148181423,0.136,1.295,-0.263,0.898,-0.180,-0.095,71.070,-11.513,1.223,1.802,4,4,3.286
1780148181437,0.129,1.270,-0.229,0.880,-0.219,-0.090,69.471,-10.252,0.877,1.306,4,4,3.286
1780148181450,0.124,1.236,-0.199,0.848,-0.246,-0.082,67.331,-9.351,0.687,0.952,4,4,3.227
1780148181464,0.119,1.197,-0.171,0.800,-0.261,-0.069,64.443,-8.516,0.553,0.837,4,4,4.083
1780148181478,0.119,1.159,-0.143,0.742,-0.267,-0.055,61.665,-8.818,0.587,0.924,4,4,4.220
1780148181492,0.121,1.122,-0.118,0.677,-0.264,-0.038,59.220,-9.785,0.550,1.100,4,4,3.246
1780148181506,0.127,1.085,-0.095,0.604,-0.257,-0.016,56.895,-11.330,0.561,1.398,4,4,3.253
1780148181519,0.133,1.051,-0.073,0.522,-0.248,0.009,54.972,-12.933,0.585,1.744,4,4,3.233
1780148181533,0.140,1.022,-0.051,0.431,-0.239,0.037,53.811,-14.170,0.645,2.068,4,4,3.536
1780148181546,0.146,1.001,-0.031,0.333,-0.228,0.068,53.710,-15.077,0.725,2.395,4,4,3.733
1780148181560,0.151,0.985,-0.011,0.231,-0.217,0.103,53.889,-15.409,0.817,2.609,4,4,3.245
1780148181573,0.154,0.973,0.009,0.130,-0.207,0.140,54.399,-15.269,0.861,2.733,4,4,3.240
1780148181586,0.154,0.971,0.026,0.032,-0.196,0.178,55.568,-14.681,1.025,2.759,4,4,3.234
1780148181600,0.154,0.980,0.039,-0.062,-0.186,0.216,57.382,-13.935,1.223,2.779,4,4,3.229
1780148181613,0.150,0.998,0.046,-0.152,-0.177,0.255,59.680,-12.885,1.410,2.801,5,5,3.863
1780148181627,0.142,1.026,0.046,-0.239,-0.167,0.292,62.412,-11.562,1.641,2.800,5,5,3.228
1780148181646,0.128,1.073,0.035,-0.323,-0.153,0.328,65.546,-9.955,2.113,2.807,5,5,3.391
1780148181659,0.105,1.136,0.016,-0.404,-0.132,0.362,68.726,-8.195,2.568,2.822,5,5,3.235
1780148181672,0.085,1.206,-0.013,-0.482,-0.103,0.390,72.017,-6.746,2.842,2.818,5,5,3.247
1780148181686,0.076,1.274,-0.056,-0.557,-0.064,0.410,75.605,-5.872,2.943,2.839,5,5,3.821
1780148181700,0.077,1.343,-0.114,-0.629,-0.021,0.432,79.450,-5.485,3.166,2.908,5,5,3.230
1780148181713,0.075,1.396,-0.194,-0.698,0.019,0.454,84.015,-5.003,3.205,2.896,5,5,3.230
1780148181726,0.057,1.431,-0.295,-0.765,0.058,0.469,89.209,-4.002,3.359,2.852,5,5,3.254
1780148181740,0.040,1.447,-0.414,-0.814,0.098,0.478,94.929,-3.098,3.515,2.483,5,5,3.226
1780148181756,0.025,1.443,-0.553,-0.832,0.130,0.488,101.042,-2.357,3.861,1.791,5,5,7.020
1780148181770,-0.010,1.427,-0.699,-0.820,0.156,0.488,107.086,-1.105,4.113,1.076,5,5,3.228
1780148181783,-0.049,1.409,-0.837,-0.779,0.174,0.473,112.616,0.218,4.086,0.713,5,5,3.225
1780148181797,-0.086,1.393,-0.947,-0.712,0.187,0.447,117.377,1.562,3.610,1.177,5,5,3.330
1780148181811,-0.114,1.385,-1.024,-0.627,0.197,0.412,121.069,2.710,3.057,1.742,5,5,3.753
1780148181824,-0.140,1.335,-1.062,-0.526,0.224,0.335,125.952,4.383,2.038,2.819,5,5,3.678
1780148181838,-0.130,1.452,-0.841,-0.462,0.236,0.284,118.251,3.879,5.657,1.669,5,5,3.250
1780148181851,-0.192,1.560,-0.684,-0.353,0.264,0.270,112.244,5.222,5.036,2.693,5,5,3.223
1780148181867,-0.172,1.507,-0.732,-0.265,0.258,0.275,117.643,3.939,1.820,2.049,5,5,6.054
1780148181881,-0.165,1.378,-0.838,-0.162,0.284,0.294,91.641,3.564,3.464,2.793,5,5,3.228
1780148181894,-0.137,1.398,-0.750,-0.117,0.262,0.316,88.380,2.080,2.221,1.409,4,4,3.785
1780148181908,-0.090,1.309,-0.820,-0.093,0.227,0.260,64.301,-0.127,2.619,1.478,4,4,3.288
1780148181921,-0.118,1.331,-0.782,-0.090,0.224,0.248,66.567,1.988,1.965,0.155,4,4,3.222
1780148181935,-0.102,1.298,-0.768,-0.090,0.215,0.226,72.537,-0.059,0.789,0.371,4,4,3.230
1780148181948,-0.102,1.284,-0.751,-0.095,0.201,0.212,76.162,0.472,1.051,0.319,4,4,3.236
1780148181961,-0.091,1.274,-0.727,-0.094,0.182,0.200,78.584,-0.350,1.073,0.346,1,1,3.686
1780148181978,-0.084,1.262,-0.706,-0.087,0.169,0.190,80.991,-0.666,1.031,0.199,1,1,5.623
1780148181991,-0.082,1.252,-0.687,-0.074,0.159,0.182,83.229,-0.404,1.066,0.283,1,1,3.336
1780148182005,-0.077,1.242,-0.668,-0.059,0.152,0.174,85.170,-0.481,1.057,0.318,1,1,3.302
1780148182018,-0.073,1.230,-0.652,-0.046,0.145,0.166,87.250,-0.518,1.030,0.310,1,1,3.260
1780148182031,-0.074,1.220,-0.636,-0.034,0.139,0.160,89.066,0.067,1.038,0.277,1,1,3.707
1780148182045,-0.074,1.211,-0.620,-0.023,0.135,0.156,90.598,0.406,1.055,0.266,1,1,3.229
1780148182059,-0.065,1.202,-0.606,-0.014,0.131,0.151,92.066,-0.333,1.060,0.226,1,1,3.246
1780148182072,-0.055,1.192,-0.593,-0.007,0.126,0.145,93.613,-1.160,1.042,0.165,1,1,3.234
1780148182085,-0.048,1.182,-0.582,-0.003,0.121,0.136,95.096,-1.639,1.021,0.139,1,1,3.231
1780148182099,-0.044,1.174,-0.570,0.000,0.116,0.128,96.204,-1.674,1.048,0.127,1,1,3.705
1780148182112,-0.044,1.166,-0.558,0.004,0.111,0.118,97.256,-1.309,1.042,0.169,1,1,3.230
1780148182126,-0.045,1.159,-0.547,0.008,0.107,0.112,98.175,-0.812,1.046,0.129,1,1,3.230
1780148182139,-0.042,1.152,-0.537,0.012,0.104,0.107,99.099,-0.825,1.047,0.125,1,1,3.282
1780148182152,-0.036,1.145,-0.528,0.016,0.100,0.101,99.915,-1.261,1.054,0.124,1,1,3.229
1780148182167,-0.031,1.139,-0.519,0.020,0.096,0.094,100.696,-1.582,1.053,0.145,1,1,3.803
1780148182181,-0.028,1.132,-0.511,0.024,0.091,0.087,101.429,-1.581,1.040,0.175,1,1,3.240
1780148182194,-0.027,1.126,-0.502,0.030,0.087,0.079,102.068,-1.464,1.040,0.215,1,1,3.236
1780148182208,-0.026,1.120,-0.494,0.037,0.082,0.071,102.568,-1.286,1.043,0.267,1,1,3.266
1780148182221,-0.024,1.115,-0.487,0.046,0.077,0.063,103.172,-1.235,1.048,0.311,1,1,3.226
1780148182234,-0.022,1.110,-0.481,0.056,0.072,0.054,103.688,-1.247,1.065,0.364,1,1,3.686
1780148182248,-0.020,1.106,-0.475,0.068,0.065,0.045,104.187,-1.227,1.082,0.433,1,1,3.246
1780148182262,-0.019,1.104,-0.470,0.081,0.059,0.035,104.620,-1.142,1.109,0.494,1,1,3.227
1780148182275,-0.017,1.103,-0.465,0.096,0.050,0.027,104.988,-1.170,1.146,0.548,1,1,3.229
1780148182288,-0.013,1.105,-0.461,0.113,0.038,0.022,105.290,-1.354,1.209,0.630,1,1,3.237
1780148182302,-0.004,1.109,-0.459,0.133,0.022,0.023,105.608,-2.110,1.275,0.767,1,1,3.684
1780148182315,-0.005,1.111,-0.456,0.155,0.007,0.022,105.904,-1.712,1.228,0.823,1,1,3.238
1780148182329,-0.018,1.115,-0.454,0.179,-0.001,0.015,106.180,-0.298,1.299,0.851,1,1,3.240
1780148182342,-0.033,1.121,-0.451,0.205,-0.003,0.006,106.315,1.185,1.352,0.915,1,1,3.287
1780148182355,-0.045,1.131,-0.450,0.233,0.001,-0.006,106.391,2.207,1.452,1.012,1,1,3.249
1780148182369,-0.053,1.145,-0.450,0.263,0.007,-0.019,106.454,2.820,1.531,1.107,4,4,3.676
1780148182382,-0.056,1.161,-0.450,0.296,0.014,-0.031,106.476,3.028,1.577,1.212,4,4,3.221
1780148182396,-0.059,1.181,-0.450,0.331,0.021,-0.042,106.396,3.098,1.687,1.315,4,4,3.260
1780148182409,-0.078,1.214,-0.448,0.370,0.031,-0.055,105.950,4.136,2.043,1.461,4,4,3.225
1780148182422,-0.068,1.251,-0.445,0.413,0.045,-0.071,105.410,3.343,2.107,1.643,4,4,3.233
1780148182436,-0.045,1.289,-0.438,0.461,0.051,-0.079,104.696,1.900,2.182,1.758,4,4,3.748
1780148182450,-0.033,1.331,-0.424,0.516,0.052,-0.081,103.571,1.176,2.268,1.931,4,4,3.234
1780148182463,-0.012,1.377,-0.398,0.575,0.046,-0.082,101.877,0.054,2.427,2.118,4,4,3.229
1780148182476,0.014,1.411,-0.367,0.639,0.032,-0.080,99.981,-1.381,2.257,2.324,4,4,3.258
1780148182490,0.045,1.433,-0.324,0.708,0.003,-0.085,97.334,-3.135,2.145,2.622,4,4,3.229
1780148182503,0.051,1.451,-0.295,0.775,-0.024,-0.099,95.625,-3.386,1.866,2.642,4,4,3.798
1780148182520,0.039,1.396,-0.334,0.839,-0.022,-0.122,102.751,-2.039,1.224,2.604,4,4,3.330
1780148182533,0.072,1.350,-0.343,0.885,-0.028,-0.142,106.932,-6.697,1.027,2.205,4,4,3.239
1780148182546,0.123,1.321,-0.305,0.881,-0.082,-0.133,101.751,-11.285,1.498,1.693,4,4,3.237
1780148182560,0.122,1.312,-0.268,0.874,-0.122,-0.132,98.182,-10.701,1.239,1.354,4,4,3.237
1780148182573,0.114,1.289,-0.237,0.858,-0.142,-0.134,94.607,-9.326,0.909,0.825,4,4,3.683
1780148182587,0.114,1.258,-0.206,0.827,-0.153,-0.129,90.500,-9.327,0.737,0.435,4,4,3.238
1780148182600,0.113,1.219,-0.178,0.781,-0.156,-0.124,85.677,-9.279,0.583,0.487,4,4,3.250
1780148182614,0.117,1.182,-0.150,0.724,-0.154,-0.115,81.360,-10.083,0.625,0.772,4,4,3.227
1780148182627,0.124,1.145,-0.124,0.659,-0.150,-0.103,77.031,-11.628,0.628,1.034,4,4,3.258
1780148182640,0.132,1.107,-0.099,0.585,-0.145,-0.087,72.800,-13.432,0.602,1.374,4,4,3.699
1780148182654,0.141,1.074,-0.075,0.502,-0.140,-0.067,69.297,-15.063,0.673,1.717,4,4,3.227
1780148182667,0.149,1.047,-0.050,0.413,-0.137,-0.043,66.825,-16.171,0.745,1.990,4,4,3.249
1780148182682,0.156,1.025,-0.029,0.315,-0.134,-0.016,65.459,-16.853,0.763,2.331,4,4,3.227
1780148182697,0.161,1.008,-0.007,0.214,-0.130,0.016,64.307,-16.945,0.838,2.554,4,4,4.673
1780148182710,0.163,0.999,0.013,0.113,-0.127,0.049,63.927,-16.535,0.945,2.661,4,4,3.721
1780148182724,0.164,0.999,0.031,0.016,-0.125,0.084,64.246,-15.940,1.086,2.694,4,4,3.226
1780148182739,0.164,1.007,0.044,-0.077,-0.126,0.122,65.235,-15.180,1.248,2.741,4,4,5.312
1780148182752,0.159,1.028,0.049,-0.167,-0.131,0.161,66.954,-13.903,1.505,2.765,4,4,3.231
1780148182766,0.148,1.059,0.046,-0.253,-0.134,0.198,69.199,-12.251,1.735,2.768,4,4,3.233
1780148182780,0.127,1.105,0.034,-0.337,-0.131,0.234,71.811,-10.232,2.145,2.760,5,5,4.561
1780148182794,0.099,1.166,0.010,-0.417,-0.113,0.267,74.655,-8.210,2.598,2.760,5,5,3.234
1780148182807,0.075,1.226,-0.027,-0.494,-0.078,0.293,77.808,-6.490,2.709,2.814,5,5,3.231
1780148182820,0.060,1.286,-0.072,-0.569,-0.026,0.314,81.102,-5.383,2.828,2.969,5,5,3.235
1780148182834,0.052,1.338,-0.135,-0.641,0.040,0.338,84.941,-4.626,2.900,3.186,5,5,3.224
1780148182847,0.041,1.373,-0.213,-0.710,0.112,0.360,89.424,-3.797,2.877,3.325,5,5,3.988
1780148182861,0.014,1.399,-0.299,-0.776,0.192,0.373,94.012,-2.402,2.999,3.448,5,5,3.230
1780148182875,-0.006,1.415,-0.389,-0.827,0.277,0.376,98.694,-1.363,2.969,3.338,5,5,3.219
1780148182888,-0.008,1.416,-0.494,-0.858,0.356,0.376,103.819,-1.129,3.135,2.944,5,5,3.233
1780148182901,0.015,1.407,-0.611,-0.866,0.411,0.372,109.101,-1.861,3.443,2.138,5,5,3.233
1780148182915,0.041,1.393,-0.732,-0.848,0.432,0.371,114.120,-2.592,3.594,1.115,5,5,3.887
1780148182929,0.038,1.375,-0.840,-0.807,0.428,0.365,118.769,-2.306,3.352,0.480,5,5,3.274
1780148182942,0.014,1.359,-0.925,-0.746,0.419,0.348,122.724,-1.140,2.996,0.871,5,5,3.257
1780148182955,-0.008,1.347,-0.983,-0.670,0.411,0.324,125.740,0.008,2.555,1.333,5,5,3.257
1780148182969,-0.050,1.351,-1.005,-0.583,0.425,0.272,126.636,2.404,2.285,2.147,5,5,3.262
1780148182987,-0.077,1.467,-0.786,-0.498,0.439,0.265,118.870,2.800,5.694,1.882,5,5,9.251
1780148183001,-0.075,1.344,-0.769,-0.390,0.462,0.248,97.449,2.675,1.404,2.649,5,5,3.264
1780148183016,-0.092,1.375,-0.863,-0.283,0.479,0.258,101.978,3.119,3.595,2.719,5,5,4.216
1780148183029,-0.083,1.283,-0.845,-0.221,0.448,0.258,80.623,2.224,0.876,1.448,5,5,3.254
1780148183043,-0.014,1.305,-0.841,-0.157,0.429,0.238,83.646,-1.599,2.455,1.523,5,5,3.328
1780148183056,-0.041,1.264,-0.835,-0.192,0.400,0.220,90.140,2.194,1.040,1.163,1,1,3.928
1780148183070,-0.026,1.250,-0.807,-0.183,0.382,0.205,91.165,0.244,1.006,0.227,1,1,3.253
1780148183086,-0.025,1.237,-0.787,-0.175,0.362,0.194,92.980,0.303,1.021,0.184,1,1,3.291
1780148183099,-0.014,1.229,-0.761,-0.164,0.340,0.184,93.652,-0.848,1.091,0.260,1,1,3.268
1780148183112,-0.008,1.217,-0.739,-0.153,0.322,0.175,94.827,-1.431,1.000,0.226,1,1,3.257
1780148183130,-0.006,1.207,-0.718,-0.137,0.307,0.165,95.709,-1.600,1.007,0.304,1,1,3.907
1780148183144,-0.007,1.199,-0.696,-0.122,0.294,0.156,96.333,-1.224,1.055,0.293,1,1,3.257
1780148183157,-0.009,1.189,-0.677,-0.109,0.281,0.148,97.181,-0.881,1.015,0.237,1,1,3.266
1780148183170,-0.009,1.182,-0.658,-0.097,0.270,0.140,97.706,-0.687,1.040,0.205,1,1,3.270
1780148183184,-0.005,1.174,-0.640,-0.087,0.260,0.132,98.246,-1.135,1.042,0.192,1,1,3.257
1780148183197,0.003,1.167,-0.623,-0.079,0.249,0.122,98.793,-1.938,1.061,0.206,1,1,3.924
1780148183215,0.007,1.158,-0.607,-0.073,0.237,0.110,99.458,-2.201,1.003,0.215,1,1,7.329
1780148183229,0.007,1.152,-0.592,-0.068,0.225,0.098,99.859,-2.070,1.047,0.235,1,1,3.247
1780148183242,0.004,1.146,-0.576,-0.062,0.214,0.087,100.216,-1.494,1.050,0.243,1,1,3.297
1780148183258,0.001,1.140,-0.562,-0.056,0.204,0.077,100.604,-1.006,1.029,0.210,1,1,4.085
1780148183272,0.001,1.134,-0.549,-0.050,0.195,0.068,100.976,-0.970,1.042,0.208,1,1,3.806
1780148183286,0.002,1.128,-0.537,-0.043,0.186,0.058,101.316,-1.040,1.039,0.230,1,1,3.249
1780148183299,0.003,1.122,-0.525,-0.036,0.176,0.049,101.682,-1.088,1.027,0.262,1,1,3.248
1780148183314,0.004,1.117,-0.514,-0.027,0.167,0.038,101.995,-1.114,1.030,0.315,1,1,5.117
1780148183328,0.004,1.111,-0.503,-0.017,0.158,0.025,102.344,-1.004,1.021,0.411,1,1,3.280
1780148183341,0.000,1.106,-0.493,-0.005,0.149,0.015,102.626,-0.448,1.049,0.396,1,1,3.838
1780148183355,-0.005,1.103,-0.484,0.008,0.141,0.006,102.906,0.136,1.066,0.427,1,1,3.257
1780148183368,-0.009,1.099,-0.476,0.022,0.133,-0.002,103.191,0.621,1.073,0.456,1,1,3.265
1780148183382,-0.012,1.097,-0.468,0.037,0.126,-0.011,103.461,0.935,1.094,0.484,1,1,3.251
1780148183395,-0.014,1.096,-0.461,0.053,0.120,-0.020,103.727,1.205,1.114,0.533,1,1,3.259
1780148183409,-0.019,1.095,-0.455,0.069,0.114,-0.028,104.002,1.667,1.121,0.556,1,1,3.838
1780148183423,-0.022,1.096,-0.450,0.087,0.107,-0.035,104.242,1.895,1.169,0.588,1,1,3.289
1780148183436,-0.018,1.089,-0.444,0.105,0.097,-0.031,104.632,1.422,0.989,0.611,1,1,3.262
1780148183449,-0.027,1.091,-0.440,0.125,0.090,-0.035,104.915,2.245,1.219,0.665,1,1,3.258
1780148183463,-0.040,1.095,-0.436,0.146,0.088,-0.042,105.102,3.463,1.279,0.731,1,1,3.257
1780148183476,-0.054,1.101,-0.433,0.169,0.091,-0.052,105.193,4.600,1.326,0.840,1,1,3.818
1780148183490,-0.065,1.110,-0.430,0.193,0.098,-0.063,105.229,5.417,1.386,0.939,1,1,3.266
1780148183503,-0.074,1.121,-0.427,0.219,0.107,-0.075,105.238,5.924,1.454,1.040,1,1,3.256
1780148183517,-0.078,1.135,-0.426,0.248,0.117,-0.088,105.208,5.965,1.506,1.138,1,1,3.267
1780148183530,-0.080,1.152,-0.424,0.279,0.127,-0.100,105.139,5.804,1.557,1.223,1,1,3.244
1780148183543,-0.082,1.171,-0.422,0.313,0.136,-0.111,104.949,5.684,1.638,1.322,4,4,3.921
1780148183557,-0.093,1.202,-0.417,0.351,0.147,-0.123,104.438,6.100,1.942,1.465,4,4,3.276
1780148183571,-0.086,1.241,-0.411,0.393,0.161,-0.139,103.759,5.312,2.108,1.662,4,4,3.367
1780148183584,-0.049,1.274,-0.391,0.440,0.168,-0.148,102.347,2.858,2.141,1.741,4,4,3.243
1780148183598,-0.030,1.313,-0.375,0.493,0.167,-0.153,101.229,1.631,2.205,1.899,4,4,3.311
1780148183611,-0.010,1.356,-0.347,0.551,0.158,-0.155,99.566,0.437,2.351,2.080,4,4,3.871
1780148183625,0.017,1.391,-0.315,0.618,0.137,-0.162,97.643,-1.037,2.267,2.416,4,4,3.269
1780148183639,0.047,1.416,-0.290,0.688,0.095,-0.183,96.257,-2.843,2.103,2.786,4,4,3.265
1780148183652,0.048,1.423,-0.289,0.755,0.078,-0.223,96.536,-2.781,1.591,2.825,4,4,3.259
1780148183665,0.047,1.398,-0.321,0.820,0.072,-0.266,100.721,-2.613,1.335,2.859,4,4,3.250
1780148183679,0.075,1.383,-0.338,0.883,0.063,-0.323,102.888,-5.112,1.447,3.085,4,4,3.846
1780148183693,0.091,1.340,-0.328,0.920,0.060,-0.362,103.107,-9.033,0.609,2.339,4,4,3.264
1780148183706,0.096,1.303,-0.308,0.920,0.051,-0.378,100.561,-10.085,0.544,1.225,4,4,3.245
1780148183719,0.093,1.289,-0.279,0.892,0.071,-0.404,97.663,-9.300,1.044,1.240,4,4,3.288
1780148183733,0.102,1.272,-0.250,0.859,0.102,-0.424,94.685,-10.067,1.034,1.324,4,4,3.283
1780148183746,0.116,1.240,-0.223,0.816,0.135,-0.436,91.095,-12.246,0.775,1.268,4,4,4.014
1780148183760,0.135,1.201,-0.197,0.756,0.165,-0.444,86.481,-15.508,0.752,1.383,4,4,3.442
1780148183774,0.152,1.162,-0.169,0.686,0.189,-0.451,81.481,-18.340,0.750,1.540,4,4,3.302
1780148183787,0.171,1.123,-0.142,0.608,0.208,-0.456,76.697,-21.171,0.788,1.673,4,4,3.327
1780148183801,0.192,1.085,-0.116,0.523,0.221,-0.456,72.336,-24.022,0.826,1.844,4,4,3.259
1780148183814,0.212,1.053,-0.092,0.429,0.229,-0.451,69.167,-26.414,0.861,2.086,4,4,3.913
1780148183828,0.229,1.026,-0.071,0.327,0.234,-0.443,67.106,-28.249,0.843,2.368,4,4,3.298
1780148183841,0.243,1.005,-0.053,0.222,0.241,-0.431,66.244,-29.430,0.840,2.538,4,4,3.247
1780148183855,0.257,0.990,-0.039,0.121,0.250,-0.415,66.399,-30.178,0.905,2.550,4,4,3.270
1780148183869,0.272,0.983,-0.029,0.024,0.262,-0.395,67.394,-30.726,1.031,2.564,4,4,3.242
1780148183882,0.287,0.981,-0.023,-0.070,0.273,-0.371,68.974,-30.891,1.135,2.578,5,5,4.260
1780148183896,0.303,0.989,-0.023,-0.160,0.285,-0.346,71.105,-30.804,1.334,2.591,5,5,3.292
1780148183910,0.322,1.006,-0.030,-0.247,0.296,-0.318,73.614,-30.544,1.565,2.601,5,5,3.242
1780148183923,0.340,1.031,-0.045,-0.331,0.305,-0.286,76.416,-29.932,1.792,2.614,5,5,3.257
1780148183936,0.353,1.071,-0.067,-0.411,0.316,-0.252,79.206,-28.756,2.105,2.647,5,5,3.250
1780148183950,0.357,1.121,-0.095,-0.489,0.334,-0.215,81.926,-27.066,2.389,2.733,5,5,3.899
1780148183964,0.355,1.173,-0.138,-0.563,0.367,-0.179,85.083,-25.138,2.560,2.879,5,5,3.262
1780148183977,0.356,1.218,-0.186,-0.635,0.419,-0.143,88.356,-23.534,2.547,3.174,5,5,3.268
1780148183991,0.362,1.281,-0.244,-0.704,0.490,-0.107,91.322,-22.167,3.098,3.514,5,5,3.262
1780148184004,0.371,1.311,-0.315,-0.771,0.562,-0.072,95.332,-21.212,2.780,3.598,5,5,3.253
1780148184017,0.385,1.248,-0.406,-0.835,0.621,-0.035,69.437,-20.722,2.500,3.411,5,5,3.909
1780148184034,0.392,1.261,-0.497,-0.885,0.665,-0.004,76.905,-19.740,2.981,2.956,5,5,3.259
1780148184047,0.386,1.283,-0.595,-0.916,0.694,0.028,83.595,-18.281,3.252,2.392,5,5,3.253
1780148184064,0.382,1.284,-0.706,-0.925,0.703,0.046,90.594,-17.020,3.405,1.580,5,5,6.924
1780148184077,0.383,1.278,-0.825,-0.909,0.686,0.063,97.358,-16.019,3.639,0.744,5,5,3.306
1780148184091,0.369,1.267,-0.938,-0.869,0.651,0.079,103.640,-14.589,3.564,0.564,5,5,3.917
1780148184105,0.319,1.276,-1.030,-0.807,0.625,0.072,108.436,-11.949,3.462,0.826,5,5,3.255
1780148184118,0.247,1.261,-1.097,-0.729,0.629,0.035,113.320,-8.369,3.029,1.744,5,5,3.286
1780148184134,0.132,1.356,-1.007,-0.653,0.631,-0.026,109.604,-4.347,4.281,2.198,5,5,3.275
1780148184147,0.022,1.460,-0.821,-0.536,0.686,-0.000,103.852,-1.489,5.491,3.340,5,5,3.241
1780148184160,0.068,1.403,-0.823,-0.446,0.692,-0.017,110.180,-6.142,1.392,2.133,5,5,3.806
1780148184174,0.060,1.367,-0.889,-0.336,0.681,-0.011,115.470,-5.299,2.397,2.534,5,5,3.242
1780148184188,0.048,1.335,-0.833,-0.273,0.633,-0.004,110.022,-3.319,0.779,1.510,5,5,3.247
1780148184201,0.071,1.312,-0.844,-0.190,0.610,0.002,113.225,-5.153,1.474,1.957,5,5,3.237
1780148184218,0.065,1.260,-0.837,-0.213,0.577,-0.004,118.601,-4.141,0.697,0.860,5,5,7.077
1780148184232,0.076,1.235,-0.814,-0.196,0.556,-0.012,118.102,-5.843,0.818,0.316,1,1,3.893
1780148184246,0.081,1.227,-0.790,-0.186,0.533,-0.022,116.817,-6.324,1.103,0.295,1,1,3.340
1780148184259,0.079,1.215,-0.768,-0.182,0.506,-0.027,115.843,-5.927,0.981,0.273,1,1,3.568
1780148184273,0.080,1.205,-0.749,-0.174,0.481,-0.030,115.192,-5.864,1.052,0.204,1,1,3.266
1780148184286,0.073,1.198,-0.727,-0.162,0.459,-0.032,114.076,-4.862,1.091,0.184,1,1,3.280
1780148184300,0.068,1.190,-0.707,-0.150,0.441,-0.032,113.171,-4.173,1.045,0.185,1,1,3.873
1780148184315,0.062,1.182,-0.687,-0.136,0.424,-0.029,112.327,-3.486,1.048,0.219,1,1,5.007
1780148184329,0.055,1.175,-0.669,-0.124,0.409,-0.025,111.666,-2.639,1.048,0.213,1,1,3.262
1780148184346,0.051,1.168,-0.651,-0.112,0.396,-0.020,110.897,-2.171,1.058,0.223,1,1,3.292
1780148184359,0.051,1.164,-0.630,-0.102,0.383,-0.016,109.819,-2.259,1.084,0.209,1,1,3.254
1780148184373,0.063,1.154,-0.614,-0.094,0.367,-0.015,109.353,-3.767,1.034,0.125,1,1,4.129
1780148184387,0.065,1.145,-0.600,-0.089,0.352,-0.015,109.141,-4.063,0.978,0.055,1,1,3.252
1780148184401,0.065,1.138,-0.584,-0.083,0.336,-0.016,108.671,-3.960,1.035,0.105,1,1,3.247
1780148184414,0.062,1.131,-0.570,-0.077,0.323,-0.016,108.333,-3.517,1.001,0.077,1,1,3.256
1780148184427,0.056,1.125,-0.557,-0.071,0.311,-0.014,107.973,-2.860,1.026,0.106,1,1,3.289
1780148184441,0.054,1.119,-0.545,-0.065,0.301,-0.011,107.808,-2.618,1.030,0.117,1,1,3.977
1780148184455,0.052,1.113,-0.534,-0.059,0.291,-0.009,107.681,-2.466,1.039,0.122,1,1,3.265
1780148184468,0.053,1.108,-0.524,-0.052,0.282,-0.007,107.579,-2.508,1.044,0.121,1,1,3.250
1780148184482,0.053,1.104,-0.513,-0.045,0.272,-0.007,107.421,-2.642,1.063,0.138,1,1,3.258
1780148184495,0.052,1.100,-0.504,-0.038,0.264,-0.007,107.300,-2.446,1.051,0.171,1,1,3.258
1780148184509,0.050,1.098,-0.495,-0.029,0.256,-0.008,107.194,-2.338,1.082,0.212,1,1,3.978
1780148184523,0.049,1.095,-0.486,-0.018,0.248,-0.010,107.086,-2.211,1.071,0.264,1,1,3.258
1780148184536,0.048,1.092,-0.478,-0.006,0.242,-0.013,107.036,-2.167,1.079,0.318,1,1,3.252
1780148184549,0.049,1.090,-0.471,0.007,0.235,-0.017,106.943,-2.233,1.090,0.379,1,1,3.266
1780148184563,0.048,1.089,-0.464,0.022,0.227,-0.022,106.873,-2.155,1.117,0.450,1,1,3.267
1780148184576,0.046,1.090,-0.458,0.040,0.221,-0.028,106.866,-2.044,1.152,0.526,1,1,4.049
1780148184590,0.046,1.091,-0.452,0.059,0.214,-0.035,106.823,-2.041,1.168,0.614,1,1,3.261
1780148184604,0.046,1.093,-0.448,0.081,0.207,-0.043,106.886,-1.999,1.192,0.693,1,1,3.275
1780148184619,0.044,1.096,-0.445,0.105,0.200,-0.051,106.954,-1.880,1.211,0.776,1,1,5.592
1780148184633,0.038,1.099,-0.442,0.131,0.192,-0.055,107.079,-1.226,1.239,0.828,1,1,3.228
1780148184646,0.031,1.101,-0.440,0.160,0.185,-0.058,107.293,-0.648,1.219,0.900,1,1,3.678
1780148184660,0.021,1.110,-0.440,0.189,0.181,-0.067,107.360,0.202,1.389,1.006,1,1,3.244
1780148184674,0.018,1.119,-0.439,0.221,0.177,-0.075,107.403,0.416,1.389,1.076,1,1,3.277
1780148184687,0.015,1.130,-0.439,0.254,0.174,-0.082,107.437,0.535,1.425,1.142,1,1,3.244
1780148184700,0.010,1.143,-0.439,0.288,0.172,-0.090,107.434,0.873,1.493,1.215,1,1,3.227
1780148184714,0.000,1.162,-0.438,0.324,0.170,-0.095,107.187,1.480,1.647,1.283,3,3,3.708
1780148184728,-0.030,1.198,-0.437,0.362,0.179,-0.105,106.631,3.140,2.159,1.460,3,3,3.222
1780148184742,-0.008,1.227,-0.431,0.404,0.187,-0.112,105.941,1.457,1.926,1.577,3,3,3.240
1780148184755,0.002,1.259,-0.422,0.451,0.188,-0.112,105.051,0.740,1.985,1.683,3,3,3.274
1780148184768,0.005,1.303,-0.401,0.502,0.193,-0.109,103.500,0.514,2.286,1.868,3,3,3.252
1780148184782,0.013,1.346,-0.375,0.560,0.196,-0.101,101.723,-0.032,2.298,2.081,4,4,4.311
1780148184796,0.030,1.381,-0.343,0.628,0.189,-0.096,99.705,-0.990,2.214,2.378,4,4,3.224
1780148184809,0.042,1.410,-0.312,0.697,0.165,-0.101,97.819,-1.716,2.096,2.554,4,4,3.239
1780148184823,0.036,1.424,-0.298,0.764,0.150,-0.122,97.075,-1.233,1.742,2.603,4,4,3.227
1780148184837,0.039,1.381,-0.322,0.828,0.155,-0.164,102.389,-1.713,0.969,2.807,4,4,3.748
1780148184850,0.071,1.344,-0.336,0.889,0.159,-0.219,105.997,-5.569,1.128,2.983,4,4,3.727
1780148184864,0.114,1.314,-0.310,0.920,0.141,-0.241,102.449,-10.404,1.285,1.931,4,4,3.234
1780148184877,0.137,1.289,-0.282,0.918,0.105,-0.246,98.846,-13.091,1.032,1.255,4,4,3.262
1780148184890,0.136,1.275,-0.252,0.901,0.089,-0.262,95.889,-12.368,1.051,0.871,4,4,3.234
1780148184904,0.141,1.253,-0.223,0.872,0.079,-0.273,92.674,-12.808,0.907,0.614,4,4,3.227
1780148184917,0.144,1.219,-0.199,0.831,0.075,-0.283,89.095,-13.459,0.624,0.571,4,4,3.691
1780148184931,0.148,1.182,-0.174,0.775,0.074,-0.289,85.018,-14.284,0.568,0.829,4,4,3.265
1780148184945,0.153,1.145,-0.150,0.708,0.076,-0.296,80.845,-15.649,0.586,1.129,4,4,3.855
1780148184958,0.161,1.109,-0.126,0.633,0.081,-0.302,76.812,-17.244,0.600,1.416,4,4,3.231
1780148184973,0.170,1.075,-0.103,0.549,0.087,-0.307,73.368,-18.983,0.635,1.695,4,4,5.020
1780148184987,0.181,1.046,-0.081,0.456,0.095,-0.308,70.793,-20.659,0.717,2.035,4,4,3.700
1780148185000,0.192,1.024,-0.061,0.355,0.104,-0.308,69.338,-21.908,0.794,2.292,4,4,3.229
1780148185014,0.205,1.007,-0.045,0.250,0.115,-0.305,68.772,-23.043,0.842,2.527,4,4,3.238
1780148185027,0.220,0.996,-0.032,0.148,0.127,-0.298,69.111,-24.176,0.975,2.540,4,4,3.223
1780148185042,0.235,0.991,-0.024,0.050,0.137,-0.286,70.163,-24.907,1.056,2.532,4,4,3.298
1780148185055,0.247,0.993,-0.020,-0.045,0.146,-0.272,71.694,-25.060,1.154,2.533,5,5,3.686
1780148185070,0.260,1.004,-0.021,-0.136,0.156,-0.258,73.637,-24.913,1.347,2.538,5,5,4.884
1780148185084,0.272,1.023,-0.028,-0.224,0.165,-0.240,75.863,-24.464,1.551,2.544,5,5,3.230
1780148185101,0.278,1.053,-0.042,-0.308,0.179,-0.220,78.261,-23.406,1.782,2.573,5,5,6.705
1780148185114,0.279,1.094,-0.060,-0.390,0.201,-0.201,80.594,-21.960,2.082,2.635,5,5,3.240
1780148185129,0.278,1.144,-0.086,-0.468,0.235,-0.182,83.076,-20.493,2.345,2.765,5,5,5.057
1780148185143,0.283,1.192,-0.123,-0.543,0.288,-0.165,85.854,-19.403,2.463,3.018,5,5,3.266
1780148185156,0.298,1.242,-0.168,-0.616,0.357,-0.143,88.768,-18.867,2.665,3.322,5,5,3.240
1780148185172,0.316,1.292,-0.228,-0.686,0.435,-0.112,91.975,-18.398,2.933,3.573,5,5,5.108
1780148185185,0.330,1.337,-0.301,-0.753,0.512,-0.084,95.562,-17.789,3.069,3.600,5,5,3.235
1780148185198,0.339,1.370,-0.387,-0.818,0.586,-0.057,99.515,-17.043,3.125,3.592,5,5,3.750
1780148185212,0.350,1.389,-0.479,-0.865,0.657,-0.032,103.758,-16.453,3.126,3.321,5,5,3.232
1780148185225,0.358,1.387,-0.583,-0.892,0.723,-0.003,108.603,-15.796,3.217,3.009,5,5,3.240
1780148185239,0.373,1.378,-0.706,-0.906,0.768,0.011,113.579,-15.341,3.654,2.339,5,5,3.249
1780148185252,0.386,1.361,-0.829,-0.888,0.789,0.027,118.389,-14.875,3.720,1.466,5,5,3.241
1780148185267,0.377,1.345,-0.942,-0.847,0.789,0.037,122.727,-13.729,3.558,0.878,5,5,5.535
1780148185281,0.340,1.333,-1.024,-0.780,0.791,0.036,126.174,-11.562,3.050,1.261,5,5,3.237
1780148185298,0.305,1.336,-1.063,-0.698,0.809,0.032,127.853,-9.464,2.423,1.917,5,5,3.931
1780148185311,0.260,1.251,-1.012,-0.629,0.846,0.011,107.965,-3.873,0.972,2.224,5,5,3.226
1780148185324,0.093,1.371,-0.793,-0.530,0.889,0.069,101.975,-0.442,6.685,3.253,5,5,3.219
1780148185338,0.165,1.297,-0.748,-0.418,0.894,0.087,87.104,-7.721,1.793,2.758,5,5,3.695
1780148185351,0.162,1.313,-0.830,-0.310,0.854,0.107,92.828,-7.139,3.116,2.586,5,5,3.221
1780148185365,0.188,1.222,-0.872,-0.252,0.819,0.131,69.143,-8.528,2.090,1.451,5,5,3.250
1780148185378,0.163,1.226,-0.837,-0.261,0.777,0.128,71.451,-6.178,1.377,0.589,5,5,3.231
1780148185391,0.178,1.207,-0.802,-0.258,0.735,0.118,73.449,-8.693,0.931,0.415,5,5,3.229
1780148185405,0.174,1.200,-0.777,-0.232,0.711,0.106,76.220,-8.249,1.087,0.495,1,1,3.709
1780148185418,0.182,1.189,-0.753,-0.207,0.684,0.095,78.838,-9.403,1.040,0.500,1,1,3.225
1780148185432,0.182,1.180,-0.731,-0.184,0.652,0.082,81.288,-9.499,1.023,0.503,1,1,3.225
1780148185445,0.184,1.170,-0.709,-0.163,0.621,0.066,83.326,-9.791,1.018,0.547,1,1,3.219
1780148185458,0.180,1.165,-0.686,-0.142,0.593,0.048,84.940,-9.311,1.073,0.609,1,1,3.224
1780148185472,0.174,1.158,-0.668,-0.125,0.564,0.029,86.843,-8.707,1.026,0.593,1,1,3.777
1780148185486,0.167,1.151,-0.650,-0.110,0.535,0.011,88.531,-7.894,1.037,0.567,1,1,3.538
1780148185499,0.155,1.143,-0.633,-0.098,0.509,-0.005,90.100,-6.604,1.013,0.505,1,1,3.248
1780148185513,0.141,1.137,-0.616,-0.089,0.486,-0.017,91.402,-5.162,1.042,0.385,1,1,3.228
1780148185526,0.131,1.131,-0.600,-0.081,0.464,-0.026,92.583,-4.112,1.037,0.294,1,1,3.230
1780148185539,0.121,1.124,-0.585,-0.075,0.443,-0.032,93.786,-3.271,1.012,0.225,1,1,3.701
1780148185553,0.113,1.117,-0.572,-0.070,0.424,-0.035,94.949,-2.596,0.999,0.149,1,1,3.234
1780148185566,0.106,1.112,-0.557,-0.066,0.406,-0.038,95.780,-2.064,1.031,0.147,1,1,3.232
1780148185580,0.098,1.107,-0.544,-0.062,0.389,-0.041,96.611,-1.447,1.029,0.128,1,1,3.249
1780148185593,0.091,1.101,-0.532,-0.058,0.372,-0.043,97.395,-1.039,1.004,0.118,1,1,3.246
1780148185606,0.084,1.095,-0.520,-0.055,0.356,-0.045,98.132,-0.528,1.017,0.123,1,1,3.797
1780148185620,0.075,1.090,-0.509,-0.051,0.341,-0.047,98.780,0.114,1.018,0.105,1,1,3.237
1780148185634,0.070,1.086,-0.497,-0.047,0.327,-0.048,99.297,0.380,1.031,0.113,1,1,3.260
1780148185647,0.064,1.082,-0.487,-0.042,0.312,-0.049,99.801,0.701,1.030,0.132,1,1,3.286
1780148185660,0.057,1.079,-0.477,-0.036,0.299,-0.050,100.251,1.062,1.044,0.149,1,1,3.289
1780148185674,0.052,1.077,-0.468,-0.029,0.287,-0.051,100.615,1.344,1.059,0.161,1,1,3.694
1780148185688,0.044,1.075,-0.459,-0.022,0.276,-0.052,101.003,1.843,1.074,0.179,1,1,3.331
1780148185701,0.037,1.074,-0.451,-0.013,0.266,-0.051,101.315,2.242,1.090,0.216,1,1,3.229
1780148185714,0.030,1.073,-0.442,-0.003,0.257,-0.052,101.572,2.616,1.105,0.271,1,1,3.217
1780148185730,0.025,1.073,-0.435,0.010,0.250,-0.054,101.885,2.774,1.103,0.363,1,1,3.993
1780148185743,0.022,1.075,-0.429,0.025,0.242,-0.057,102.101,2.736,1.152,0.446,1,1,3.709
1780148185758,0.021,1.078,-0.423,0.042,0.235,-0.064,102.294,2.475,1.182,0.539,1,1,4.583
1780148185772,0.018,1.083,-0.417,0.061,0.228,-0.072,102.491,2.497,1.230,0.621,1,1,3.232
1780148185785,0.008,1.088,-0.413,0.081,0.223,-0.082,102.705,3.182,1.251,0.703,1,1,3.218
1780148185798,-0.005,1.092,-0.408,0.104,0.220,-0.093,102.885,4.120,1.263,0.803,1,1,3.240
1780148185812,-0.021,1.107,-0.406,0.129,0.219,-0.108,102.970,5.107,1.518,0.945,4,4,4.846
1780148185827,-0.029,1.118,-0.403,0.156,0.220,-0.121,103.084,5.334,1.425,1.014,4,4,3.970
1780148185841,-0.036,1.131,-0.401,0.185,0.221,-0.135,103.162,5.571,1.471,1.091,4,4,3.228
1780148185854,-0.045,1.146,-0.399,0.216,0.223,-0.148,103.191,5.867,1.536,1.168,4,4,3.252
1780148185867,-0.081,1.173,-0.394,0.250,0.232,-0.166,102.844,7.757,1.990,1.358,4,4,3.267
1780148185881,-0.062,1.196,-0.389,0.286,0.239,-0.184,102.504,5.968,1.749,1.452,4,4,3.666
1780148185895,-0.063,1.217,-0.383,0.325,0.242,-0.197,102.145,5.636,1.697,1.489,4,4,3.235
1780148185908,-0.069,1.241,-0.375,0.369,0.247,-0.211,101.543,5.741,1.776,1.660,4,4,3.236
1780148185922,-0.062,1.273,-0.363,0.418,0.251,-0.225,100.725,4.936,1.981,1.818,4,4,3.822
1780148185935,-0.036,1.304,-0.347,0.472,0.245,-0.238,99.734,3.013,2.061,1.953,4,4,3.243
1780148185948,-0.005,1.337,-0.321,0.529,0.226,-0.250,98.175,1.039,2.179,2.121,4,4,3.692
1780148185962,0.023,1.358,-0.295,0.596,0.194,-0.271,96.532,-0.892,1.955,2.539,4,4,3.242
1780148185976,0.055,1.374,-0.278,0.666,0.152,-0.308,95.632,-3.045,1.871,2.953,4,4,3.236
1780148185989,0.051,1.353,-0.288,0.734,0.134,-0.356,97.952,-2.553,1.036,2.991,4,4,3.235
1780148186002,0.054,1.330,-0.314,0.800,0.123,-0.405,101.618,-2.882,1.211,3.020,4,4,3.232
1780148186016,0.076,1.290,-0.324,0.838,0.130,-0.459,105.510,-6.328,0.888,2.615,4,4,3.683
1780148186029,0.087,1.255,-0.301,0.843,0.122,-0.472,101.793,-8.587,0.621,1.276,4,4,3.248
1780148186043,0.077,1.246,-0.276,0.836,0.149,-0.492,99.352,-7.082,1.079,1.480,4,4,3.227
1780148186056,0.085,1.224,-0.253,0.817,0.192,-0.510,96.631,-8.172,0.841,1.660,4,4,3.234
1780148186069,0.103,1.199,-0.230,0.786,0.241,-0.516,93.835,-10.706,0.847,1.647,4,4,3.239
1780148186085,0.122,1.168,-0.205,0.737,0.287,-0.515,90.255,-13.731,0.808,1.637,4,4,6.304
1780148186101,0.146,1.138,-0.179,0.681,0.326,-0.508,86.469,-16.818,0.917,1.600,4,4,4.772
1780148186114,0.170,1.105,-0.153,0.612,0.355,-0.495,82.216,-20.139,0.881,1.624,4,4,3.227
1780148186127,0.192,1.071,-0.128,0.533,0.375,-0.478,78.028,-23.128,0.860,1.769,4,4,3.243
1780148186141,0.212,1.042,-0.105,0.444,0.385,-0.459,74.911,-25.550,0.870,1.978,4,4,3.226
1780148186154,0.231,1.020,-0.084,0.350,0.388,-0.436,73.065,-27.340,0.926,2.149,4,4,3.712
1780148186170,0.247,1.002,-0.066,0.251,0.384,-0.408,72.024,-28.677,0.908,2.344,4,4,5.112
1780148186184,0.261,0.989,-0.052,0.149,0.375,-0.379,71.868,-29.503,0.948,2.535,4,4,3.904
1780148186197,0.276,0.982,-0.043,0.051,0.364,-0.347,72.551,-30.067,1.032,2.546,4,4,3.223
1780148186211,0.291,0.982,-0.037,-0.044,0.348,-0.313,73.754,-30.248,1.177,2.569,4,4,3.358
1780148186224,0.306,0.991,-0.038,-0.135,0.332,-0.276,75.502,-29.994,1.337,2.596,5,5,3.692
1780148186238,0.320,1.010,-0.045,-0.223,0.314,-0.234,77.710,-29.393,1.561,2.644,5,5,3.253
1780148186252,0.328,1.038,-0.061,-0.307,0.298,-0.188,80.159,-28.159,1.785,2.697,5,5,3.223
1780148186265,0.331,1.079,-0.083,-0.389,0.289,-0.139,82.617,-26.562,2.094,2.749,5,5,3.274
1780148186279,0.329,1.129,-0.113,-0.467,0.289,-0.085,85.113,-24.686,2.368,2.848,5,5,3.666
1780148186292,0.321,1.171,-0.152,-0.542,0.301,-0.028,88.070,-22.685,2.317,2.951,5,5,3.782
1780148186306,0.316,1.217,-0.196,-0.615,0.323,0.025,90.867,-20.939,2.515,3.003,5,5,3.234
1780148186320,0.307,1.263,-0.247,-0.685,0.352,0.077,93.715,-19.194,2.661,3.078,5,5,3.223
1780148186333,0.292,1.304,-0.305,-0.751,0.382,0.124,96.771,-17.283,2.690,3.039,5,5,3.499
1780148186347,0.261,1.332,-0.370,-0.808,0.412,0.165,100.166,-14.815,2.685,2.858,5,5,3.232
1780148186360,0.220,1.358,-0.439,-0.854,0.445,0.194,103.517,-12.072,2.813,2.592,5,5,3.687
1780148186374,0.179,1.373,-0.516,-0.885,0.481,0.211,107.184,-9.556,2.876,2.313,5,5,3.226
1780148186387,0.157,1.377,-0.603,-0.900,0.515,0.221,111.240,-8.049,2.920,1.957,5,5,3.219
1780148186400,0.145,1.372,-0.702,-0.896,0.535,0.230,115.510,-7.072,3.147,1.399,5,5,3.334
1780148186414,0.120,1.359,-0.805,-0.873,0.543,0.238,119.819,-5.676,3.257,0.925,5,5,3.231
1780148186427,0.072,1.339,-0.897,-0.832,0.550,0.239,123.912,-3.433,3.197,0.795,5,5,3.805
1780148186441,0.015,1.322,-0.971,-0.776,0.562,0.229,127.328,-0.839,3.011,1.129,5,5,3.247
1780148186454,-0.027,1.305,-1.026,-0.708,0.578,0.213,130.162,1.292,2.617,1.452,5,5,3.224
1780148186468,-0.083,1.309,-1.047,-0.626,0.622,0.152,130.787,4.252,2.423,2.725,5,5,3.232
1780148186481,-0.062,1.427,-0.826,-0.533,0.659,0.081,122.627,3.471,5.670,3.035,5,5,3.238
1780148186494,-0.229,1.328,-0.791,-0.421,0.716,0.113,102.158,10.526,3.972,3.462,4,4,3.733
1780148186508,-0.224,1.348,-0.835,-0.315,0.707,0.121,105.280,9.766,2.525,2.494,4,4,3.252
1780148186521,-0.218,1.232,-0.896,-0.228,0.671,0.125,81.003,9.014,2.584,2.073,4,4,3.221
1780148186535,-0.090,1.244,-0.895,-0.233,0.632,0.090,84.733,2.708,3.226,0.977,4,4,3.229
1780148186548,-0.145,1.251,-0.846,-0.234,0.582,0.087,84.329,6.641,1.966,0.754,4,4,3.250
1780148186561,-0.074,1.231,-0.805,-0.213,0.549,0.068,84.221,0.164,1.686,0.627,1,1,3.686
1780148186575,-0.064,1.210,-0.795,-0.188,0.528,0.050,88.394,-0.718,0.956,0.621,1,1,3.230
1780148186589,-0.046,1.204,-0.765,-0.168,0.502,0.032,89.134,-2.380,1.140,0.591,1,1,3.226
1780148186602,-0.053,1.193,-0.742,-0.148,0.477,0.017,90.490,-1.108,1.012,0.532,1,1,3.240
1780148186615,-0.066,1.185,-0.720,-0.128,0.455,0.015,91.703,0.860,1.092,0.422,1,1,3.231
1780148186629,-0.076,1.178,-0.697,-0.108,0.437,0.016,92.636,2.221,1.086,0.408,1,1,3.691
1780148186642,-0.068,1.171,-0.678,-0.091,0.424,0.017,93.678,1.527,1.042,0.377,1,1,3.230
1780148186656,-0.053,1.161,-0.659,-0.077,0.411,0.016,94.782,-0.181,1.016,0.275,1,1,3.233
1780148186669,-0.039,1.152,-0.643,-0.067,0.396,0.016,95.869,-1.582,1.028,0.197,1,1,3.334
1780148186683,-0.033,1.143,-0.625,-0.059,0.381,0.015,96.691,-1.999,0.999,0.157,1,1,3.348
1780148186696,-0.031,1.136,-0.609,-0.051,0.368,0.014,97.456,-1.826,1.012,0.151,1,1,3.710
1780148186710,-0.031,1.131,-0.593,-0.043,0.356,0.013,98.030,-1.518,1.044,0.174,1,1,3.234
1780148186723,-0.027,1.125,-0.579,-0.035,0.345,0.012,98.649,-1.710,1.037,0.191,1,1,3.240
1780148186736,-0.021,1.120,-0.564,-0.027,0.334,0.009,99.150,-2.088,1.051,0.206,1,1,3.238
1780148186750,-0.014,1.115,-0.551,-0.018,0.323,0.006,99.677,-2.609,1.042,0.217,1,1,3.264
1780148186763,-0.009,1.109,-0.539,-0.010,0.312,0.002,100.226,-2.929,1.030,0.226,1,1,3.687
1780148186777,-0.007,1.104,-0.527,-0.002,0.300,-0.002,100.729,-2.872,1.015,0.231,1,1,3.233
1780148186790,-0.006,1.099,-0.516,0.006,0.289,-0.006,101.190,-2.599,1.029,0.236,1,1,3.229
1780148186804,-0.006,1.093,-0.506,0.013,0.279,-0.010,101.679,-2.341,1.016,0.242,1,1,3.645
1780148186817,-0.006,1.088,-0.497,0.021,0.269,-0.013,102.149,-2.148,1.025,0.231,1,1,3.222
1780148186831,-0.004,1.084,-0.488,0.028,0.259,-0.016,102.612,-2.079,1.034,0.236,1,1,3.712
1780148186846,-0.002,1.080,-0.480,0.036,0.249,-0.018,102.937,-2.146,1.042,0.245,1,1,3.237
1780148186859,-0.000,1.078,-0.472,0.043,0.240,-0.021,103.302,-2.115,1.060,0.253,1,1,3.237
1780148186874,0.001,1.075,-0.465,0.050,0.232,-0.025,103.676,-2.047,1.070,0.264,1,1,3.495
1780148186888,0.002,1.073,-0.458,0.058,0.224,-0.028,103.978,-1.937,1.072,0.273,1,1,3.546
1780148186912,0.002,1.071,-0.453,0.065,0.217,-0.031,104.340,-1.767,1.069,0.290,1,1,9.614
1780148186926,0.003,1.070,-0.447,0.073,0.210,-0.035,104.615,-1.779,1.098,0.311,1,1,3.420
1780148186941,0.004,1.068,-0.442,0.081,0.204,-0.039,104.961,-1.768,1.081,0.321,1,1,3.429
1780148186957,0.004,1.065,-0.438,0.088,0.198,-0.043,105.335,-1.579,1.061,0.315,1,1,5.859
1780148186974,0.004,1.061,-0.435,0.094,0.192,-0.047,105.816,-1.423,1.038,0.300,1,1,3.550
1780148186989,0.003,1.058,-0.432,0.100,0.187,-0.050,106.203,-1.197,1.066,0.284,1,1,5.222
1780148187006,0.001,1.057,-0.429,0.105,0.184,-0.054,106.564,-0.934,1.084,0.294,1,1,6.150
1780148187027,0.002,1.055,-0.426,0.110,0.179,-0.056,106.852,-0.889,1.073,0.273,1,1,11.132
1780148187041,-0.002,1.054,-0.424,0.115,0.177,-0.060,107.134,-0.379,1.122,0.315,1,1,3.362
1780148187054,-0.001,1.054,-0.422,0.120,0.174,-0.065,107.387,-0.515,1.119,0.340,1,1,3.350
1780148187071,0.002,1.057,-0.421,0.127,0.170,-0.070,107.597,-0.754,1.182,0.369,1,1,7.621
1780148187085,0.009,1.061,-0.421,0.135,0.163,-0.075,107.807,-1.381,1.239,0.406,1,1,3.228
1780148187100,0.012,1.067,-0.419,0.145,0.154,-0.078,107.866,-1.602,1.253,0.446,1,1,4.454
1780148187113,0.008,1.070,-0.418,0.156,0.145,-0.081,107.986,-1.111,1.205,0.470,1,1,3.314
1780148187127,0.002,1.071,-0.417,0.167,0.137,-0.083,108.167,-0.360,1.165,0.486,1,1,3.225
1780148187140,-0.006,1.069,-0.416,0.179,0.132,-0.085,108.422,0.581,1.130,0.495,4,4,3.694
1780148187154,-0.014,1.066,-0.416,0.190,0.130,-0.087,108.755,1.492,1.089,0.513,4,4,3.249
1780148187167,-0.022,1.061,-0.415,0.202,0.129,-0.088,109.135,2.299,1.046,0.530,4,4,3.247
1780148187181,-0.028,1.054,-0.415,0.213,0.130,-0.090,109.704,2.913,1.019,0.544,4,4,3.241
1780148187196,-0.031,1.046,-0.417,0.224,0.132,-0.091,110.459,3.190,0.988,0.549,4,4,5.168
1780148187209,-0.032,1.037,-0.420,0.234,0.135,-0.092,111.315,3.219,0.969,0.545,4,4,3.704
1780148187223,-0.031,1.029,-0.423,0.243,0.137,-0.093,112.221,3.007,0.979,0.539,4,4,3.231
1780148187237,-0.030,1.020,-0.427,0.253,0.138,-0.093,113.132,2.689,0.984,0.530,4,4,3.233
1780148187251,-0.028,1.014,-0.431,0.262,0.140,-0.092,113.834,2.370,1.009,0.529,4,4,3.246
1780148187264,-0.026,1.008,-0.436,0.271,0.140,-0.090,114.566,2.024,1.035,0.529,4,4,3.243
1780148187278,-0.023,1.003,-0.441,0.280,0.140,-0.088,115.198,1.701,1.054,0.535,4,4,3.689
1780148187293,-0.022,1.000,-0.446,0.289,0.140,-0.084,115.768,1.502,1.074,0.553,4,4,4.046
1780148187309,-0.021,0.998,-0.451,0.300,0.139,-0.079,116.198,1.369,1.105,0.586,4,4,3.241
1780148187322,-0.021,0.997,-0.455,0.311,0.139,-0.072,116.519,1.311,1.132,0.627,4,4,3.224
1780148187336,-0.022,0.999,-0.460,0.323,0.139,-0.064,116.671,1.375,1.171,0.674,4,4,3.278
1780148187349,-0.024,1.001,-0.464,0.337,0.139,-0.056,116.760,1.587,1.194,0.721,4,4,3.693
1780148187363,-0.033,1.006,-0.467,0.352,0.137,-0.050,116.667,2.422,1.254,0.765,4,4,3.272
1780148187377,-0.036,1.007,-0.470,0.367,0.132,-0.045,116.759,2.634,1.163,0.750,4,4,3.304
1780148187390,-0.037,1.006,-0.474,0.380,0.126,-0.044,117.061,2.721,1.149,0.734,4,4,3.358
1780148187403,-0.038,1.003,-0.478,0.392,0.121,-0.046,117.457,2.733,1.084,0.706,4,4,3.253
1780148187417,-0.035,0.996,-0.481,0.402,0.116,-0.050,117.946,2.262,0.998,0.668,4,4,3.709
1780148187431,-0.031,0.984,-0.482,0.407,0.111,-0.055,118.534,1.790,0.889,0.575,4,4,3.229
1780148187444,-0.027,0.967,-0.465,0.405,0.106,-0.061,116.742,1.032,0.595,0.409,4,4,3.270
1780148187458,-0.030,0.958,-0.435,0.393,0.102,-0.068,112.724,1.532,0.802,0.251,4,4,3.704
1780148187471,-0.038,0.944,-0.412,0.374,0.105,-0.078,109.724,3.220,0.672,0.403,4,4,3.219
1780148187486,-0.044,0.932,-0.391,0.350,0.114,-0.087,107.317,4.276,0.697,0.558,4,4,5.417
1780148187500,-0.048,0.921,-0.373,0.320,0.127,-0.097,105.474,5.004,0.708,0.755,4,4,3.235
1780148187514,-0.053,0.910,-0.357,0.284,0.143,-0.107,104.151,5.741,0.693,0.908,4,4,3.231
1780148187527,-0.058,0.900,-0.344,0.246,0.162,-0.117,103.276,6.456,0.691,1.063,4,4,3.234
1780148187540,-0.063,0.892,-0.334,0.205,0.184,-0.127,102.892,7.196,0.747,1.209,4,4,3.261
1780148187554,-0.071,0.885,-0.329,0.162,0.210,-0.138,103.164,8.246,0.797,1.363,4,4,4.398
1780148187568,-0.083,0.878,-0.328,0.117,0.244,-0.148,104.146,9.587,0.872,1.596,4,4,3.221
1780148187582,-0.098,0.875,-0.333,0.072,0.286,-0.160,105.571,11.107,1.009,1.829,4,4,3.221
1780148187595,-0.114,0.875,-0.343,0.029,0.338,-0.172,107.177,12.300,1.131,2.073,4,4,3.232
1780148187608,-0.127,0.878,-0.357,-0.012,0.398,-0.186,108.883,13.049,1.226,2.296,4,4,3.222
1780148187622,-0.136,0.882,-0.376,-0.049,0.464,-0.202,110.791,13.249,1.300,2.481,5,5,4.386
1780148187636,-0.139,0.888,-0.399,-0.081,0.533,-0.220,112.749,12.724,1.387,2.578,5,5,3.223
1780148187653,-0.135,0.896,-0.426,-0.106,0.603,-0.239,114.766,11.757,1.467,2.652,5,5,6.981
1780148187674,-0.120,0.902,-0.453,-0.120,0.674,-0.256,116.723,9.876,1.488,2.645,5,5,3.800
1780148187688,-0.100,0.907,-0.476,-0.128,0.742,-0.269,118.360,7.641,1.440,2.595,5,5,4.159
1780148187702,-0.075,0.910,-0.492,-0.130,0.806,-0.278,119.555,4.991,1.385,2.530,5,5,3.918
1780148187717,-0.046,0.913,-0.501,-0.124,0.860,-0.282,120.074,2.047,1.338,2.299,5,5,4.481
1780148187731,-0.014,0.912,-0.511,-0.113,0.897,-0.279,121.000,-1.129,1.341,1.876,5,5,3.398
1780148187744,0.019,0.896,-0.537,-0.104,0.927,-0.277,124.043,-3.971,1.441,1.713,5,5,3.391
1780148187763,0.059,0.888,-0.566,-0.097,0.940,-0.272,126.508,-6.787,1.673,1.288,5,5,8.719
1780148187778,0.089,0.877,-0.560,-0.095,0.948,-0.269,126.132,-10.287,1.071,1.180,5,5,4.316
1780148187795,0.125,0.868,-0.530,-0.100,0.936,-0.265,121.646,-14.378,1.147,0.698,5,5,3.407
1780148187808,0.167,0.870,-0.524,-0.109,0.910,-0.259,120.971,-17.580,1.469,0.416,5,5,3.256
1780148187822,0.207,0.872,-0.521,-0.120,0.869,-0.249,120.420,-20.305,1.495,0.440,5,5,3.842
1780148187836,0.225,0.875,-0.513,-0.132,0.819,-0.241,119.437,-21.397,1.166,0.653,5,5,3.224
1780148187849,0.224,0.881,-0.510,-0.145,0.768,-0.236,118.910,-20.370,1.118,0.755,5,5,3.679
1780148187863,0.206,0.888,-0.506,-0.158,0.720,-0.232,118.297,-17.467,1.140,0.738,5,5,3.225
1780148187877,0.181,0.898,-0.502,-0.170,0.680,-0.232,117.531,-14.260,1.244,0.640,5,5,4.128
1780148187890,0.160,0.906,-0.498,-0.179,0.645,-0.231,116.845,-11.451,1.190,0.538,5,5,3.249
1780148187904,0.145,0.913,-0.493,-0.187,0.611,-0.229,116.209,-9.529,1.168,0.502,5,5,3.224
1780148187917,0.137,0.925,-0.489,-0.193,0.581,-0.224,115.464,-8.453,1.233,0.422,1,1,3.738
1780148187931,0.138,0.939,-0.483,-0.198,0.551,-0.217,114.564,-8.357,1.317,0.388,1,1,3.309
1780148187944,0.141,0.952,-0.477,-0.202,0.523,-0.211,113.703,-8.413,1.285,0.383,1,1,3.220
1780148187958,0.137,0.959,-0.472,-0.205,0.495,-0.206,113.165,-7.872,1.180,0.368,1,1,3.239
1780148187971,0.130,0.964,-0.467,-0.207,0.470,-0.199,112.715,-7.009,1.141,0.307,1,1,3.232
1780148187984,0.125,0.969,-0.461,-0.207,0.447,-0.193,112.235,-6.357,1.119,0.274,1,1,3.719
1780148187998,0.122,0.971,-0.457,-0.207,0.424,-0.188,111.941,-6.006,1.081,0.254,1,1,3.225
1780148188012,0.123,0.972,-0.451,-0.206,0.402,-0.185,111.606,-6.231,1.066,0.290,1,1,3.350
1780148188025,0.124,0.972,-0.447,-0.206,0.380,-0.185,111.489,-6.385,1.046,0.318,1,1,3.236
1780148188038,0.121,0.972,-0.443,-0.206,0.361,-0.184,111.328,-6.027,1.036,0.312,1,1,3.233
1780148188052,0.114,0.972,-0.439,-0.206,0.342,-0.184,111.185,-5.333,1.035,0.298,1,1,3.711
1780148188065,0.107,0.972,-0.435,-0.206,0.325,-0.182,111.029,-4.502,1.029,0.276,1,1,3.231
1780148188079,0.100,0.972,-0.431,-0.206,0.310,-0.179,110.832,-3.891,1.032,0.246,1,1,3.230
1780148188092,0.096,0.973,-0.425,-0.205,0.295,-0.176,110.523,-3.523,1.036,0.224,1,1,3.229
1780148188105,0.093,0.973,-0.421,-0.204,0.282,-0.174,110.287,-3.335,1.026,0.227,1,1,3.234
1780148188119,0.091,0.973,-0.416,-0.203,0.269,-0.172,110.053,-3.289,1.027,0.230,1,1,3.696
1780148188133,0.089,0.973,-0.412,-0.202,0.256,-0.171,109.913,-3.211,1.025,0.238,1,1,3.843
1780148188147,0.086,0.974,-0.408,-0.201,0.245,-0.170,109.662,-2.976,1.031,0.225,1,1,3.266
1780148188160,0.082,0.975,-0.402,-0.200,0.234,-0.169,109.332,-2.728,1.040,0.213,1,1,3.224
1780148188173,0.078,0.975,-0.398,-0.197,0.223,-0.167,109.075,-2.372,1.034,0.200,1,1,3.219
1780148188186,0.074,0.976,-0.393,-0.195,0.214,-0.166,108.819,-2.123,1.037,0.185,1,1,3.820
1780148188200,0.071,0.977,-0.389,-0.193,0.204,-0.164,108.619,-1.881,1.038,0.187,1,1,3.237
1780148188214,0.066,0.977,-0.385,-0.191,0.196,-0.162,108.429,-1.545,1.025,0.186,1,1,3.312
1780148188229,0.063,0.978,-0.380,-0.190,0.188,-0.160,108.207,-1.366,1.032,0.199,1,1,3.368
1780148188242,0.059,0.978,-0.377,-0.190,0.180,-0.158,108.074,-1.106,1.016,0.208,1,1,3.237
1780148188255,0.056,0.978,-0.373,-0.191,0.173,-0.155,107.931,-0.901,1.021,0.227,1,1,3.716
1780148188269,0.052,0.978,-0.369,-0.193,0.166,-0.151,107.732,-0.592,1.015,0.245,1,1,3.232
1780148188282,0.048,0.978,-0.364,-0.195,0.160,-0.147,107.500,-0.306,1.024,0.267,1,1,3.235
1780148188296,0.044,0.978,-0.360,-0.198,0.154,-0.144,107.264,-0.033,1.015,0.286,1,1,3.228
1780148188309,0.040,0.979,-0.356,-0.202,0.148,-0.140,107.041,0.181,1.031,0.299,1,1,3.231
1780148188322,0.038,0.979,-0.351,-0.206,0.141,-0.137,106.735,0.205,1.025,0.323,1,1,3.780
1780148188336,0.036,0.980,-0.346,-0.210,0.135,-0.136,106.403,0.222,1.020,0.338,1,1,3.429
1780148188350,0.034,0.981,-0.341,-0.214,0.128,-0.135,106.078,0.286,1.032,0.345,1,1,3.223
1780148188363,0.031,0.982,-0.336,-0.218,0.121,-0.136,105.753,0.416,1.027,0.348,1,1,3.232
1780148188376,0.028,0.983,-0.331,-0.221,0.115,-0.137,105.438,0.578,1.023,0.340,1,1,3.232
1780148188394,0.025,0.985,-0.324,-0.222,0.110,-0.140,104.879,0.657,1.053,0.341,2,2,3.844
1780148188408,0.027,0.988,-0.317,-0.222,0.105,-0.147,104.290,0.308,1.068,0.387,2,2,3.245
1780148188421,0.027,0.990,-0.311,-0.220,0.099,-0.157,103.920,0.134,1.053,0.451,2,2,3.238
1780148188434,0.025,0.992,-0.305,-0.218,0.092,-0.169,103.500,0.256,1.048,0.510,2,2,3.228
1780148188448,0.022,0.994,-0.299,-0.216,0.087,-0.181,103.084,0.443,1.041,0.536,2,2,3.232
1780148188461,0.018,0.995,-0.293,-0.213,0.081,-0.195,102.670,0.683,1.037,0.576,3,3,3.754
1780148188475,0.013,0.997,-0.288,-0.210,0.077,-0.210,102.387,1.158,1.052,0.600,3,3,3.239
1780148188488,0.007,1.002,-0.280,-0.207,0.074,-0.227,101.696,1.654,1.138,0.682,3,3,3.226
1780148188501,0.006,1.008,-0.277,-0.202,0.071,-0.247,101.679,1.620,1.149,0.789,3,3,3.236
1780148188515,0.009,1.012,-0.274,-0.195,0.065,-0.271,101.544,1.065,1.116,0.882,3,3,3.224
1780148188528,0.004,1.020,-0.271,-0.187,0.059,-0.296,101.331,1.399,1.218,0.967,3,3,3.683
1780148188542,-0.009,1.036,-0.266,-0.175,0.059,-0.328,100.869,2.384,1.441,1.155,3,3,3.228
1780148188555,-0.012,1.064,-0.262,-0.156,0.065,-0.369,100.452,2.423,1.683,1.487,3,3,3.230
1780148188569,-0.006,1.093,-0.258,-0.132,0.063,-0.404,99.959,1.827,1.730,1.413,3,3,3.265
1780148188582,0.004,1.120,-0.263,-0.104,0.044,-0.436,100.202,0.914,1.767,1.475,3,3,3.228
1780148188595,-0.004,1.140,-0.265,-0.072,0.033,-0.475,100.246,1.424,1.614,1.692,3,3,3.685
1780148188609,-0.019,1.151,-0.269,-0.041,0.032,-0.515,100.626,2.598,1.495,1.711,3,3,3.234
1780148188622,-0.034,1.160,-0.282,-0.010,0.039,-0.565,101.773,3.660,1.509,2.054,3,3,3.217
1780148188636,-0.063,1.155,-0.333,0.014,0.089,-0.614,105.844,5.362,1.934,2.419,3,3,3.244
1780148188649,-0.088,1.137,-0.375,0.020,0.178,-0.646,110.019,7.007,1.608,2.916,3,3,3.228
1780148188662,-0.066,1.143,-0.387,0.028,0.264,-0.673,110.716,4.809,1.478,2.866,4,4,3.713
1780148188676,-0.047,1.136,-0.398,0.041,0.347,-0.696,111.835,2.674,1.246,2.837,4,4,3.232
1780148188689,-0.017,1.131,-0.403,0.053,0.427,-0.708,112.281,-0.314,1.300,2.724,4,4,3.223
1780148188703,0.011,1.131,-0.403,0.068,0.504,-0.715,112.053,-2.897,1.344,2.692,4,4,3.239
1780148188716,0.040,1.127,-0.400,0.084,0.576,-0.713,111.688,-5.651,1.301,2.580,4,4,3.221
1780148188734,0.069,1.120,-0.395,0.096,0.628,-0.706,111.103,-8.473,1.220,2.090,4,4,8.088
1780148188751,0.096,1.110,-0.388,0.104,0.662,-0.693,110.593,-11.127,1.156,1.616,4,4,6.955
1780148188765,0.114,1.098,-0.380,0.104,0.689,-0.677,109.928,-12.980,0.991,1.402,4,4,3.238
1780148188778,0.127,1.086,-0.370,0.100,0.715,-0.658,108.954,-14.196,0.922,1.403,4,4,3.240
1780148188791,0.135,1.074,-0.356,0.091,0.743,-0.636,107.553,-14.921,0.877,1.501,4,4,3.230
1780148188805,0.141,1.060,-0.340,0.077,0.777,-0.610,105.833,-15.331,0.810,1.669,4,4,3.691
1780148188818,0.144,1.045,-0.322,0.056,0.816,-0.583,103.795,-15.475,0.751,1.902,4,4,3.233
1780148188832,0.146,1.030,-0.303,0.030,0.861,-0.553,101.611,-15.370,0.733,2.135,4,4,3.241
1780148188845,0.148,1.015,-0.283,-0.002,0.910,-0.523,99.244,-15.287,0.738,2.361,4,4,3.238
1780148188858,0.151,1.001,-0.262,-0.040,0.963,-0.490,96.812,-15.444,0.739,2.575,4,4,3.235
1780148188872,0.155,0.988,-0.240,-0.085,1.017,-0.457,94.349,-15.726,0.788,2.756,4,4,3.692
1780148188886,0.159,0.978,-0.218,-0.135,1.071,-0.421,92.218,-15.906,0.844,2.898,4,4,3.243
1780148188899,0.165,0.972,-0.198,-0.190,1.123,-0.386,90.431,-16.080,0.915,3.000,4,4,3.245
1780148188912,0.169,0.970,-0.179,-0.249,1.171,-0.350,89.101,-16.036,0.996,3.075,4,4,3.236
1780148188926,0.174,0.973,-0.164,-0.312,1.216,-0.314,88.303,-15.980,1.088,3.120,4,4,3.242
1780148188939,0.179,0.980,-0.152,-0.378,1.254,-0.279,87.959,-15.797,1.181,3.136,5,5,3.685
1780148188953,0.183,0.993,-0.144,-0.445,1.287,-0.244,87.988,-15.433,1.295,3.132,5,5,3.227
1780148188966,0.185,1.010,-0.139,-0.514,1.312,-0.211,88.275,-14.801,1.399,3.085,5,5,3.234
1780148188979,0.185,1.032,-0.138,-0.581,1.329,-0.181,88.868,-14.089,1.538,3.004,5,5,3.231
1780148188993,0.183,1.061,-0.144,-0.646,1.338,-0.152,89.881,-13.177,1.711,2.865,5,5,3.240
1780148189006,0.176,1.094,-0.160,-0.706,1.337,-0.124,91.358,-11.976,1.890,2.682,5,5,3.700
1780148189020,0.161,1.128,-0.188,-0.757,1.330,-0.097,93.451,-10.420,2.040,2.451,5,5,3.224
1780148189033,0.141,1.159,-0.228,-0.797,1.315,-0.077,96.038,-8.663,2.166,2.108,5,5,3.235
1780148189047,0.121,1.187,-0.280,-0.822,1.292,-0.065,99.154,-7.109,2.312,1.647,5,5,3.236
1780148189060,0.107,1.202,-0.354,-0.838,1.256,-0.066,103.228,-6.010,2.496,1.286,5,5,3.242
1780148189073,0.097,1.203,-0.427,-0.837,1.206,-0.072,107.551,-5.149,2.375,0.862,5,5,3.762
1780148189087,0.085,1.193,-0.507,-0.828,1.143,-0.082,112.229,-4.263,2.457,0.852,5,5,3.235
1780148189100,0.069,1.182,-0.588,-0.808,1.073,-0.092,116.593,-3.241,2.557,0.865,5,5,3.235
1780148189114,0.050,1.172,-0.665,-0.775,1.001,-0.100,120.517,-2.157,2.574,0.921,5,5,3.231
1780148189127,0.025,1.161,-0.737,-0.726,0.934,-0.109,124.118,-0.850,2.543,1.043,5,5,3.237
1780148189140,0.003,1.151,-0.800,-0.667,0.873,-0.115,127.254,0.338,2.414,1.148,5,5,3.697
1780148189154,-0.010,1.145,-0.857,-0.601,0.815,-0.122,129.771,0.979,2.344,1.349,5,5,3.250
1780148189168,-0.046,1.098,-0.904,-0.525,0.761,-0.149,134.351,3.125,2.107,1.791,5,5,3.222
1780148189181,-0.030,1.124,-0.866,-0.503,0.741,-0.179,130.272,1.799,1.721,0.973,5,5,3.235
1780148189194,0.017,1.215,-0.803,-0.440,0.685,-0.221,125.470,-0.054,3.410,1.932,5,5,3.232
1780148189208,0.005,1.220,-0.772,-0.379,0.654,-0.233,122.476,0.975,1.367,1.343,1,1,3.757
1780148189221,-0.044,1.192,-0.774,-0.325,0.642,-0.262,124.560,5.464,1.491,1.519,1,1,3.249
1780148189235,-0.103,1.155,-0.758,-0.279,0.632,-0.267,126.087,11.502,1.482,1.058,1,1,3.222
1780148189253,-0.104,1.128,-0.744,-0.239,0.618,-0.265,126.356,11.438,0.706,0.860,1,1,7.764
1780148189266,-0.071,1.125,-0.723,-0.204,0.601,-0.262,124.280,7.380,1.270,0.752,1,1,3.242
1780148189279,-0.043,1.124,-0.706,-0.172,0.580,-0.259,122.601,4.267,1.290,0.679,1,1,3.743
1780148189293,-0.046,1.117,-0.690,-0.145,0.560,-0.256,121.356,4.455,1.019,0.597,1,1,3.262
1780148189307,-0.061,1.108,-0.675,-0.120,0.542,-0.249,120.355,6.024,1.039,0.525,1,1,3.234
1780148189321,-0.065,1.101,-0.661,-0.098,0.528,-0.240,119.391,6.255,1.038,0.494,1,1,3.869
1780148189334,-0.057,1.100,-0.647,-0.078,0.515,-0.232,118.293,5.106,1.122,0.476,1,1,3.222
1780148189347,-0.052,1.096,-0.635,-0.060,0.501,-0.223,117.488,4.342,1.090,0.431,1,1,3.833
1780148189361,-0.050,1.092,-0.624,-0.045,0.488,-0.214,116.883,3.974,1.066,0.394,1,1,3.228
1780148189375,-0.047,1.088,-0.613,-0.031,0.476,-0.204,116.291,3.552,1.061,0.349,1,1,3.249
1780148189388,-0.044,1.083,-0.603,-0.021,0.463,-0.195,115.858,3.082,1.065,0.306,1,1,3.243
1780148189402,-0.042,1.078,-0.594,-0.012,0.451,-0.185,115.511,2.801,1.046,0.266,1,1,3.220
1780148189415,-0.042,1.072,-0.586,-0.005,0.440,-0.175,115.278,2.655,1.028,0.249,1,1,3.700
1780148189431,-0.040,1.067,-0.577,0.001,0.430,-0.166,115.005,2.475,1.032,0.234,1,1,4.932
1780148189445,-0.037,1.063,-0.570,0.006,0.420,-0.157,114.832,2.009,1.053,0.215,1,1,3.259
1780148189458,-0.031,1.059,-0.563,0.010,0.409,-0.148,114.589,1.370,1.055,0.187,1,1,3.227
1780148189473,-0.026,1.054,-0.556,0.013,0.398,-0.140,114.465,0.738,1.038,0.158,1,1,4.902
1780148189486,-0.020,1.050,-0.550,0.015,0.385,-0.132,114.389,0.102,1.041,0.117,1,1,3.709
1780148189500,-0.014,1.045,-0.543,0.017,0.371,-0.125,114.251,-0.526,1.030,0.098,1,1,3.221
1780148189514,-0.010,1.041,-0.538,0.019,0.355,-0.118,114.152,-0.852,1.049,0.108,1,1,3.946
1780148189527,-0.010,1.038,-0.532,0.021,0.340,-0.111,114.050,-0.730,1.053,0.122,1,1,3.221
1780148189545,-0.012,1.035,-0.527,0.023,0.325,-0.104,113.935,-0.397,1.048,0.125,1,1,6.539
1780148189558,-0.012,1.031,-0.522,0.026,0.311,-0.098,113.915,-0.223,1.046,0.118,1,1,3.706
1780148189572,-0.014,1.029,-0.518,0.028,0.298,-0.092,113.911,0.071,1.059,0.101,1,1,3.237
1780148189585,-0.012,1.026,-0.514,0.030,0.286,-0.088,113.945,-0.094,1.065,0.095,1,1,3.257
1780148189599,-0.008,1.025,-0.511,0.032,0.273,-0.084,113.899,-0.544,1.090,0.110,1,1,3.261
1780148189612,-0.001,1.024,-0.507,0.035,0.258,-0.080,113.828,-1.233,1.104,0.160,1,1,3.233
1780148189626,0.005,1.024,-0.504,0.039,0.243,-0.076,113.719,-1.792,1.115,0.229,1,1,3.856
1780148189640,0.011,1.024,-0.500,0.046,0.225,-0.072,113.593,-2.335,1.125,0.318,1,1,3.251
1780148189653,0.016,1.023,-0.497,0.055,0.206,-0.069,113.516,-2.639,1.092,0.401,1,1,3.281
1780148189666,0.014,1.023,-0.494,0.066,0.189,-0.067,113.459,-2.291,1.110,0.446,1,1,3.250
1780148189680,0.011,1.024,-0.491,0.081,0.174,-0.066,113.331,-1.861,1.124,0.504,1,1,3.249
1780148189693,0.009,1.028,-0.488,0.099,0.163,-0.066,113.121,-1.502,1.190,0.591,1,1,3.817
1780148189707,0.008,1.034,-0.486,0.120,0.153,-0.068,112.900,-1.249,1.262,0.699,1,1,3.262
1780148189720,0.007,1.043,-0.485,0.145,0.144,-0.071,112.686,-1.127,1.317,0.805,1,1,3.254
1780148189734,0.005,1.054,-0.485,0.172,0.136,-0.075,112.442,-0.880,1.371,0.897,1,1,3.253
1780148189747,0.001,1.067,-0.485,0.202,0.130,-0.079,112.196,-0.402,1.440,0.996,1,1,3.262
1780148189760,-0.002,1.083,-0.485,0.235,0.125,-0.084,111.828,-0.128,1.522,1.117,3,3,3.791
1780148189775,-0.008,1.112,-0.483,0.274,0.121,-0.088,111.145,0.278,1.812,1.279,3,3,3.340
1780148189788,-0.024,1.155,-0.481,0.316,0.123,-0.098,110.242,1.218,2.163,1.478,3,3,3.347
1780148189802,0.002,1.198,-0.476,0.365,0.122,-0.103,109.234,-0.332,2.244,1.648,3,3,3.333
1780148189815,0.034,1.245,-0.466,0.420,0.111,-0.100,107.975,-1.952,2.401,1.867,3,3,3.251
1780148189829,0.055,1.294,-0.446,0.477,0.085,-0.097,106.324,-2.957,2.426,2.028,4,4,3.846
1780148189843,0.076,1.339,-0.413,0.544,0.056,-0.087,104.039,-3.872,2.392,2.398,4,4,3.262
1780148189856,0.094,1.374,-0.372,0.616,0.018,-0.078,101.393,-4.682,2.271,2.685,4,4,3.337
1780148189869,0.092,1.402,-0.347,0.686,-0.019,-0.075,99.740,-4.418,2.012,2.690,4,4,3.238
1780148189883,0.066,1.386,-0.356,0.754,-0.026,-0.087,101.470,-1.785,1.298,2.543,4,4,3.259
1780148189896,0.091,1.340,-0.380,0.818,-0.019,-0.106,107.044,-4.810,1.153,2.575,4,4,3.789
1780148189910,0.144,1.311,-0.363,0.856,-0.047,-0.109,105.425,-10.297,1.461,2.000,4,4,3.355
1780148189923,0.191,1.283,-0.327,0.854,-0.113,-0.091,100.614,-14.676,1.477,2.035,4,4,3.248
1780148189937,0.200,1.270,-0.290,0.836,-0.169,-0.079,96.978,-15.136,1.170,1.685,4,4,3.245
1780148189950,0.198,1.248,-0.256,0.813,-0.213,-0.063,93.253,-14.645,0.934,1.414,4,4,3.242
1780148189966,0.194,1.211,-0.228,0.774,-0.243,-0.044,88.778,-14.371,0.553,1.128,4,4,4.641
1780148189980,0.188,1.169,-0.202,0.717,-0.261,-0.025,83.738,-13.523,0.449,1.165,4,4,3.258
1780148189994,0.185,1.131,-0.177,0.650,-0.269,-0.004,79.386,-13.685,0.509,1.302,4,4,3.235
1780148190007,0.185,1.095,-0.152,0.577,-0.269,0.019,75.605,-14.321,0.525,1.478,4,4,3.277
1780148190020,0.188,1.063,-0.130,0.497,-0.261,0.047,72.547,-15.541,0.562,1.766,4,4,3.249
1780148190034,0.197,1.033,-0.109,0.407,-0.253,0.081,70.327,-17.575,0.654,2.143,4,4,3.816
1780148190048,0.209,1.012,-0.090,0.311,-0.249,0.119,69.255,-19.372,0.776,2.473,4,4,3.265
1780148190061,0.217,1.002,-0.072,0.213,-0.250,0.161,69.052,-19.876,0.934,2.665,4,4,3.407
1780148190075,0.222,0.994,-0.057,0.113,-0.257,0.205,69.315,-20.044,0.926,2.846,4,4,3.253
1780148190088,0.223,0.993,-0.044,0.016,-0.268,0.252,69.995,-19.406,1.046,2.954,4,4,3.249
1780148190101,0.217,1.000,-0.034,-0.077,-0.284,0.300,71.044,-17.927,1.165,3.027,5,5,3.957
1780148190116,0.198,1.012,-0.030,-0.167,-0.299,0.348,72.596,-15.358,1.291,3.048,5,5,3.634
1780148190129,0.166,1.031,-0.029,-0.254,-0.307,0.394,74.215,-11.962,1.531,2.996,5,5,3.247
1780148190142,0.128,1.055,-0.030,-0.337,-0.304,0.434,75.907,-8.519,1.748,2.919,5,5,3.247
1780148190156,0.090,1.088,-0.035,-0.418,-0.289,0.472,77.714,-5.624,1.964,2.896,5,5,3.261
1780148190169,0.059,1.134,-0.047,-0.495,-0.264,0.507,79.628,-3.553,2.243,2.900,5,5,3.856
1780148190183,0.027,1.182,-0.070,-0.569,-0.234,0.540,82.017,-1.684,2.388,2.913,5,5,3.250
1780148190196,-0.004,1.218,-0.106,-0.641,-0.195,0.566,85.055,0.119,2.294,2.909,5,5,3.252
1780148190210,-0.037,1.262,-0.148,-0.710,-0.149,0.582,87.936,1.752,2.599,2.892,5,5,3.245
1780148190223,-0.073,1.300,-0.199,-0.775,-0.099,0.591,91.173,3.382,2.648,2.862,5,5,3.250
1780148190237,-0.109,1.327,-0.258,-0.829,-0.045,0.588,94.753,4.957,2.611,2.664,5,5,3.900
1780148190251,-0.134,1.341,-0.322,-0.872,0.003,0.580,98.692,5.998,2.475,2.374,5,5,3.261
1780148190264,-0.144,1.348,-0.393,-0.900,0.041,0.564,102.837,6.227,2.494,1.946,5,5,3.356
1780148190277,-0.142,1.349,-0.472,-0.913,0.064,0.548,107.155,5.840,2.584,1.395,5,5,3.266
1780148190291,-0.142,1.342,-0.555,-0.908,0.070,0.534,111.567,5.585,2.665,0.829,5,5,3.731
1780148190305,-0.156,1.336,-0.636,-0.884,0.065,0.517,115.555,5.970,2.733,0.291,1,1,4.056
1780148190319,-0.182,1.319,-0.710,-0.841,0.053,0.492,119.573,7.003,2.622,0.396,1,1,3.295
1780148190332,-0.210,1.301,-0.771,-0.786,0.041,0.460,123.108,8.191,2.435,0.797,1,1,3.254
1780148190346,-0.226,1.326,-0.815,-0.720,0.029,0.420,124.063,8.604,2.638,1.215,1,1,3.251
1780148190362,-0.214,1.291,-0.839,-0.644,0.006,0.384,127.431,7.667,1.476,1.558,1,1,3.294
1780148190375,-0.081,1.409,-0.679,-0.538,-0.013,0.345,120.508,4.074,5.668,2.352,5,5,3.811
1780148190390,-0.170,1.416,-0.566,-0.425,-0.045,0.300,112.786,7.573,3.264,2.787,5,5,3.292
1780148190403,-0.222,1.416,-0.628,-0.329,-0.051,0.299,115.821,9.594,2.798,2.197,5,5,3.271
1780148190416,-0.220,1.350,-0.686,-0.248,-0.045,0.275,87.960,9.166,1.968,1.900,5,5,3.243
1780148190430,-0.188,1.352,-0.646,-0.218,-0.053,0.242,87.236,6.398,1.509,0.879,5,5,3.293
1780148190443,-0.181,1.313,-0.657,-0.207,-0.066,0.209,93.525,5.992,1.016,0.762,1,1,3.690
1780148190457,-0.166,1.302,-0.637,-0.196,-0.068,0.184,94.104,4.579,1.096,0.473,1,1,3.225
1780148190470,-0.162,1.283,-0.626,-0.183,-0.071,0.166,96.085,4.550,0.960,0.378,1,1,3.246
1780148190484,-0.154,1.272,-0.610,-0.170,-0.076,0.155,96.853,4.050,1.066,0.296,1,1,3.217
1780148190497,-0.150,1.261,-0.596,-0.153,-0.081,0.148,97.659,3.966,1.064,0.372,1,1,3.225
1780148190510,-0.143,1.252,-0.579,-0.132,-0.082,0.142,97.941,3.539,1.076,0.415,1,1,3.677
1780148190524,-0.139,1.240,-0.566,-0.111,-0.081,0.138,98.737,3.470,1.017,0.432,1,1,3.224
1780148190537,-0.132,1.230,-0.553,-0.092,-0.079,0.134,99.338,3.048,1.043,0.418,1,1,3.222
1780148190554,-0.126,1.220,-0.540,-0.074,-0.076,0.131,99.785,2.750,1.042,0.391,1,1,3.270
1780148190567,-0.122,1.211,-0.528,-0.058,-0.071,0.129,100.332,2.656,1.041,0.369,1,1,3.265
1780148190580,-0.116,1.202,-0.518,-0.044,-0.066,0.127,100.856,2.263,1.053,0.343,1,1,3.713
1780148190600,-0.107,1.192,-0.508,-0.032,-0.062,0.124,101.454,1.629,1.030,0.276,1,1,3.238
1780148190613,-0.101,1.183,-0.500,-0.023,-0.057,0.121,102.060,1.337,1.029,0.234,1,1,3.236
1780148190626,-0.096,1.175,-0.491,-0.014,-0.053,0.118,102.517,1.070,1.031,0.216,1,1,3.357
1780148190640,-0.091,1.166,-0.483,-0.006,-0.049,0.114,102.982,0.880,1.025,0.207,1,1,3.275
1780148190653,-0.085,1.157,-0.476,0.001,-0.046,0.111,103.469,0.592,1.013,0.200,1,1,3.693
1780148190667,-0.079,1.149,-0.469,0.007,-0.042,0.108,103.961,0.241,1.023,0.184,1,1,3.582
1780148190681,-0.073,1.141,-0.463,0.013,-0.039,0.106,104.393,-0.125,1.023,0.167,1,1,3.219
1780148190694,-0.066,1.134,-0.456,0.018,-0.036,0.102,104.730,-0.569,1.028,0.158,1,1,3.232
1780148190707,-0.060,1.127,-0.451,0.023,-0.034,0.099,105.108,-0.890,1.030,0.154,1,1,3.224
1780148190720,-0.056,1.121,-0.446,0.028,-0.032,0.095,105.468,-0.966,1.045,0.160,1,1,3.686
1780148190734,-0.052,1.115,-0.441,0.033,-0.029,0.091,105.792,-1.064,1.050,0.173,1,1,3.229
1780148190748,-0.046,1.110,-0.436,0.039,-0.027,0.087,106.032,-1.361,1.049,0.183,1,1,3.223
1780148190761,-0.041,1.105,-0.432,0.044,-0.025,0.082,106.247,-1.597,1.054,0.200,1,1,3.253
1780148190774,-0.037,1.100,-0.428,0.050,-0.023,0.076,106.500,-1.673,1.060,0.217,1,1,3.234
1780148190788,-0.033,1.096,-0.424,0.057,-0.022,0.071,106.743,-1.828,1.056,0.231,1,1,3.676
1780148190801,-0.029,1.091,-0.421,0.063,-0.021,0.065,107.058,-2.017,1.052,0.250,1,1,3.239
1780148190815,-0.025,1.087,-0.419,0.070,-0.021,0.058,107.315,-2.102,1.057,0.264,1,1,3.230
1780148190828,-0.022,1.083,-0.416,0.076,-0.021,0.051,107.580,-2.157,1.070,0.282,1,1,3.300
1780148190841,-0.019,1.079,-0.414,0.083,-0.022,0.045,107.867,-2.186,1.068,0.296,1,1,3.308
1780148190855,-0.015,1.077,-0.413,0.091,-0.023,0.039,108.077,-2.315,1.083,0.311,1,1,3.707
1780148190869,-0.012,1.073,-0.412,0.098,-0.025,0.033,108.396,-2.336,1.073,0.330,1,1,3.233
1780148190882,-0.011,1.070,-0.411,0.107,-0.028,0.029,108.670,-2.168,1.069,0.348,1,1,3.240
1780148190895,-0.011,1.067,-0.410,0.116,-0.031,0.027,108.925,-1.951,1.081,0.362,1,1,3.232
1780148190909,-0.010,1.065,-0.410,0.125,-0.035,0.028,109.189,-1.834,1.091,0.395,1,1,3.222
1780148190922,-0.010,1.063,-0.410,0.135,-0.039,0.027,109.475,-1.575,1.105,0.410,4,4,3.733
1780148190936,-0.010,1.061,-0.410,0.145,-0.042,0.026,109.758,-1.365,1.101,0.423,4,4,3.235
1780148190949,-0.010,1.060,-0.411,0.155,-0.044,0.023,109.976,-1.158,1.121,0.433,4,4,3.241
1780148190962,-0.011,1.059,-0.412,0.165,-0.046,0.021,110.283,-0.947,1.122,0.442,4,4,3.230
1780148190976,-0.011,1.057,-0.413,0.175,-0.047,0.019,110.571,-0.817,1.109,0.446,4,4,3.242
1780148190990,-0.011,1.053,-0.415,0.185,-0.048,0.018,111.026,-0.637,1.069,0.440,4,4,4.528
1780148191004,-0.014,1.053,-0.417,0.194,-0.046,0.017,111.217,-0.196,1.157,0.442,4,4,3.295
1780148191017,-0.010,1.054,-0.419,0.204,-0.044,0.018,111.443,-0.592,1.164,0.453,4,4,3.225
1780148191030,-0.005,1.057,-0.422,0.214,-0.043,0.018,111.608,-0.982,1.229,0.466,4,4,3.233
1780148191044,0.003,1.061,-0.425,0.224,-0.043,0.018,111.764,-1.665,1.257,0.506,4,4,3.236
1780148191057,0.016,1.068,-0.427,0.237,-0.048,0.017,111.759,-2.744,1.351,0.597,3,3,3.692
1780148191071,0.027,1.078,-0.431,0.253,-0.057,0.017,111.682,-3.518,1.414,0.716,3,3,3.235
1780148191084,0.034,1.093,-0.433,0.272,-0.069,0.018,111.386,-3.847,1.505,0.861,3,3,3.244
1780148191098,0.035,1.110,-0.434,0.294,-0.083,0.020,111.041,-3.660,1.557,0.978,3,3,3.239
1780148191111,0.038,1.126,-0.438,0.318,-0.098,0.025,110.863,-3.701,1.570,1.087,3,3,3.227
1780148191125,0.045,1.139,-0.441,0.345,-0.117,0.033,110.758,-4.017,1.526,1.218,3,3,4.885
1780148191139,0.058,1.148,-0.444,0.373,-0.142,0.044,110.726,-4.950,1.473,1.401,3,3,3.233
1780148191153,0.081,1.150,-0.445,0.404,-0.174,0.054,110.765,-6.822,1.422,1.596,3,3,3.232
1780148191171,0.115,1.141,-0.450,0.437,-0.219,0.062,111.771,-9.748,1.399,1.914,3,3,5.292
1780148191185,0.156,1.124,-0.459,0.467,-0.270,0.069,113.640,-13.242,1.445,2.034,3,3,3.838
1780148191199,0.207,1.100,-0.463,0.488,-0.331,0.082,115.548,-17.644,1.536,2.226,4,4,3.686
1780148191213,0.270,1.079,-0.448,0.500,-0.412,0.104,114.175,-22.494,1.770,2.711,4,4,3.224
1780148191226,0.314,1.055,-0.420,0.501,-0.489,0.135,109.848,-26.672,1.400,2.730,4,4,3.236
1780148191239,0.343,1.033,-0.386,0.496,-0.564,0.170,104.932,-29.396,1.171,2.744,4,4,3.237
1780148191253,0.344,1.011,-0.361,0.485,-0.636,0.206,101.654,-29.792,0.675,2.761,4,4,3.248
1780148191267,0.343,0.992,-0.343,0.468,-0.691,0.244,100.090,-29.793,0.663,2.459,4,4,3.702
1780148191282,0.342,0.977,-0.331,0.447,-0.727,0.284,99.666,-29.465,0.721,2.133,4,4,3.883
1780148191295,0.343,0.965,-0.321,0.423,-0.752,0.326,99.674,-29.215,0.795,1.999,4,4,3.245
1780148191308,0.342,0.954,-0.313,0.397,-0.769,0.370,99.782,-28.728,0.794,1.955,4,4,3.231
1780148191322,0.341,0.944,-0.306,0.369,-0.782,0.415,99.896,-28.210,0.817,1.964,4,4,3.234
1780148191335,0.338,0.938,-0.299,0.339,-0.793,0.461,99.999,-27.275,0.865,2.042,4,4,3.710
1780148191349,0.330,0.934,-0.294,0.306,-0.804,0.510,100.133,-25.537,0.858,2.141,4,4,3.271
1780148191362,0.313,0.932,-0.288,0.271,-0.814,0.558,100.126,-22.776,0.915,2.196,4,4,3.366
1780148191377,0.289,0.933,-0.281,0.235,-0.824,0.604,99.896,-19.316,0.993,2.221,4,4,4.263
1780148191390,0.258,0.934,-0.273,0.195,-0.835,0.648,99.486,-15.253,1.053,2.267,4,4,3.227
1780148191403,0.226,0.939,-0.264,0.154,-0.851,0.686,98.934,-11.503,1.141,2.287,4,4,3.780
1780148191417,0.199,0.947,-0.255,0.112,-0.878,0.719,98.433,-8.544,1.194,2.439,4,4,3.232
1780148191431,0.169,0.958,-0.247,0.072,-0.919,0.749,97.890,-5.617,1.291,2.689,4,4,3.229
1780148191445,0.127,0.970,-0.236,0.035,-0.971,0.774,97.121,-2.030,1.471,2.871,4,4,3.339
1780148191459,0.078,0.986,-0.224,-0.000,-1.026,0.792,96.361,1.694,1.658,2.899,4,4,3.223
1780148191472,0.019,1.011,-0.210,-0.028,-1.080,0.805,95.378,5.242,2.014,2.834,5,5,3.682
1780148191488,-0.040,1.021,-0.192,-0.052,-1.132,0.808,93.950,9.167,1.820,2.737,5,5,3.237
1780148191501,-0.109,1.016,-0.165,-0.077,-1.183,0.796,91.210,13.828,1.907,2.652,5,5,3.226
1780148191514,-0.232,1.026,-0.148,-0.103,-1.207,0.779,90.125,18.868,3.190,2.002,5,5,3.229
1780148191528,-0.300,1.038,-0.168,-0.131,-1.187,0.753,92.514,21.919,2.288,1.094,5,5,3.237
1780148191541,-0.325,1.041,-0.202,-0.154,-1.155,0.728,96.121,22.783,1.693,0.817,5,5,3.726
1780148191555,-0.383,1.044,-0.199,-0.177,-1.115,0.702,96.177,25.914,2.004,0.783,5,5,3.229
1780148191568,-0.383,1.048,-0.198,-0.192,-1.077,0.687,96.406,25.203,1.194,0.660,5,5,3.225
1780148191582,-0.348,1.096,-0.218,-0.198,-1.034,0.675,97.427,21.818,2.295,0.523,5,5,3.476
1780148191595,-0.300,1.130,-0.205,-0.203,-0.997,0.652,96.489,17.674,2.019,0.330,5,5,3.225
1780148191608,-0.283,1.134,-0.209,-0.204,-0.964,0.626,97.173,15.583,1.252,0.254,1,1,3.810
1780148191622,-0.277,1.125,-0.216,-0.205,-0.928,0.606,98.500,14.978,1.008,0.244,1,1,3.233
1780148191635,-0.267,1.118,-0.219,-0.205,-0.894,0.591,99.239,13.817,1.023,0.285,1,1,3.224
1780148191649,-0.256,1.115,-0.221,-0.205,-0.860,0.577,99.831,12.508,1.067,0.296,1,1,3.235
1780148191662,-0.241,1.111,-0.224,-0.202,-0.827,0.563,100.362,10.875,1.068,0.239,1,1,3.235
1780148191676,-0.226,1.107,-0.227,-0.200,-0.796,0.547,100.901,9.308,1.063,0.198,1,1,4.063
1780148191690,-0.209,1.101,-0.230,-0.198,-0.766,0.530,101.470,7.575,1.041,0.174,1,1,3.235
1780148191703,-0.194,1.096,-0.234,-0.198,-0.737,0.513,102.047,6.204,1.027,0.201,1,1,3.229
1780148191716,-0.181,1.090,-0.237,-0.199,-0.709,0.496,102.563,5.051,1.021,0.244,1,1,3.225
1780148191730,-0.171,1.086,-0.239,-0.202,-0.681,0.479,102.915,4.256,1.042,0.271,1,1,3.224
1780148191743,-0.161,1.082,-0.240,-0.204,-0.655,0.462,103.103,3.573,1.027,0.272,1,1,3.683
1780148191757,-0.151,1.079,-0.240,-0.206,-0.629,0.446,103.152,2.927,1.044,0.264,1,1,3.228
1780148191770,-0.142,1.075,-0.240,-0.208,-0.605,0.430,103.142,2.328,1.030,0.254,1,1,3.229
1780148191783,-0.132,1.071,-0.240,-0.210,-0.582,0.414,103.231,1.681,1.014,0.250,1,1,3.319
1780148191797,-0.123,1.067,-0.240,-0.211,-0.560,0.398,103.305,1.076,1.010,0.257,1,1,3.228
1780148191810,-0.115,1.064,-0.241,-0.213,-0.540,0.383,103.336,0.598,1.031,0.257,1,1,3.807
1780148191824,-0.107,1.061,-0.239,-0.214,-0.520,0.369,103.218,0.198,1.021,0.250,1,1,3.231
1780148191837,-0.101,1.058,-0.239,-0.215,-0.501,0.356,103.172,0.025,1.015,0.240,1,1,3.245
1780148191850,-0.096,1.055,-0.237,-0.216,-0.482,0.345,103.033,-0.008,1.017,0.245,1,1,3.223
1780148191864,-0.091,1.052,-0.236,-0.217,-0.462,0.337,102.945,-0.079,0.999,0.269,1,1,3.343
1780148191880,-0.084,1.051,-0.235,-0.217,-0.444,0.330,102.792,-0.469,1.049,0.283,1,1,5.924
1780148191893,-0.076,1.051,-0.233,-0.218,-0.425,0.324,102.626,-0.914,1.077,0.303,1,1,3.237
1780148191907,-0.070,1.049,-0.232,-0.220,-0.407,0.319,102.453,-1.139,1.025,0.333,1,1,3.239
1780148191920,-0.064,1.047,-0.230,-0.223,-0.390,0.315,102.265,-1.367,1.030,0.361,1,1,3.229
1780148191934,-0.058,1.046,-0.228,-0.226,-0.375,0.312,102.059,-1.665,1.032,0.383,1,1,3.232
1780148191948,-0.052,1.044,-0.225,-0.230,-0.360,0.309,101.861,-1.983,1.018,0.402,1,1,3.678
1780148191962,-0.046,1.042,-0.224,-0.234,-0.344,0.305,101.823,-2.241,1.022,0.422,1,1,4.065
1780148191978,-0.039,1.040,-0.224,-0.240,-0.330,0.302,101.844,-2.557,1.022,0.449,1,1,3.261
1780148191991,-0.037,1.040,-0.222,-0.245,-0.315,0.299,101.680,-2.407,1.074,0.444,1,1,3.236
1780148192005,-0.030,1.040,-0.220,-0.249,-0.299,0.295,101.460,-2.822,1.042,0.420,1,1,3.236
1780148192019,-0.023,1.041,-0.215,-0.250,-0.282,0.291,100.923,-3.209,1.086,0.347,1,1,3.675
1780148192033,-0.015,1.042,-0.209,-0.246,-0.266,0.285,100.297,-3.671,1.077,0.256,1,1,3.575
1780148192047,-0.006,1.043,-0.205,-0.239,-0.251,0.279,99.947,-4.252,1.088,0.193,1,1,3.682
1780148192062,0.004,1.043,-0.205,-0.228,-0.236,0.270,99.975,-5.030,1.093,0.147,1,1,4.973
1780148192075,0.015,1.043,-0.206,-0.216,-0.224,0.255,100.196,-5.868,1.097,0.207,1,1,3.227
1780148192089,0.028,1.043,-0.207,-0.202,-0.218,0.235,100.470,-6.847,1.121,0.322,4,4,3.742
1780148192102,0.047,1.043,-0.213,-0.188,-0.222,0.212,101.135,-8.336,1.178,0.541,4,4,3.227
1780148192116,0.067,1.041,-0.218,-0.176,-0.241,0.189,101.893,-9.956,1.163,0.857,4,4,3.236
1780148192130,0.094,1.037,-0.225,-0.165,-0.285,0.179,102.752,-12.258,1.233,1.425,4,4,3.241
1780148192143,0.106,1.050,-0.236,-0.155,-0.345,0.179,103.414,-12.502,1.465,1.916,4,4,3.245
1780148192156,0.125,1.041,-0.255,-0.141,-0.416,0.178,105.823,-13.824,1.213,2.274,3,3,3.691
1780148192170,0.128,1.038,-0.273,-0.123,-0.491,0.171,107.597,-13.361,1.181,2.473,3,3,3.237
1780148192183,0.118,1.041,-0.288,-0.102,-0.559,0.161,108.700,-11.663,1.283,2.354,3,3,3.234
1780148192197,0.105,1.046,-0.302,-0.075,-0.612,0.148,109.538,-9.870,1.314,2.096,3,3,3.272
1780148192210,0.093,1.052,-0.315,-0.043,-0.649,0.132,110.237,-8.165,1.341,1.822,3,3,3.236
1780148192223,0.078,1.056,-0.324,-0.007,-0.672,0.117,110.696,-6.343,1.274,1.590,4,4,3.685
1780148192237,0.063,1.058,-0.328,0.032,-0.680,0.102,110.634,-4.493,1.203,1.397,4,4,3.235
1780148192250,0.047,1.060,-0.324,0.069,-0.676,0.087,109.806,-2.686,1.162,1.232,4,4,3.247
1780148192264,0.023,1.060,-0.310,0.105,-0.657,0.070,107.979,-0.018,1.185,1.115,4,4,3.235
1780148192277,-0.003,1.060,-0.276,0.140,-0.622,0.053,103.995,2.421,1.296,1.150,4,4,3.224
1780148192290,-0.023,1.048,-0.220,0.171,-0.571,0.038,97.716,4.122,1.337,1.281,4,4,3.713
1780148192304,-0.027,1.011,-0.144,0.182,-0.509,0.028,89.114,4.125,1.534,1.216,4,4,3.251
1780148192318,-0.003,0.982,-0.051,0.164,-0.468,0.017,81.588,2.379,2.094,0.721,4,4,3.222
1780148192331,0.004,0.962,-0.033,0.147,-0.446,0.020,79.167,0.904,0.643,0.327,4,4,3.230
1780148192344,-0.010,0.964,-0.086,0.124,-0.416,0.016,85.022,1.812,1.632,0.612,4,4,3.232
1780148192357,0.009,0.942,-0.123,0.101,-0.386,0.021,91.473,-0.453,1.118,0.646,1,1,3.800
1780148192371,0.026,0.948,-0.144,0.080,-0.366,0.025,94.174,-2.123,1.296,0.512,1,1,3.235
1780148192385,0.053,0.946,-0.176,0.063,-0.355,0.029,97.931,-4.491,1.407,0.410,1,1,3.322
1780148192398,0.072,0.971,-0.171,0.046,-0.347,0.028,97.417,-5.716,1.591,0.429,1,1,3.322
1780148192412,0.078,0.992,-0.177,0.031,-0.342,0.023,97.851,-6.013,1.488,0.428,1,1,3.250
1780148192425,0.065,1.009,-0.181,0.018,-0.333,0.018,98.138,-4.587,1.428,0.343,1,1,3.722
1780148192439,0.053,1.015,-0.183,0.007,-0.323,0.017,98.431,-3.133,1.203,0.284,1,1,3.232
1780148192452,0.038,1.017,-0.186,-0.002,-0.312,0.022,98.941,-1.399,1.113,0.292,1,1,3.239
1780148192465,0.029,1.015,-0.190,-0.011,-0.300,0.032,99.539,-0.394,1.029,0.367,1,1,3.237
1780148192479,0.024,1.013,-0.194,-0.018,-0.287,0.043,100.198,0.069,1.019,0.397,1,1,3.224
1780148192492,0.025,1.012,-0.197,-0.024,-0.275,0.053,100.678,-0.219,1.017,0.366,1,1,3.809
1780148192506,0.036,1.010,-0.199,-0.029,-0.263,0.059,101.033,-1.562,1.046,0.279,1,1,3.235
1780148192519,0.046,1.009,-0.202,-0.034,-0.254,0.061,101.398,-2.818,1.039,0.201,1,1,3.228
1780148192533,0.049,1.009,-0.204,-0.039,-0.245,0.061,101.600,-3.252,1.044,0.166,1,1,3.240
1780148192546,0.052,1.009,-0.205,-0.043,-0.238,0.059,101.727,-3.561,1.055,0.149,1,1,3.228
1780148192559,0.052,1.011,-0.205,-0.045,-0.231,0.058,101.702,-3.470,1.066,0.138,1,1,3.840
1780148192573,0.050,1.011,-0.206,-0.048,-0.225,0.057,101.779,-3.185,1.045,0.145,1,1,3.265
1780148192587,0.050,1.012,-0.207,-0.052,-0.219,0.056,101.833,-3.056,1.061,0.158,1,1,3.271
1780148192600,0.051,1.012,-0.209,-0.056,-0.214,0.056,101.965,-3.233,1.049,0.187,1,1,3.238
1780148192614,0.052,1.012,-0.210,-0.062,-0.208,0.055,102.056,-3.305,1.035,0.226,1,1,3.231
1780148192629,0.053,1.012,-0.210,-0.069,-0.202,0.054,102.138,-3.351,1.030,0.264,1,1,3.725
1780148192643,0.054,1.012,-0.210,-0.078,-0.197,0.053,102.090,-3.405,1.040,0.305,1,1,3.235
1780148192656,0.054,1.012,-0.211,-0.087,-0.191,0.053,102.118,-3.396,1.031,0.339,1,1,3.233
1780148192669,0.053,1.011,-0.211,-0.097,-0.185,0.053,102.080,-3.211,1.014,0.364,1,1,3.234
1780148192684,0.052,1.010,-0.211,-0.108,-0.179,0.055,102.071,-3.094,1.009,0.403,1,1,3.274
1780148192697,0.052,1.009,-0.210,-0.119,-0.174,0.057,102.032,-3.022,1.004,0.431,1,1,3.711
1780148192713,0.050,1.007,-0.210,-0.129,-0.169,0.061,102.077,-2.879,0.995,0.420,1,1,4.978
1780148192726,0.049,1.005,-0.209,-0.136,-0.164,0.065,101.960,-2.687,0.990,0.355,1,1,3.225
1780148192739,0.051,1.006,-0.205,-0.138,-0.159,0.068,101.410,-2.943,1.038,0.257,1,1,3.228
1780148192753,0.053,1.010,-0.199,-0.136,-0.153,0.070,100.652,-3.125,1.086,0.143,1,1,3.274
1780148192766,0.056,1.012,-0.194,-0.131,-0.147,0.070,100.128,-3.508,1.072,0.055,1,1,3.699
1780148192781,0.060,1.013,-0.192,-0.124,-0.141,0.066,99.833,-3.855,1.052,0.068,1,1,3.280
1780148192795,0.062,1.013,-0.189,-0.116,-0.135,0.062,99.648,-4.131,1.042,0.108,1,1,3.230
1780148192808,0.065,1.013,-0.187,-0.108,-0.130,0.056,99.515,-4.413,1.025,0.139,1,1,3.235
1780148192823,0.065,1.013,-0.187,-0.100,-0.125,0.051,99.528,-4.346,1.017,0.133,1,1,3.233
1780148192837,0.063,1.012,-0.186,-0.093,-0.120,0.047,99.515,-4.063,1.015,0.100,1,1,3.703
1780148192851,0.061,1.012,-0.185,-0.088,-0.114,0.044,99.530,-3.757,1.016,0.071,1,1,3.239
1780148192864,0.061,1.010,-0.185,-0.082,-0.109,0.043,99.562,-3.676,1.001,0.056,1,1,3.245
1780148192877,0.061,1.009,-0.184,-0.078,-0.104,0.041,99.568,-3.705,0.994,0.048,1,1,3.245
1780148192891,0.062,1.008,-0.183,-0.074,-0.100,0.040,99.599,-3.774,0.999,0.036,1,1,3.228
1780148192904,0.062,1.007,-0.183,-0.070,-0.096,0.038,99.681,-3.806,1.009,0.020,1,1,3.702
1780148192919,0.062,1.006,-0.183,-0.068,-0.092,0.037,99.746,-3.793,1.006,0.005,1,1,4.215
1780148192932,0.063,1.006,-0.183,-0.065,-0.089,0.035,99.789,-3.831,1.018,0.010,1,1,3.237
1780148192946,0.064,1.006,-0.182,-0.064,-0.085,0.034,99.759,-3.875,1.022,0.017,1,1,3.239
1780148192959,0.064,1.006,-0.181,-0.062,-0.082,0.032,99.701,-3.955,1.022,0.020,1,1,3.236
1780148192974,0.065,1.006,-0.180,-0.060,-0.079,0.031,99.596,-3.958,1.023,0.017,2,2,5.623
1780148192989,0.064,1.007,-0.179,-0.058,-0.076,0.030,99.476,-3.874,1.032,0.023,2,2,3.237
1780148193002,0.064,1.007,-0.178,-0.057,-0.073,0.030,99.400,-3.834,1.033,0.026,2,2,3.307
1780148193015,0.065,1.007,-0.176,-0.054,-0.071,0.030,99.306,-3.871,1.023,0.027,2,2,3.247
1780148193029,0.065,1.008,-0.175,-0.052,-0.068,0.030,99.221,-3.930,1.029,0.025,2,2,3.227
1780148193042,0.067,1.008,-0.174,-0.049,-0.066,0.029,99.162,-4.081,1.035,0.023,1,1,3.817
1780148193056,0.069,1.008,-0.173,-0.047,-0.064,0.027,99.113,-4.272,1.021,0.029,1,1,3.232
1780148193070,0.070,1.008,-0.173,-0.044,-0.062,0.025,99.103,-4.402,1.027,0.043,1,1,4.420
1780148193084,0.071,1.008,-0.172,-0.041,-0.060,0.022,99.080,-4.462,1.016,0.057,1,1,3.267
1780148193097,0.072,1.007,-0.172,-0.039,-0.058,0.019,99.084,-4.501,1.020,0.062,1,1,3.254
1780148193110,0.071,1.007,-0.171,-0.037,-0.056,0.017,99.123,-4.411,1.011,0.061,1,1,3.800
1780148193124,0.071,1.006,-0.171,-0.035,-0.055,0.014,99.126,-4.286,1.013,0.051,1,1,3.235
1780148193138,0.069,1.006,-0.171,-0.033,-0.053,0.013,99.169,-4.078,1.016,0.028,1,1,3.977
1780148193152,0.068,1.006,-0.171,-0.032,-0.051,0.012,99.209,-3.906,1.014,0.015,1,1,3.237
1780148193165,0.067,1.005,-0.170,-0.030,-0.050,0.012,99.221,-3.747,1.010,0.016,1,1,3.227
1780148193183,0.066,1.005,-0.171,-0.029,-0.048,0.012,99.298,-3.624,1.018,0.024,2,2,8.119
1780148193197,0.066,1.005,-0.171,-0.027,-0.047,0.013,99.305,-3.649,1.016,0.025,2,2,3.225
1780148193210,0.066,1.005,-0.170,-0.026,-0.045,0.013,99.299,-3.704,1.024,0.019,2,2,3.252
1780148193223,0.067,1.005,-0.170,-0.025,-0.044,0.013,99.317,-3.758,1.016,0.010,2,2,3.225
1780148193237,0.067,1.005,-0.170,-0.024,-0.043,0.012,99.305,-3.850,1.013,0.012,2,2,3.242
1780148193250,0.068,1.004,-0.169,-0.023,-0.041,0.011,99.282,-3.910,1.016,0.022,2,2,3.705
1780148193264,0.067,1.004,-0.169,-0.021,-0.040,0.010,99.302,-3.848,1.021,0.022,2,2,3.239
1780148193277,0.067,1.004,-0.169,-0.020,-0.039,0.009,99.316,-3.785,1.015,0.014,2,2,3.261
1780148193291,0.066,1.004,-0.169,-0.019,-0.037,0.009,99.339,-3.648,1.015,0.006,2,2,3.220
1780148193304,0.065,1.004,-0.169,-0.018,-0.036,0.009,99.337,-3.542,1.016,0.013,2,2,3.284
1780148193317,0.064,1.004,-0.169,-0.018,-0.035,0.009,99.321,-3.476,1.014,0.024,2,2,3.697
1780148193331,0.064,1.004,-0.169,-0.017,-0.034,0.010,99.390,-3.400,1.016,0.032,2,2,3.225
1780148193344,0.063,1.004,-0.169,-0.017,-0.032,0.011,99.387,-3.364,1.019,0.034,2,2,3.246
1780148193358,0.063,1.003,-0.168,-0.016,-0.031,0.012,99.370,-3.386,1.015,0.040,2,2,3.219
1780148193371,0.063,1.004,-0.168,-0.016,-0.030,0.013,99.382,-3.371,1.021,0.042,2,2,3.226
1780148193384,0.063,1.003,-0.168,-0.015,-0.029,0.014,99.375,-3.429,1.017,0.042,2,2,3.676
1780148193398,0.063,1.004,-0.168,-0.015,-0.028,0.015,99.320,-3.470,1.019,0.041,2,2,3.239
1780148193411,0.064,1.004,-0.168,-0.015,-0.027,0.016,99.339,-3.531,1.021,0.036,2,2,3.230
1780148193425,0.065,1.003,-0.168,-0.014,-0.026,0.016,99.328,-3.635,1.018,0.029,2,2,3.307
1780148193438,0.065,1.004,-0.167,-0.014,-0.026,0.017,99.302,-3.677,1.026,0.028,2,2,3.345
1780148193452,0.065,1.004,-0.167,-0.014,-0.025,0.017,99.309,-3.716,1.020,0.026,2,2,3.708
1780148193465,0.066,1.004,-0.167,-0.013,-0.024,0.017,99.341,-3.768,1.023,0.025,2,2,3.246
1780148193479,0.066,1.004,-0.167,-0.013,-0.023,0.018,99.327,-3.820,1.019,0.023,2,2,3.248
1780148193492,0.066,1.004,-0.167,-0.012,-0.023,0.018,99.359,-3.787,1.015,0.025,2,2,3.236
1780148193505,0.066,1.004,-0.167,-0.012,-0.022,0.018,99.365,-3.809,1.018,0.028,2,2,3.252
1780148193519,0.067,1.003,-0.167,-0.012,-0.021,0.018,99.367,-3.826,1.018,0.027,2,2,3.687
1780148193532,0.067,1.003,-0.167,-0.011,-0.021,0.019,99.322,-3.859,1.013,0.024,2,2,3.232
1780148193546,0.067,1.003,-0.167,-0.011,-0.020,0.019,99.344,-3.861,1.022,0.021,2,2,3.242
1780148193559,0.067,1.003,-0.167,-0.011,-0.020,0.019,99.370,-3.880,1.015,0.021,2,2,3.232
1780148193572,0.067,1.003,-0.167,-0.010,-0.019,0.019,99.351,-3.885,1.011,0.019,2,2,3.240
1780148193586,0.068,1.003,-0.167,-0.010,-0.019,0.019,99.356,-3.923,1.020,0.019,2,2,3.692
1780148193603,0.068,1.003,-0.167,-0.009,-0.018,0.018,99.397,-3.946,1.023,0.014,2,2,6.204
1780148193616,0.069,1.003,-0.167,-0.009,-0.018,0.018,99.420,-4.019,1.019,0.010,2,2,3.243
1780148193629,0.069,1.003,-0.167,-0.008,-0.018,0.017,99.393,-4.096,1.016,0.008,2,2,3.247
1780148193643,0.070,1.003,-0.167,-0.008,-0.017,0.017,99.405,-4.123,1.021,0.011,2,2,3.245
1780148193657,0.070,1.003,-0.167,-0.007,-0.017,0.016,99.384,-4.097,1.020,0.011,2,2,4.244
1780148193670,0.070,1.003,-0.166,-0.007,-0.017,0.016,99.327,-4.079,1.018,0.013,2,2,3.228
1780148193684,0.070,1.003,-0.165,-0.006,-0.016,0.015,99.238,-4.130,1.015,0.012,2,2,3.231
1780148193697,0.070,1.003,-0.165,-0.006,-0.016,0.015,99.261,-4.120,1.019,0.010,2,2,3.235
1780148193711,0.070,1.003,-0.165,-0.005,-0.016,0.015,99.248,-4.095,1.023,0.011,2,2,3.652
1780148193724,0.070,1.003,-0.165,-0.005,-0.015,0.014,99.280,-4.113,1.025,0.014,2,2,4.276
1780148193738,0.070,1.003,-0.165,-0.005,-0.015,0.014,99.293,-4.084,1.016,0.010,2,2,3.235
1780148193752,0.070,1.003,-0.165,-0.004,-0.015,0.013,99.301,-4.088,1.019,0.012,2,2,3.227
1780148193765,0.071,1.003,-0.166,-0.004,-0.015,0.013,99.322,-4.082,1.019,0.014,2,2,3.251
1780148193778,0.071,1.003,-0.165,-0.003,-0.014,0.012,99.315,-4.114,1.016,0.012,2,2,3.225
1780148193792,0.071,1.003,-0.165,-0.003,-0.014,0.012,99.302,-4.130,1.024,0.012,2,2,3.702
1780148193805,0.071,1.003,-0.166,-0.002,-0.014,0.011,99.341,-4.116,1.021,0.011,2,2,3.231
1780148193821,0.071,1.003,-0.166,-0.002,-0.014,0.011,99.363,-4.123,1.019,0.008,2,2,5.211
1780148193834,0.071,1.003,-0.165,-0.002,-0.013,0.010,99.323,-4.114,1.018,0.010,2,2,3.232
1780148193847,0.071,1.003,-0.165,-0.001,-0.013,0.010,99.327,-4.125,1.016,0.011,2,2,3.221
1780148193861,0.072,1.003,-0.165,-0.001,-0.013,0.009,99.292,-4.161,1.021,0.014,2,2,3.771
1780148193875,0.071,1.003,-0.165,-0.000,-0.012,0.009,99.259,-4.102,1.021,0.013,2,2,3.524
1780148193888,0.071,1.003,-0.165,0.000,-0.012,0.008,99.259,-4.099,1.021,0.015,2,2,3.251
1780148193902,0.071,1.003,-0.165,0.001,-0.012,0.008,99.281,-4.055,1.020,0.012,2,2,3.233
1780148193915,0.071,1.003,-0.165,0.001,-0.012,0.007,99.282,-4.044,1.020,0.010,2,2,3.239
1780148193928,0.071,1.003,-0.165,0.001,-0.011,0.007,99.326,-3.998,1.016,0.010,2,2,3.692
1780148193942,0.071,1.003,-0.165,0.001,-0.011,0.006,99.314,-4.005,1.020,0.013,2,2,3.245
1780148193956,0.071,1.003,-0.165,0.002,-0.011,0.006,99.311,-4.045,1.023,0.014,2,2,3.252
1780148193969,0.071,1.003,-0.165,0.002,-0.011,0.005,99.329,-4.021,1.020,0.018,2,2,3.265
1780148193984,0.071,1.003,-0.165,0.003,-0.010,0.005,99.311,-4.000,1.020,0.019,2,2,5.251
1780148193998,0.071,1.003,-0.165,0.003,-0.010,0.004,99.340,-3.988,1.020,0.021,2,2,3.815
1780148194011,0.071,1.003,-0.166,0.004,-0.010,0.003,99.392,-4.022,1.016,0.023,2,2,3.225
1780148194025,0.071,1.003,-0.166,0.004,-0.009,0.002,99.397,-4.024,1.022,0.033,2,2,3.241
1780148194038,0.072,1.004,-0.166,0.005,-0.009,0.001,99.367,-4.119,1.029,0.046,2,2,3.233
1780148194052,0.072,1.004,-0.165,0.007,-0.009,-0.001,99.324,-4.162,1.027,0.060,2,2,3.250
1780148194065,0.073,1.004,-0.165,0.008,-0.008,-0.003,99.341,-4.227,1.026,0.083,2,2,3.693
1780148194079,0.073,1.005,-0.165,0.011,-0.008,-0.006,99.347,-4.249,1.030,0.102,2,2,3.930
1780148194093,0.074,1.005,-0.166,0.013,-0.008,-0.009,99.430,-4.300,1.022,0.122,2,2,3.225
1780148194106,0.074,1.004,-0.167,0.016,-0.008,-0.013,99.497,-4.279,1.021,0.145,2,2,3.223
1780148194119,0.073,1.004,-0.168,0.020,-0.008,-0.017,99.602,-4.158,1.017,0.164,2,2,3.238
1780148194133,0.072,1.004,-0.169,0.024,-0.008,-0.021,99.735,-4.048,1.019,0.189,3,3,3.706
1780148194147,0.071,1.004,-0.169,0.029,-0.008,-0.025,99.802,-3.877,1.026,0.214,3,3,3.249
1780148194160,0.069,1.004,-0.170,0.035,-0.007,-0.030,99.875,-3.695,1.027,0.241,3,3,3.226
1780148194173,0.067,1.005,-0.171,0.043,-0.006,-0.034,99.861,-3.425,1.037,0.271,3,3,3.239
1780148194186,0.065,1.006,-0.170,0.051,-0.005,-0.037,99.801,-3.212,1.043,0.295,3,3,3.227
1780148194200,0.063,1.007,-0.171,0.061,-0.003,-0.039,99.877,-3.073,1.041,0.333,3,3,3.782
1780148194214,0.064,1.007,-0.173,0.071,-0.002,-0.043,100.048,-3.237,1.031,0.369,3,3,3.244
1780148194227,0.065,1.005,-0.176,0.081,-0.002,-0.048,100.426,-3.387,1.008,0.362,3,3,3.226
1780148194240,0.064,1.004,-0.179,0.089,-0.002,-0.051,100.728,-3.231,1.011,0.337,3,3,3.237
1780148194254,0.060,1.003,-0.182,0.096,-0.003,-0.054,101.155,-2.863,1.012,0.311,3,3,3.225
1780148194267,0.057,1.001,-0.187,0.101,-0.004,-0.056,101.737,-2.478,1.000,0.267,3,3,3.690
1780148194281,0.053,1.000,-0.191,0.105,-0.006,-0.057,102.140,-2.091,1.007,0.225,3,3,3.293
1780148194294,0.050,0.998,-0.195,0.108,-0.007,-0.056,102.449,-1.805,1.005,0.185,3,3,3.227
1780148194307,0.047,0.997,-0.199,0.110,-0.007,-0.054,102.859,-1.457,1.012,0.164,3,3,3.239
1780148194321,0.044,0.996,-0.203,0.111,-0.007,-0.052,103.173,-1.274,1.008,0.135,3,3,3.234
1780148194334,0.040,0.995,-0.206,0.111,-0.006,-0.047,103.456,-0.844,1.014,0.128,4,4,3.714
1780148194348,0.037,0.994,-0.210,0.109,-0.005,-0.042,103.772,-0.685,1.014,0.127,4,4,3.228
1780148194361,0.036,0.993,-0.213,0.107,-0.003,-0.035,103.959,-0.638,1.020,0.147,4,4,3.226
1780148194375,0.035,0.993,-0.215,0.102,-0.002,-0.028,104.065,-0.623,1.024,0.154,4,4,3.643
1780148194388,0.033,0.993,-0.217,0.097,0.000,-0.021,104.057,-0.587,1.030,0.179,4,4,3.246
1780148194402,0.033,0.994,-0.218,0.092,0.004,-0.015,104.109,-0.673,1.032,0.185,4,4,3.690
1780148194415,0.032,0.994,-0.219,0.087,0.006,-0.007,104.033,-0.666,1.041,0.210,4,4,3.233
1780148194429,0.033,0.995,-0.221,0.082,0.008,0.001,104.022,-0.829,1.033,0.210,4,4,3.236
1780148194442,0.033,0.995,-0.222,0.078,0.010,0.008,103.965,-1.007,1.040,0.201,4,4,3.242
1780148194456,0.034,0.996,-0.222,0.075,0.012,0.014,103.889,-1.169,1.049,0.200,4,4,3.227
1780148194470,0.036,0.997,-0.223,0.073,0.014,0.021,103.846,-1.455,1.046,0.199,4,4,5.346
1780148194484,0.037,0.998,-0.225,0.072,0.016,0.027,103.877,-1.615,1.043,0.194,4,4,3.277
1780148194498,0.039,0.998,-0.226,0.071,0.017,0.032,103.916,-1.977,1.038,0.178,4,4,3.240
1780148194511,0.042,0.998,-0.228,0.071,0.018,0.036,104.056,-2.332,1.038,0.156,4,4,3.244
1780148194525,0.045,0.998,-0.229,0.071,0.019,0.038,104.112,-2.663,1.044,0.130,4,4,3.279
1780148194538,0.048,0.998,-0.231,0.072,0.020,0.039,104.154,-2.995,1.042,0.113,4,4,3.757
1780148194552,0.050,0.998,-0.232,0.072,0.019,0.038,104.225,-3.214,1.035,0.104,4,4,3.258
1780148194565,0.052,0.999,-0.233,0.074,0.019,0.038,104.214,-3.365,1.041,0.114,4,4,3.228
1780148194582,0.052,0.999,-0.235,0.076,0.018,0.037,104.267,-3.359,1.033,0.126,4,4,7.187
1780148194596,0.053,0.998,-0.236,0.078,0.017,0.036,104.399,-3.440,1.038,0.130,4,4,3.221
1780148194609,0.055,0.998,-0.238,0.080,0.016,0.035,104.548,-3.591,1.028,0.132,2,2,3.700
1780148194623,0.057,0.997,-0.241,0.082,0.014,0.033,104.715,-3.798,1.033,0.140,2,2,3.246
1780148194636,0.059,0.997,-0.243,0.084,0.013,0.030,104.871,-3.945,1.030,0.143,2,2,3.285
1780148194650,0.059,0.997,-0.245,0.086,0.011,0.028,105.014,-3.960,1.036,0.135,2,2,3.252
1780148194663,0.060,0.996,-0.247,0.087,0.010,0.025,105.156,-3.970,1.034,0.134,2,2,3.218
1780148194676,0.060,0.996,-0.249,0.088,0.008,0.023,105.295,-3.945,1.042,0.125,2,2,3.738
1780148194690,0.060,0.996,-0.251,0.089,0.006,0.021,105.442,-3.906,1.035,0.128,2,2,3.241
1780148194703,0.060,0.996,-0.254,0.090,0.005,0.019,105.604,-3.873,1.037,0.122,2,2,3.243
1780148194717,0.060,0.995,-0.256,0.090,0.003,0.017,105.745,-3.786,1.037,0.116,2,2,3.228
1780148194730,0.060,0.996,-0.258,0.091,0.002,0.014,105.866,-3.758,1.050,0.113,2,2,3.260
1780148194744,0.061,0.996,-0.260,0.091,-0.000,0.012,105.960,-3.775,1.048,0.125,2,2,3.706
1780148194757,0.061,0.996,-0.262,0.092,-0.002,0.010,106.082,-3.782,1.052,0.143,2,2,3.231
1780148194771,0.061,0.996,-0.265,0.094,-0.004,0.007,106.210,-3.715,1.046,0.161,2,2,3.220
1780148194784,0.061,0.997,-0.267,0.097,-0.006,0.004,106.335,-3.634,1.055,0.180,2,2,3.230
1780148194798,0.061,0.997,-0.269,0.100,-0.007,0.002,106.440,-3.628,1.064,0.211,2,2,3.976
1780148194811,0.061,0.998,-0.272,0.105,-0.009,-0.001,106.564,-3.588,1.071,0.259,3,3,3.684
1780148194825,0.061,1.000,-0.274,0.112,-0.011,-0.005,106.631,-3.585,1.086,0.322,3,3,3.396
1780148194839,0.061,1.001,-0.277,0.121,-0.012,-0.010,106.814,-3.480,1.085,0.375,3,3,3.226
