timestamp,ax,ay,az,gx,gy,gz,roll,pitch_k,acc_norm,gyro_norm,classe_prevista_raw,classe_prevista,delay_ms
1777495698648,0.0939941,0.904053,-0.588623,7.1374,20.4198,-8.0458,111.981,-4.53095,1.08288,23.0792,0,0,3.278
1777495698662,0.109,0.897,-0.611,8.145,10.824,-3.565,118.162,-5.146,1.091,14.008,0,0,3.277
1777495698675,0.133,0.895,-0.600,8.511,0.076,1.122,120.295,-5.848,1.086,8.585,0,0,3.270
1777495698688,0.124,0.904,-0.632,10.313,-12.053,3.519,121.796,-6.031,1.110,16.249,0,0,3.266
1777495698702,0.134,0.900,-0.612,9.695,-21.969,8.214,122.510,-6.322,1.096,25.379,0,0,3.295
1777495698715,0.120,0.875,-0.615,11.061,-31.420,11.687,123.251,-6.351,1.076,35.301,0,0,3.263
1777495698729,0.111,0.920,-0.583,12.405,-41.740,12.328,123.013,-6.208,1.095,45.256,0,0,3.265
1777495698742,0.139,0.906,-0.604,12.206,-50.634,15.901,123.191,-6.505,1.098,54.457,0,0,3.262
1777495698755,0.132,0.910,-0.613,13.664,-60.321,16.847,123.401,-6.599,1.105,64.102,0,0,3.256
1777495698769,0.070,0.894,-0.617,14.122,-67.076,19.496,123.724,-5.810,1.089,71.265,0,0,3.260
1777495698782,0.057,0.901,-0.626,14.527,-73.191,20.008,124.011,-5.037,1.099,77.254,0,0,3.259
1777495698795,-0.017,0.893,-0.610,15.336,-76.527,18.870,124.101,-3.433,1.081,80.297,0,0,3.266
1777495698809,-0.006,0.919,-0.603,15.450,-79.710,18.168,123.877,-2.426,1.100,83.201,0,0,3.255
1777495698822,-0.057,0.874,-0.608,16.511,-81.397,20.473,124.132,-0.944,1.067,85.541,0,0,3.273
1777495698835,-0.088,0.888,-0.605,17.947,-83.641,20.802,124.169,0.571,1.078,88.038,0,0,3.254
1777495698849,-0.064,0.887,-0.591,17.832,-86.527,21.832,124.042,1.352,1.068,91.003,0,0,3.253
1777495698862,-0.057,0.896,-0.583,19.076,-90.160,20.985,123.764,1.806,1.071,94.515,0,0,3.261
1777495698875,-0.076,0.886,-0.575,19.435,-92.718,22.168,123.548,2.432,1.059,97.292,0,0,3.259
1777495698892,-0.039,0.883,-0.587,19.504,-97.214,22.237,123.559,2.338,1.061,101.614,0,0,4.572
1777495698905,-0.080,0.834,-0.590,18.374,-99.244,26.191,124.030,2.910,1.025,104.274,0,0,3.285
1777495698919,-0.139,0.856,-0.616,18.611,-100.595,23.557,124.490,4.158,1.064,104.980,0,0,3.910
1777495698932,-0.099,0.854,-0.626,18.626,-102.947,24.237,124.961,4.479,1.064,107.389,0,0,3.266
1777495698946,-0.131,0.846,-0.624,19.435,-104.420,24.374,125.346,5.183,1.059,108.974,0,0,3.266
1777495698959,-0.077,0.865,-0.597,19.473,-102.237,22.374,125.148,4.920,1.054,106.453,0,0,3.266
1777495698972,-0.182,0.868,-0.587,20.702,-97.076,24.481,124.859,6.248,1.064,102.234,0,0,3.252
1777495698986,-0.112,0.830,-0.589,22.084,-91.962,30.412,124.991,6.254,1.024,99.346,0,0,3.275
1777495699000,-0.043,0.843,-0.567,22.710,-81.534,34.084,124.697,5.219,1.017,91.243,0,0,3.253
1777495699013,-0.049,0.854,-0.542,25.336,-68.374,42.527,124.078,4.552,1.012,84.412,0,0,3.288
1777495699026,-0.017,0.814,-0.494,23.855,-55.015,54.061,123.306,3.600,0.953,80.736,0,0,3.266
1777495699040,0.002,0.760,-0.368,16.176,-38.122,61.634,121.295,2.592,0.844,74.254,4,4,4.001
1777495699054,0.089,0.941,-0.365,6.519,-25.366,53.168,118.572,0.533,1.014,59.269,4,4,3.394
1777495699068,0.166,0.789,-0.274,-0.351,-12.176,70.122,116.023,-2.649,0.851,71.172,4,4,3.659
1777495699081,0.199,0.823,-0.223,-4.427,-7.275,68.954,113.094,-5.481,0.876,69.478,4,4,3.268
1777495699094,0.171,0.540,-0.031,-33.084,-0.603,48.450,107.743,-8.737,0.567,58.672,4,4,3.264
1777495699108,0.003,0.884,0.044,-47.855,19.573,19.565,102.172,-6.436,0.885,55.281,4,4,3.945
1777495699122,0.337,1.223,-0.550,-29.359,3.748,28.550,105.425,-8.506,1.382,41.123,4,4,3.268
1777495699135,-0.024,0.734,-0.625,-46.122,1.679,15.618,112.177,-5.820,0.964,48.724,4,4,3.278
1777495699149,0.118,0.908,-0.518,-49.092,0.435,5.885,114.208,-5.993,1.052,49.445,4,4,3.262
1777495699162,0.101,1.278,-0.521,-50.244,-6.405,-6.122,113.656,-5.500,1.384,51.019,4,4,3.261
1777495699175,0.096,1.002,-0.478,-42.420,-8.115,-7.595,114.150,-5.345,1.114,43.852,1,1,3.968
1777495699189,-0.009,1.070,-0.492,-36.542,-9.389,-10.611,114.298,-3.789,1.178,39.193,1,1,3.265
1777495699203,-0.177,1.097,-0.463,-11.786,-2.061,7.221,113.920,-0.485,1.204,13.975,1,1,3.263
1777495699216,-0.045,1.013,-0.456,-2.183,-1.130,13.328,114.003,0.275,1.112,13.553,1,1,3.280
1777495699229,0.087,1.085,-0.489,-2.092,-2.687,12.863,114.069,-0.935,1.193,13.306,1,1,3.267
1777495699243,-0.011,0.984,-0.501,-0.160,-1.939,13.084,114.852,-0.531,1.104,13.228,1,1,3.934
1777495699257,0.033,0.954,-0.493,2.351,-1.985,11.290,115.521,-0.863,1.075,11.702,1,1,3.262
1777495699270,0.051,0.951,-0.483,3.183,-2.458,8.305,115.898,-1.369,1.068,9.228,1,1,3.267
1777495699283,0.048,0.938,-0.499,3.099,-2.962,5.878,116.473,-1.704,1.063,7.275,1,1,3.265
1777495699297,0.050,0.918,-0.496,2.489,-3.779,2.588,116.980,-1.989,1.045,5.212,1,1,3.270
1777495699310,0.043,0.921,-0.493,2.481,-4.260,0.221,117.295,-2.088,1.045,4.934,1,1,3.932
1777495699324,0.009,0.924,-0.499,2.137,-4.168,-0.015,117.583,-1.650,1.050,4.684,1,1,3.264
1777495699338,-0.003,0.914,-0.488,1.580,-3.786,0.527,117.716,-1.157,1.036,4.136,1,1,3.267
1777495699351,0.014,0.922,-0.499,1.137,-3.695,0.389,117.910,-1.046,1.048,3.885,1,1,3.726
1777495699365,0.020,0.917,-0.496,1.176,-4.206,-0.901,118.046,-1.053,1.043,4.459,1,1,3.282
1777495699378,0.073,0.920,-0.494,1.397,-5.336,-4.115,118.094,-1.853,1.047,6.881,1,1,3.932
1777495699392,0.059,0.922,-0.487,1.863,-7.198,-7.191,118.030,-2.232,1.044,10.344,1,1,3.278
1777495699406,0.032,0.931,-0.493,1.847,-7.855,-8.260,118.003,-2.103,1.054,11.547,1,1,3.363
1777495699422,0.030,0.922,-0.496,1.481,-8.069,-9.427,118.076,-1.982,1.047,12.497,1,1,5.705
1777495699435,0.008,0.933,-0.493,1.405,-8.580,-10.076,118.019,-1.558,1.056,13.309,1,1,3.277
1777495699448,-0.000,0.935,-0.498,1.252,-8.832,-10.305,118.020,-1.133,1.060,13.630,1,1,3.932
1777495699462,0.024,0.934,-0.498,1.351,-8.985,-10.611,118.030,-1.181,1.058,13.969,1,1,3.289
1777495699476,-0.003,0.934,-0.510,0.931,-9.183,-10.366,118.188,-0.819,1.064,13.880,1,1,3.333
1777495699490,-0.024,0.944,-0.505,0.969,-7.771,-9.763,118.184,-0.248,1.071,12.516,1,1,3.713
1777495699503,-0.049,0.947,-0.501,0.618,-6.008,-6.405,118.103,0.527,1.072,8.803,1,1,3.273
1777495699516,-0.056,0.947,-0.500,0.458,-3.817,-2.763,118.024,1.192,1.072,4.734,1,1,3.955
1777495699531,-0.063,0.949,-0.497,0.275,-1.198,1.603,117.923,1.787,1.073,2.020,1,1,3.271
1777495699545,-0.042,0.946,-0.492,0.382,0.519,4.618,117.802,1.921,1.067,4.663,1,1,3.255
1777495699561,-0.020,0.932,-0.501,-0.008,1.092,5.466,117.928,1.698,1.058,5.574,1,1,5.915
1777495699574,-0.017,0.917,-0.498,-0.015,1.145,4.679,118.091,1.493,1.043,4.817,1,1,3.278
1777495699589,0.009,0.916,-0.492,-0.336,0.466,2.595,118.129,0.952,1.040,2.658,1,1,5.278
1777495699603,-0.005,0.910,-0.496,-0.832,0.328,1.313,118.258,0.775,1.036,1.589,1,1,3.273
1777495699616,0.003,0.916,-0.490,-1.290,-0.557,0.382,118.235,0.525,1.039,1.456,1,1,3.268
1777495699630,-0.011,0.915,-0.496,-1.282,-0.847,-0.267,118.294,0.543,1.041,1.560,1,1,3.260
1777495699643,-0.024,0.926,-0.496,-1.649,-0.901,0.099,118.266,0.753,1.050,1.881,1,1,3.257
1777495699658,-0.022,0.942,-0.493,-1.160,-0.542,1.458,118.096,0.869,1.064,1.941,1,1,3.970
1777495699672,-0.005,0.927,-0.507,-0.847,-0.634,1.282,118.244,0.706,1.057,1.663,1,1,3.252
1777495699685,-0.020,0.931,-0.501,-1.198,-0.374,1.802,118.251,0.801,1.057,2.196,1,1,3.694
1777495699699,-0.009,0.933,-0.497,-1.137,-0.221,1.634,118.198,0.720,1.057,2.003,1,1,3.254
1777495699714,-0.013,0.926,-0.502,-1.336,-0.321,1.603,118.269,0.712,1.053,2.111,1,1,4.980
1777495699727,-0.013,0.933,-0.500,-1.634,-0.206,1.832,118.249,0.716,1.059,2.463,1,1,3.924
1777495699741,-0.010,0.937,-0.490,-1.290,0.092,1.817,118.069,0.669,1.057,2.230,1,1,3.256
1777495699755,-0.019,0.941,-0.495,-1.473,0.565,2.840,117.978,0.759,1.063,3.249,1,1,3.275
1777495699768,-0.019,0.939,-0.492,-1.458,1.275,4.145,117.897,0.835,1.060,4.575,1,1,3.265
1777495699782,-0.022,0.936,-0.491,-1.527,2.115,5.786,117.843,0.931,1.057,6.347,1,1,3.261
1777495699796,-0.021,0.936,-0.503,-1.427,3.153,7.237,117.948,0.982,1.063,8.022,1,1,3.889
1777495699810,0.005,0.924,-0.489,-1.443,3.092,6.733,117.933,0.637,1.045,7.548,1,1,3.249
1777495699823,-0.028,0.934,-0.501,-1.672,3.466,7.389,118.013,0.871,1.061,8.331,1,1,3.258
1777495699836,0.029,0.939,-0.491,-1.908,2.954,6.779,117.901,0.211,1.060,7.637,1,1,3.256
1777495699850,0.068,0.930,-0.497,-1.824,-0.092,1.229,117.954,-0.841,1.057,2.202,1,1,3.254
1777495699863,0.018,0.926,-0.502,-2.252,-2.130,-0.924,118.097,-0.872,1.054,3.234,1,1,3.881
1777495699877,0.002,0.925,-0.506,-2.725,-2.336,-1.809,118.254,-0.672,1.054,4.019,1,1,3.257
1777495699890,-0.017,0.926,-0.486,-2.595,-1.885,-0.718,118.102,-0.241,1.046,3.287,1,1,3.252
1777495699904,-0.046,0.924,-0.493,-2.351,0.008,2.710,118.096,0.505,1.049,3.588,1,1,3.244
1777495699918,-0.039,0.919,-0.499,-2.718,1.847,5.870,118.208,0.950,1.047,6.727,1,1,4.254
1777495699931,-0.010,0.909,-0.497,-3.626,2.840,6.527,118.325,0.850,1.036,7.988,4,4,3.909
1777495699945,0.031,0.926,-0.492,-3.763,1.840,4.458,118.235,0.159,1.049,6.117,4,4,3.258
1777495699959,0.056,0.936,-0.484,-2.672,0.359,0.511,117.996,-0.708,1.055,2.744,4,4,3.254
1777495699972,0.070,0.941,-0.471,-1.099,-1.679,-4.763,117.612,-1.546,1.055,5.169,4,4,3.256
1777495699985,0.030,0.928,-0.484,0.137,-2.863,-8.313,117.599,-1.568,1.047,8.793,4,4,3.256
1777495699999,0.004,0.940,-0.474,0.840,-3.206,-9.046,117.371,-1.202,1.053,9.634,4,4,3.875
1777495700013,-0.006,0.935,-0.481,1.863,-3.756,-8.687,117.327,-0.787,1.051,9.646,4,4,3.272
1777495700026,-0.021,0.933,-0.489,2.397,-3.336,-7.076,117.415,-0.273,1.053,8.182,4,4,3.250
1777495700039,-0.038,0.937,-0.490,2.634,-2.405,-4.695,117.467,0.351,1.058,5.896,4,4,3.253
1777495700053,-0.040,0.936,-0.484,2.573,-1.878,-2.145,117.435,0.848,1.054,3.840,4,4,3.264
1777495700066,-0.028,0.930,-0.496,2.290,-1.389,-0.382,117.605,1.024,1.055,2.706,4,4,3.874
1777495700080,-0.016,0.934,-0.490,2.130,-1.191,0.557,117.621,0.983,1.055,2.503,4,4,3.430
1777495700094,-0.005,0.928,-0.500,2.092,-1.489,0.336,117.799,0.793,1.054,2.589,4,4,3.269
1777495700108,-0.004,0.922,-0.501,1.412,-1.481,0.069,117.997,0.640,1.049,2.047,4,4,3.596
1777495700121,0.002,0.919,-0.496,0.763,-2.076,-0.969,118.093,0.435,1.044,2.415,4,4,3.268
1777495700134,0.009,0.916,-0.490,0.053,-2.496,-2.214,118.113,0.183,1.039,3.337,1,1,3.900
1777495700148,0.005,0.939,-0.500,-0.145,-2.542,-3.641,118.095,0.066,1.064,4.443,1,1,3.268
1777495700162,-0.007,0.933,-0.493,-0.382,-2.656,-3.634,118.031,0.152,1.055,4.517,1,1,3.249
1777495700175,-0.039,0.935,-0.494,-0.527,-1.893,-2.092,117.980,0.686,1.058,2.870,1,1,3.258
1777495700189,-0.046,0.937,-0.494,-0.366,-1.107,0.542,117.933,1.174,1.060,1.286,1,1,3.850
1777495700202,-0.040,0.938,-0.490,0.061,-0.313,2.969,117.835,1.443,1.058,2.987,1,1,3.875
1777495700216,-0.024,0.934,-0.498,0.282,0.107,4.611,117.904,1.403,1.059,4.621,1,1,3.263
1777495700230,-0.022,0.932,-0.490,0.298,0.344,5.412,117.851,1.343,1.053,5.431,1,1,3.245
1777495700243,-0.002,0.937,-0.485,0.275,0.183,5.153,117.718,1.009,1.054,5.163,1,1,3.266
1777495700256,0.007,0.933,-0.488,0.481,0.061,4.145,117.687,0.640,1.053,4.173,1,1,3.257
1777495700270,0.003,0.930,-0.490,0.702,-0.046,3.145,117.707,0.416,1.051,3.223,1,1,3.892
1777495700284,0.008,0.926,-0.489,0.969,-0.290,2.405,117.743,0.192,1.047,2.609,1,1,3.264
1777495700297,0.007,0.934,-0.485,1.229,-0.565,1.321,117.660,0.036,1.053,1.890,1,1,3.259
1777495700311,-0.007,0.936,-0.487,1.710,-0.794,0.901,117.614,0.127,1.055,2.089,1,1,3.263
1777495700324,0.014,0.932,-0.499,2.244,-0.992,0.321,117.761,-0.115,1.058,2.475,1,1,3.257
1777495700337,-0.012,0.925,-0.490,2.298,-1.069,0.389,117.800,0.090,1.047,2.564,1,1,3.898
1777495700351,-0.007,0.925,-0.488,2.237,-0.565,1.069,117.802,0.174,1.046,2.542,1,1,3.267
1777495700365,-0.018,0.937,-0.491,1.954,-0.542,1.710,117.767,0.384,1.058,2.653,1,1,3.252
1777495700378,-0.007,0.930,-0.493,2.069,-0.366,2.191,117.813,0.384,1.053,3.035,1,1,3.269
1777495700391,-0.014,0.930,-0.493,1.656,-0.115,2.603,117.848,0.489,1.053,3.088,1,1,3.254
1777495700405,-0.010,0.915,-0.493,1.305,0.076,3.351,117.972,0.509,1.039,3.597,1,1,3.894
1777495700419,-0.003,0.922,-0.499,0.748,0.290,3.977,118.091,0.422,1.049,4.057,1,1,3.262
1777495700435,-0.003,0.924,-0.497,0.809,0.366,3.817,118.143,0.359,1.050,3.919,1,1,4.012
1777495700450,0.006,0.925,-0.489,0.565,0.321,3.389,118.064,0.175,1.046,3.451,1,1,4.583
1777495700463,-0.011,0.914,-0.494,0.290,0.275,3.687,118.155,0.295,1.039,3.709,1,1,3.253
1777495700477,0.007,0.927,-0.498,0.191,0.519,3.588,118.182,0.115,1.053,3.630,4,4,4.580
1777495700491,0.004,0.930,-0.493,0.092,0.489,3.794,118.109,0.026,1.052,3.826,4,4,3.259
1777495700504,0.007,0.924,-0.493,-0.046,0.321,3.275,118.109,-0.089,1.047,3.291,4,4,3.248
1777495700518,-0.002,0.922,-0.490,-0.252,0.382,3.817,118.082,-0.040,1.044,3.844,4,4,3.295
1777495700532,0.006,0.928,-0.493,0.000,0.244,3.885,118.053,-0.115,1.051,3.893,4,4,3.247
1777495700547,0.007,0.930,-0.489,0.397,0.046,3.534,117.958,-0.185,1.051,3.557,1,1,5.337
1777495700561,-0.002,0.921,-0.498,0.267,-0.244,3.084,118.075,-0.102,1.047,3.105,1,1,3.259
1777495700574,0.003,0.925,-0.486,0.191,-0.313,2.786,117.979,-0.125,1.044,2.810,1,1,3.261
1777495700588,0.015,0.913,-0.500,0.053,-0.183,2.344,118.177,-0.316,1.041,2.351,1,1,3.271
1777495700601,0.022,0.922,-0.497,-0.153,-0.542,0.893,118.219,-0.563,1.048,1.056,1,1,3.255
1777495700616,0.020,0.920,-0.497,-0.595,-1.275,-0.130,118.263,-0.703,1.046,1.413,4,4,5.196
1777495700630,0.031,0.917,-0.495,-0.817,-1.947,-1.588,118.285,-0.974,1.043,2.641,4,4,3.266
1777495700644,0.023,0.922,-0.472,-0.710,-2.634,-3.305,117.970,-1.054,1.036,4.285,4,4,4.032
1777495700657,-0.005,0.932,-0.497,-0.458,-2.908,-3.672,117.995,-0.690,1.057,4.706,4,4,3.260
1777495700671,0.004,0.939,-0.489,-0.137,-3.313,-3.168,117.861,-0.561,1.059,4.586,4,4,3.247
1777495700685,-0.003,0.942,-0.495,0.214,-3.435,-3.107,117.818,-0.363,1.064,4.637,4,4,3.943
1777495700699,-0.008,0.955,-0.504,0.374,-3.076,-2.641,117.825,-0.146,1.080,4.072,4,4,3.252
1777495700713,-0.009,0.952,-0.500,0.359,-2.725,-1.962,117.797,0.027,1.076,3.377,4,4,4.095
1777495700727,-0.003,0.943,-0.506,0.450,-2.405,-1.046,117.903,0.062,1.070,2.661,4,4,3.261
1777495700740,-0.007,0.945,-0.500,0.649,-1.763,0.008,117.890,0.144,1.069,1.879,4,4,3.319
1777495700756,-0.014,0.939,-0.495,0.878,-1.145,1.351,117.871,0.308,1.061,1.977,1,1,3.899
1777495700770,-0.011,0.937,-0.488,0.939,-0.794,2.061,117.773,0.382,1.056,2.400,1,1,3.248
1777495700783,0.000,0.943,-0.503,1.153,-0.511,2.473,117.858,0.279,1.069,2.776,1,1,3.256
1777495700797,-0.007,0.935,-0.491,1.397,-0.031,2.939,117.825,0.300,1.056,3.254,1,1,3.252
1777495700810,-0.001,0.935,-0.496,1.962,0.115,2.916,117.854,0.233,1.059,3.516,1,1,3.245
1777495700823,0.015,0.935,-0.483,2.641,-0.267,2.053,117.708,-0.049,1.053,3.356,1,1,3.892
1777495700837,0.013,0.932,-0.498,3.298,-0.496,0.992,117.818,-0.225,1.057,3.479,1,1,3.249
1777495700851,0.014,0.938,-0.485,3.634,-1.099,-0.221,117.686,-0.365,1.056,3.803,1,1,3.265
1777495700864,0.011,0.936,-0.493,4.252,-1.405,-0.779,117.707,-0.423,1.058,4.545,1,1,3.262
1777495700877,-0.010,0.952,-0.503,4.786,-1.252,-0.763,117.747,-0.165,1.077,5.006,1,1,3.251
1777495700891,-0.020,0.933,-0.500,4.534,-1.244,0.198,117.870,0.176,1.059,4.706,4,4,3.888
1777495700905,-0.036,0.921,-0.509,4.733,-0.603,2.687,118.162,0.656,1.053,5.476,4,4,3.251
1777495700918,-0.022,0.919,-0.508,4.901,0.031,4.550,118.374,0.799,1.050,6.687,4,4,3.258
1777495700931,-0.008,0.934,-0.500,5.244,0.397,5.771,118.321,0.704,1.059,7.808,4,4,3.261
1777495700945,0.006,0.958,-0.498,6.565,0.412,5.695,118.086,0.427,1.080,8.700,4,4,3.394
1777495700958,0.012,0.927,-0.511,6.656,0.771,4.878,118.298,0.129,1.058,8.288,4,4,3.924
1777495700972,0.017,0.958,-0.505,7.763,0.267,4.046,118.159,-0.143,1.083,8.758,4,4,3.260
1777495700986,0.035,0.955,-0.521,8.534,-0.252,2.443,118.283,-0.597,1.089,8.881,4,4,3.265
1777495700999,0.024,0.964,-0.513,9.611,-0.573,1.527,118.209,-0.778,1.093,9.748,4,4,3.286
1777495701012,0.040,1.011,-0.505,12.153,-1.473,1.802,117.756,-1.113,1.130,12.373,4,4,3.255
1777495701026,0.071,0.971,-0.509,12.008,-2.710,-2.031,117.732,-1.810,1.099,12.476,4,4,3.890
1777495701040,0.014,0.949,-0.518,11.863,-2.824,0.405,117.974,-1.520,1.082,12.201,4,4,3.255
1777495701053,-0.078,1.083,-0.512,16.176,-0.977,0.672,117.255,-0.099,1.201,16.219,4,4,3.270
1777495701066,-0.016,0.935,-0.532,18.641,0.092,3.634,117.905,0.153,1.076,18.992,4,4,3.250
1777495701080,-0.031,0.947,-0.530,20.656,1.847,6.893,118.267,0.560,1.086,21.854,4,4,3.246
1777495701093,-0.037,0.980,-0.531,22.824,3.748,10.489,118.319,0.921,1.115,25.397,4,4,3.882
1777495701107,0.005,0.971,-0.524,25.595,4.473,12.588,118.331,0.604,1.103,28.872,4,4,3.330
1777495701121,0.021,0.975,-0.543,27.710,4.504,14.771,118.543,0.156,1.116,31.722,4,4,3.588
1777495701134,0.054,0.954,-0.574,29.985,4.282,14.748,119.219,-0.635,1.115,33.689,4,4,3.263
1777495701148,0.031,1.001,-0.547,33.832,3.992,14.534,119.062,-0.881,1.141,37.038,4,4,3.512
1777495701161,0.040,1.100,-0.577,37.687,3.282,12.550,118.695,-1.142,1.243,39.857,4,4,3.897
1777495701175,0.085,1.102,-0.562,44.794,0.405,3.458,118.244,-1.898,1.240,44.929,4,4,3.258
1777495701189,0.100,1.057,-0.576,51.443,-1.992,-1.687,118.344,-2.673,1.208,51.509,4,4,3.257
1777495701202,0.064,1.060,-0.537,57.580,-4.427,-3.282,117.941,-2.786,1.190,57.843,4,4,3.257
1777495701215,0.039,1.113,-0.569,64.695,-4.794,-5.863,117.712,-2.514,1.251,65.136,4,4,3.244
1777495701229,0.030,1.072,-0.591,71.855,-6.389,-6.489,118.018,-2.218,1.225,72.430,4,4,3.891
1777495701243,0.007,1.102,-0.596,80.229,-7.580,-6.931,118.121,-1.700,1.253,80.884,4,4,3.277
1777495701256,-0.012,1.060,-0.590,88.443,-7.611,-6.458,118.382,-1.091,1.213,89.004,4,4,3.252
1777495701269,-0.024,1.022,-0.616,94.481,-8.031,-6.580,119.106,-0.480,1.194,95.050,4,4,3.272
1777495701283,0.022,1.054,-0.628,102.206,-9.466,-5.870,119.559,-0.624,1.227,102.811,4,4,3.254
1777495701296,0.059,1.049,-0.625,109.954,-11.809,-7.634,119.889,-1.198,1.222,110.850,4,4,3.896
1777495701310,0.097,0.982,-0.642,118.534,-14.000,-12.382,120.779,-2.150,1.178,119.999,4,4,3.259
1777495701323,0.189,0.971,-0.646,124.649,-18.924,-19.893,121.553,-4.053,1.181,127.637,4,4,3.263
1777495701337,0.232,0.992,-0.698,132.046,-25.481,-27.466,122.522,-5.887,1.236,137.258,4,4,3.281
1777495701351,0.212,0.991,-0.697,141.298,-31.099,-34.244,123.223,-6.984,1.230,148.677,4,4,3.611
1777495701364,0.291,1.010,-0.705,150.916,-38.977,-43.153,123.680,-8.684,1.266,161.731,4,4,3.873
1777495701378,0.161,1.083,-0.709,163.695,-45.031,-46.969,123.557,-8.255,1.304,176.153,4,4,3.262
1777495701391,0.167,1.076,-0.732,177.924,-50.634,-53.901,123.738,-8.006,1.312,192.681,4,4,3.247
1777495701406,0.181,1.152,-0.792,194.511,-59.069,-57.557,123.950,-7.835,1.410,211.274,4,4,4.560
1777495701419,0.135,1.193,-0.903,212.389,-65.107,-57.145,124.804,-7.111,1.502,229.377,4,4,3.259
1777495701433,0.115,1.227,-0.932,230.664,-68.053,-58.618,125.456,-6.348,1.545,247.534,4,4,3.917
1777495701449,0.043,1.226,-0.915,247.466,-70.481,-54.725,125.804,-5.068,1.530,263.062,4,4,5.472
1777495701462,-0.066,1.279,-1.030,250.130,-68.595,-53.939,126.622,-3.080,1.643,264.914,4,4,3.269
1777495701477,-0.126,1.158,-1.062,250.130,-57.939,-29.870,128.220,-1.005,1.576,258.484,4,4,4.726
1777495701491,0.033,0.904,-1.012,250.130,-61.344,6.206,130.927,-1.109,1.357,257.617,4,4,3.288
1777495701504,0.063,0.863,-0.890,250.130,-67.626,24.580,132.262,-1.592,1.241,260.274,4,4,4.006
1777495701518,-0.038,0.985,-0.743,250.130,-74.710,31.939,130.849,-0.682,1.235,262.995,4,4,3.265
1777495701531,0.036,0.400,-0.335,246.695,-82.313,13.214,130.622,-1.575,0.523,260.400,4,4,3.263
1777495701546,-0.114,-0.546,0.438,176.893,-75.756,-5.344,81.487,1.349,0.709,192.506,4,4,4.666
1777495701560,-0.425,-0.579,-0.778,58.244,-43.611,23.313,20.747,7.383,1.059,76.405,4,4,3.257
1777495701573,-0.377,-0.521,-0.096,-51.634,-9.908,30.641,-12.006,14.958,0.650,60.853,4,4,3.966
1777495701587,-0.318,0.198,-0.255,-129.198,16.015,18.321,29.668,22.971,0.453,131.470,4,4,3.266
1777495701600,-0.273,0.383,-0.196,-160.473,37.252,17.183,53.278,25.507,0.510,165.634,4,4,3.257
1777495701615,-0.064,0.394,-0.175,-180.893,45.954,20.366,69.666,20.886,0.436,187.747,4,4,4.205
1777495701628,-0.031,0.406,-0.167,-193.641,46.893,30.237,81.222,16.344,0.440,201.520,4,4,3.261
1777495701642,0.033,0.327,-0.120,-212.947,43.000,42.511,89.050,10.459,0.350,221.365,4,4,3.889
1777495701656,0.060,0.382,-0.115,-236.748,36.458,50.458,93.825,5.328,0.403,244.796,4,4,3.288
1777495701669,0.029,0.519,-0.157,-250.137,31.511,59.206,97.342,3.073,0.543,258.973,4,4,3.250
1777495701683,-0.003,0.604,-0.197,-250.137,27.550,68.519,100.245,2.309,0.635,260.811,4,4,3.995
1777495701696,-0.090,0.779,-0.256,-250.137,26.756,75.122,102.396,3.382,0.825,262.541,4,4,3.296
1777495701710,-0.166,0.931,-0.357,-250.137,29.908,73.214,104.715,5.026,1.011,262.342,5,5,3.883
1777495701725,-0.185,1.019,-0.464,-250.137,33.374,59.420,107.356,6.207,1.135,259.255,5,5,3.275
1777495701738,-0.158,1.008,-0.549,-247.649,34.916,47.740,110.389,6.651,1.159,254.614,5,5,3.258
1777495701752,-0.157,1.004,-0.631,-244.588,34.748,45.511,113.563,6.888,1.196,251.201,5,5,3.277
1777495701765,-0.166,1.054,-0.668,-243.198,36.229,41.412,115.946,7.077,1.259,249.345,5,5,3.260
1777495701778,-0.156,1.078,-0.707,-243.275,40.924,31.969,117.924,7.023,1.299,248.756,5,5,3.894
1777495701794,-0.123,1.128,-0.722,-242.962,49.038,23.679,119.190,6.544,1.345,248.990,5,5,4.604
1777495701807,-0.074,1.222,-0.740,-238.901,58.122,19.344,119.729,5.574,1.431,246.629,5,5,3.255
1777495701821,-0.010,1.303,-0.761,-230.115,66.550,14.130,119.879,4.174,1.509,239.961,5,5,3.256
1777495701834,0.034,1.320,-0.808,-220.115,73.893,11.145,120.304,2.707,1.548,232.454,5,5,3.267
1777495701847,0.067,1.339,-0.828,-211.634,80.771,16.504,120.687,1.316,1.575,227.124,5,5,3.891
1777495701861,0.057,1.327,-0.864,-204.901,87.786,31.198,121.328,0.407,1.585,225.087,5,5,3.447
1777495701875,0.060,1.210,-0.845,-209.740,93.053,45.656,122.300,-0.333,1.477,233.954,5,5,3.257
1777495701888,0.082,1.241,-0.827,-218.985,92.237,50.405,122.672,-1.093,1.494,242.904,5,5,3.253
1777495701902,0.070,1.379,-0.838,-221.008,86.496,49.786,122.297,-1.472,1.615,242.497,5,5,3.299
1777495701915,0.062,1.402,-0.897,-216.687,75.534,47.458,122.383,-1.655,1.666,234.331,5,5,3.883
1777495701929,0.079,1.378,-0.966,-212.435,60.000,41.901,123.099,-1.933,1.685,224.687,5,5,3.255
1777495701942,0.092,1.338,-1.076,-205.786,43.725,33.511,124.644,-2.235,1.719,213.033,5,5,3.265
1777495701956,0.111,1.294,-1.188,-192.458,29.519,30.397,126.777,-2.604,1.760,197.067,5,5,3.257
1777495701970,0.121,1.190,-1.354,-171.015,14.718,35.947,129.992,-2.939,1.806,175.371,5,5,3.406
1777495701983,0.071,1.074,-1.440,-144.130,4.000,46.336,133.585,-2.759,1.798,151.448,5,5,3.881
1777495701997,-0.045,1.015,-1.504,-105.901,-4.191,61.656,136.934,-1.633,1.815,122.613,5,5,3.257
1777495702011,-0.247,0.943,-1.543,-65.649,-9.687,69.496,140.078,0.906,1.826,96.090,5,5,3.264
1777495702024,-0.441,0.846,-1.524,-27.328,-11.794,52.015,143.020,4.497,1.798,59.929,5,5,3.251
1777495702038,-0.494,0.791,-1.496,6.069,-13.221,8.382,145.481,7.680,1.763,16.789,5,5,3.309
1777495702051,-0.364,0.741,-1.445,33.519,-18.557,-34.771,147.469,9.013,1.664,51.739,1,1,3.905
1777495702065,-0.159,0.820,-1.348,47.313,-15.511,-86.916,147.796,8.135,1.586,100.167,1,1,3.261
1777495702078,1.979,2.765,1.430,174.275,-102.069,-79.618,124.791,-2.830,3.689,217.092,1,1,3.271
1777495702092,-0.165,1.559,0.390,193.076,-96.870,-69.931,111.596,-0.481,1.615,227.052,1,1,3.262
1777495702109,-0.192,1.052,-0.193,203.519,-55.466,-66.641,108.571,2.396,1.087,221.218,1,1,7.341
1777495702123,-0.096,0.953,-0.284,195.916,-33.740,-60.992,108.040,3.241,0.999,207.946,1,1,3.949
1777495702137,-0.015,0.865,-0.444,178.748,-25.695,-59.000,110.503,2.611,0.973,189.979,1,1,3.263
1777495702150,-0.150,0.880,-0.448,157.176,-18.405,-47.641,112.249,4.246,0.998,165.265,1,1,3.272
1777495702163,-0.131,0.935,-0.499,141.023,-19.573,-35.366,113.818,4.997,1.068,146.701,1,1,3.259
1777495702177,-0.202,0.882,-0.534,122.458,-15.122,-20.618,115.817,6.643,1.051,125.099,1,1,3.289
1777495702190,-0.219,0.754,-0.759,98.405,-4.244,-5.664,121.049,7.966,1.092,98.659,1,1,3.905
1777495702204,-0.103,0.818,-0.606,69.824,1.649,1.191,122.534,7.368,1.023,69.854,1,1,3.261
1777495702218,-0.070,0.920,-0.500,57.519,7.221,7.351,121.452,6.408,1.050,58.435,1,1,3.865
1777495702231,-0.044,0.959,-0.452,53.786,6.267,9.206,119.775,5.318,1.061,54.927,1,1,3.279
1777495702245,0.124,0.638,-0.607,30.817,2.137,6.344,123.506,1.712,0.889,31.535,1,1,3.248
1777495702258,-0.008,0.860,-0.552,21.664,1.328,7.931,123.289,1.368,1.022,23.109,1,1,3.957
1777495702272,0.041,0.907,-0.477,17.122,-2.282,3.962,121.791,0.379,1.026,17.722,1,1,3.257
1777495702289,0.051,0.908,-0.488,13.557,-4.252,0.420,120.835,-0.489,1.032,14.215,1,1,6.823
1777495702303,-0.001,0.991,-0.467,13.992,-5.145,-2.053,119.316,-0.346,1.096,15.049,1,1,3.255
1777495702316,-0.006,0.975,-0.496,13.832,-5.939,-3.191,118.682,-0.173,1.094,15.388,1,1,3.263
1777495702329,-0.012,0.982,-0.479,14.496,-4.397,-3.420,117.954,0.050,1.093,15.530,1,1,3.998
1777495702343,-0.028,0.946,-0.492,13.580,-4.565,-1.015,117.828,0.447,1.067,14.363,1,1,3.269
1777495702357,-0.029,0.939,-0.496,12.458,-2.641,2.099,117.838,0.753,1.062,12.907,1,1,3.250
1777495702371,0.028,0.948,-0.501,12.489,-0.893,3.168,117.843,0.152,1.073,12.915,1,1,3.874
1777495702384,0.033,0.928,-0.514,11.260,-2.191,1.298,118.151,-0.370,1.062,11.544,1,1,3.246
1777495702397,0.038,0.908,-0.498,8.595,-3.031,-0.924,118.311,-0.839,1.037,9.161,1,1,3.908
1777495702411,0.020,0.936,-0.503,7.298,-4.198,-2.176,118.301,-0.904,1.062,8.696,1,1,3.266
1777495702425,-0.001,0.936,-0.509,7.000,-4.954,-2.267,118.359,-0.638,1.065,8.870,1,1,3.254
1777495702438,0.022,0.924,-0.500,7.191,-5.153,-2.176,118.378,-0.786,1.051,9.110,1,1,3.268
1777495702452,-0.001,0.935,-0.485,7.008,-5.023,-1.366,118.114,-0.559,1.054,8.729,1,1,3.263
1777495702465,-0.020,0.936,-0.482,7.046,-3.702,0.359,117.888,-0.114,1.053,7.967,1,1,3.890
1777495702482,-0.005,0.928,-0.506,6.374,-2.382,-1.053,118.084,-0.004,1.057,6.886,1,1,3.284
1777495702496,0.033,0.955,-0.511,6.084,-2.382,-2.389,118.103,-0.478,1.083,6.957,1,1,3.275
1777495702510,0.097,0.966,-0.502,9.519,-3.366,-5.603,117.936,-1.723,1.093,11.547,1,1,3.274
1777495702524,0.018,0.921,-0.530,10.122,-4.710,-9.718,118.474,-1.521,1.063,14.801,1,1,3.284
1777495702539,0.018,0.926,-0.519,12.802,-6.840,-16.740,118.690,-1.370,1.061,22.156,1,1,5.959
1777495702553,0.001,0.914,-0.513,14.076,-7.947,-16.450,118.859,-1.021,1.049,23.063,1,1,3.281
1777495702566,-0.018,0.914,-0.522,15.122,-7.817,-13.595,119.091,-0.480,1.053,21.786,1,1,3.246
1777495702580,-0.069,0.978,-0.522,17.977,-6.115,-9.649,118.815,0.613,1.111,21.299,1,1,3.301
1777495702593,-0.028,0.896,-0.531,17.992,-4.855,-6.878,119.311,0.858,1.042,19.865,1,1,3.264
1777495702606,-0.093,0.919,-0.530,17.947,-3.145,-0.863,119.493,1.976,1.065,18.240,1,1,3.896
1777495702620,-0.090,0.921,-0.533,18.313,-0.679,4.901,119.640,2.749,1.068,18.970,1,1,3.266
1777495702634,-0.101,0.932,-0.546,19.443,1.458,9.191,119.840,3.448,1.085,21.555,1,1,3.311
1777495702647,-0.048,0.951,-0.541,21.427,2.947,11.504,119.775,3.200,1.095,24.498,1,1,3.258
1777495702661,-0.028,0.938,-0.547,23.435,3.290,12.511,119.904,2.739,1.086,26.769,1,1,3.782
1777495702675,-0.027,0.938,-0.546,24.901,4.084,13.038,119.988,2.385,1.086,28.403,4,4,3.877
1777495702690,-0.056,0.923,-0.558,25.267,5.496,14.206,120.304,2.539,1.080,29.503,4,4,3.270
1777495702704,-0.037,0.926,-0.570,26.626,6.931,13.687,120.658,2.375,1.088,30.730,4,4,3.248
1777495702717,-0.026,0.990,-0.571,29.053,6.611,12.267,120.465,2.080,1.143,32.222,4,4,3.246
1777495702730,0.013,1.038,-0.583,31.695,5.855,9.130,120.150,1.344,1.190,33.499,4,4,3.271
1777495702744,0.062,1.045,-0.575,37.252,4.183,4.427,119.794,0.183,1.194,37.747,4,4,3.880
1777495702758,0.075,1.066,-0.599,43.695,2.496,-0.534,119.667,-0.811,1.225,43.769,4,4,3.263
1777495702771,0.051,1.079,-0.589,50.824,0.748,-2.679,119.388,-1.237,1.230,50.901,4,4,3.261
1777495702784,0.052,1.093,-0.588,58.321,-0.863,-4.504,119.093,-1.545,1.242,58.501,4,4,3.258
1777495702798,-0.070,1.138,-0.636,65.122,1.641,-3.061,119.123,-0.300,1.306,65.215,4,4,3.276
1777495702811,0.008,1.189,-0.619,75.718,-0.305,-2.885,118.680,-0.306,1.341,75.773,4,4,3.870
1777495702825,-0.009,1.194,-0.601,87.443,-1.679,-1.115,118.148,-0.122,1.336,87.466,4,4,3.269
1777495702838,-0.091,1.155,-0.591,98.679,-2.435,0.603,117.860,0.990,1.300,98.711,4,4,3.286
1777495702852,-0.052,1.157,-0.621,109.916,-4.122,2.160,117.955,1.332,1.314,110.015,4,4,3.247
1777495702865,-0.031,1.171,-0.589,122.168,-5.527,4.084,117.620,1.339,1.311,122.361,4,4,3.259
1777495702878,0.021,1.197,-0.594,137.198,-7.718,2.023,117.287,0.728,1.336,137.430,4,4,3.926
1777495702892,0.024,1.207,-0.622,154.504,-8.802,-1.908,117.278,0.253,1.358,154.766,4,4,3.250
1777495702906,0.070,1.168,-0.632,171.359,-11.817,-6.939,117.581,-0.634,1.330,171.906,4,4,3.263
1777495702919,0.128,1.256,-0.609,190.504,-15.908,-14.015,117.119,-1.883,1.402,191.680,4,4,3.253
1777495702932,0.184,1.167,-0.620,209.947,-21.756,-21.389,117.345,-3.513,1.334,212.152,4,4,3.241
1777495702946,0.285,1.306,-0.655,230.786,-27.435,-33.321,117.151,-5.543,1.489,234.788,4,4,3.926
1777495702960,0.312,1.371,-0.737,250.130,-34.588,-44.748,117.453,-7.106,1.587,256.444,4,4,3.266
1777495702973,0.260,1.454,-0.762,250.130,-40.000,-63.611,117.504,-7.622,1.662,261.173,4,4,3.253
1777495702987,0.171,1.496,-0.902,250.130,-43.649,-68.573,118.475,-7.074,1.756,263.006,4,4,3.425
1777495703000,0.165,1.414,-1.007,250.130,-45.519,-57.519,120.360,-6.630,1.744,260.663,4,4,3.393
1777495703014,0.095,1.351,-1.042,250.130,-49.198,-57.282,122.330,-5.704,1.709,261.279,4,4,3.927
1777495703028,-0.043,1.218,-1.060,250.130,-40.290,-28.420,124.684,-3.746,1.615,254.943,4,4,3.283
1777495703041,0.235,1.233,-0.926,250.130,-40.458,26.252,125.281,-5.071,1.560,254.737,4,4,3.281
1777495703054,0.193,1.161,-0.747,250.130,-46.649,83.473,124.597,-5.848,1.393,267.785,4,4,3.260
1777495703068,0.122,1.101,-0.553,250.130,-60.450,133.649,122.459,-5.799,1.239,289.968,4,4,3.260
1777495703081,0.485,0.010,0.177,250.130,-83.099,122.397,90.274,-23.134,0.516,290.605,4,4,3.885
1777495703095,-0.028,-1.214,-0.014,167.573,-94.885,88.725,41.391,-16.529,1.214,212.028,4,4,3.272
1777495703108,-0.250,-0.512,-0.400,12.969,-73.656,61.603,-4.357,-6.369,0.696,96.894,4,4,3.259
1777495703122,-0.209,-0.366,0.027,-112.389,-42.229,41.252,-26.362,3.372,0.423,126.950,4,4,3.246
1777495703135,-0.136,0.283,-0.146,-186.168,-24.351,25.092,12.420,8.729,0.346,189.423,4,4,3.323
1777495703149,0.018,0.387,-0.054,-231.366,-15.443,22.565,35.523,5.675,0.391,232.977,4,4,4.023
1777495703163,0.133,0.469,0.025,-250.137,-18.992,47.985,49.428,-0.128,0.489,255.405,4,4,3.285
1777495703176,0.042,0.693,0.044,-250.137,-19.260,99.053,59.409,-1.033,0.696,269.724,4,4,3.272
1777495703190,0.155,0.719,0.050,-250.137,-26.244,136.137,66.603,-4.034,0.737,285.991,4,4,3.260
1777495703203,0.040,0.732,0.009,-250.137,-32.962,160.473,72.728,-3.789,0.734,299.010,4,4,3.254
1777495703216,-0.100,0.740,-0.020,-250.137,-35.817,167.695,77.802,-0.694,0.747,303.271,4,4,3.892
1777495703230,-0.272,0.809,-0.043,-250.137,-32.130,164.802,81.919,4.517,0.854,301.265,4,4,3.364
1777495703244,-0.389,0.939,-0.113,-250.137,-23.573,161.740,85.957,9.338,1.023,298.805,4,4,3.275
1777495703257,-0.511,1.094,-0.256,-250.137,-9.427,161.061,90.608,13.419,1.234,297.655,4,4,3.256
1777495703270,-0.592,1.281,-0.375,-250.137,8.939,150.916,94.853,16.259,1.460,292.274,4,4,3.245
1777495703284,-0.657,1.319,-0.574,-250.137,25.473,140.221,99.891,18.495,1.581,287.888,5,5,3.928
1777495703298,-0.718,1.318,-0.714,-250.137,41.458,120.664,104.904,20.411,1.662,280.798,5,5,3.258
1777495703311,-0.694,1.312,-0.718,-250.137,57.450,78.359,108.628,21.617,1.649,268.346,5,5,3.279
1777495703325,-0.585,1.271,-0.729,-250.137,72.183,45.305,111.649,21.660,1.578,264.257,5,5,3.292
1777495703338,-0.375,1.253,-0.727,-250.137,81.748,36.435,113.936,19.731,1.496,265.667,5,5,3.253
1777495703351,-0.184,1.332,-0.771,-250.137,84.092,37.267,115.587,16.239,1.550,266.513,5,5,3.883
1777495703365,-0.091,1.363,-0.922,-250.137,80.557,47.649,117.881,12.707,1.648,267.074,5,5,3.269
1777495703379,-0.076,1.370,-1.071,-249.809,74.725,57.756,120.618,9.954,1.740,267.066,5,5,3.246
1777495703392,-0.184,1.369,-1.209,-237.244,72.817,59.198,123.544,8.816,1.835,255.131,5,5,3.262
1777495703405,-0.292,1.320,-1.248,-225.679,76.969,51.489,126.205,8.904,1.840,243.940,5,5,3.261
1777495703419,-0.368,1.289,-1.263,-217.244,84.275,49.565,128.427,9.613,1.842,238.231,1,1,3.878
1777495703433,-0.409,1.272,-1.266,-206.626,89.267,54.412,130.161,10.486,1.841,231.568,1,1,3.339
1777495703446,-0.382,1.288,-1.351,-190.389,87.160,43.298,131.836,10.775,1.905,213.822,1,1,3.252
1777495703460,-0.376,1.196,-1.460,-172.298,82.847,13.832,134.226,10.912,1.924,191.681,1,1,3.255
1777495703473,-0.311,1.037,-1.576,-155.336,78.550,-20.695,137.583,10.495,1.912,175.293,1,1,3.306
1777495703486,-0.199,1.056,-1.691,-129.450,74.603,-43.015,140.399,9.204,2.003,155.478,1,1,3.904
1777495703505,-0.117,1.024,-1.756,-72.885,74.427,-41.183,142.926,7.605,2.036,112.017,1,1,6.745
1777495703518,-0.078,0.861,-1.759,-30.031,74.481,-24.313,145.900,6.165,1.960,83.907,1,1,3.284
1777495703531,-0.048,0.716,-1.761,2.260,67.221,-20.786,149.135,4.893,1.902,70.398,1,1,3.257
1777495703545,0.075,2.359,-1.026,219.137,38.809,81.290,139.507,3.119,2.574,236.929,1,1,3.574
1777495703559,1.053,0.506,-0.537,200.924,-37.916,-15.947,138.742,-12.579,1.286,205.091,1,1,3.916
1777495703575,0.272,1.296,0.188,220.244,-52.008,-53.084,123.348,-12.353,1.338,232.444,1,1,5.682
1777495703588,0.082,0.818,-0.357,229.359,-43.313,-63.641,120.705,-10.438,0.897,241.933,1,1,3.285
1777495703602,-0.362,0.795,-0.492,207.931,-14.160,-60.397,120.991,-1.899,1.003,216.988,1,1,3.248
1777495703615,-0.097,0.762,-0.634,178.489,-5.099,-50.282,123.364,0.130,0.996,185.506,1,1,3.254
1777495703629,-0.185,0.818,-0.665,149.817,-10.786,-33.893,124.921,2.784,1.070,153.981,1,1,3.914
1777495703643,-0.180,0.532,-0.865,112.374,-12.130,-12.069,131.259,4.744,1.031,113.669,1,1,3.442
1777495703658,-0.323,0.849,-0.621,78.099,4.198,6.817,129.882,8.081,1.100,78.509,1,1,3.283
1777495703672,-0.083,0.913,-0.503,61.916,13.649,19.008,126.901,7.128,1.046,66.190,1,1,3.591
1777495703685,-0.067,0.913,-0.508,54.756,14.176,25.321,124.791,6.189,1.046,61.970,1,1,3.363
1777495703703,0.329,0.629,-0.640,24.282,8.786,15.374,127.683,-0.925,0.956,30.053,1,1,7.988
1777495703717,0.133,0.876,-0.501,17.260,5.252,12.710,125.549,-2.708,1.018,22.068,1,1,3.252
1777495703730,0.001,0.884,-0.510,12.237,4.038,10.412,124.045,-1.999,1.021,16.567,1,1,3.251
1777495703744,0.084,0.902,-0.506,8.656,2.160,3.107,122.756,-2.709,1.038,9.447,1,1,3.271
1777495703757,0.044,0.922,-0.516,4.351,-0.321,-1.771,121.812,-2.617,1.057,4.709,1,1,3.266
1777495703770,0.034,0.965,-0.471,3.389,-2.794,-4.130,120.243,-2.399,1.075,6.029,1,1,3.986
1777495703784,0.020,0.964,-0.481,3.366,-3.496,-7.168,119.239,-2.038,1.078,8.657,1,1,3.259
1777495703798,0.020,0.995,-0.484,5.092,-3.084,-7.168,118.350,-1.771,1.107,9.317,1,1,3.253
1777495703811,-0.035,0.972,-0.497,5.939,-1.931,-4.733,118.004,-0.798,1.092,7.836,1,1,3.255
1777495703825,-0.069,0.949,-0.501,5.756,0.397,0.496,117.952,0.416,1.075,5.791,1,1,3.420
1777495703838,-0.033,0.953,-0.503,6.145,2.366,4.771,117.926,0.781,1.078,8.132,1,1,3.902
1777495703853,-0.019,0.947,-0.501,6.137,3.534,6.718,117.921,0.848,1.072,9.761,1,1,4.344
1777495703867,0.002,0.930,-0.501,5.420,3.687,7.496,118.033,0.594,1.057,9.958,1,1,3.250
1777495703880,0.016,0.954,-0.501,5.588,3.870,7.046,117.949,0.206,1.078,9.790,1,1,3.256
1777495703893,0.034,0.932,-0.497,5.351,3.626,5.847,117.981,-0.343,1.057,8.716,1,1,3.281
1777495703907,0.032,0.923,-0.511,4.450,3.084,4.557,118.252,-0.716,1.056,7.077,1,1,3.892
1777495703921,0.014,0.939,-0.503,4.069,2.771,4.160,118.226,-0.728,1.065,6.445,1,1,3.308
1777495703935,0.007,0.924,-0.496,4.046,2.504,4.031,118.227,-0.629,1.049,6.236,1,1,3.266
1777495703948,0.004,0.934,-0.503,4.084,2.595,4.252,118.247,-0.519,1.061,6.442,1,1,3.261
1777495703963,0.020,0.929,-0.504,4.206,2.847,4.130,118.311,-0.676,1.057,6.546,1,1,4.828
1777495703977,0.038,0.936,-0.498,4.519,2.076,2.351,118.228,-1.046,1.061,5.501,1,1,3.904
1777495703991,0.061,0.908,-0.508,3.374,0.534,-1.664,118.489,-1.674,1.042,3.800,1,1,3.265
1777495704005,0.075,0.917,-0.513,2.779,-1.427,-5.947,118.692,-2.327,1.053,6.717,1,1,4.418
1777495704019,0.047,0.908,-0.503,1.809,-3.191,-9.351,118.763,-2.393,1.039,10.045,1,1,3.288
1777495704034,0.002,0.905,-0.507,1.344,-3.420,-8.473,118.892,-1.772,1.037,9.236,1,1,3.288
1777495704048,-0.012,0.903,-0.504,1.931,-3.191,-6.405,118.959,-1.114,1.034,7.411,1,1,3.910
1777495704062,-0.016,0.917,-0.513,2.374,-2.885,-4.931,119.034,-0.580,1.050,6.187,1,1,3.260
1777495704077,-0.026,0.918,-0.521,2.382,-1.954,-2.511,119.176,-0.040,1.056,3.975,1,1,3.287
1777495704090,0.009,0.910,-0.510,2.237,-2.084,-1.939,119.201,-0.167,1.044,3.620,1,1,3.261
1777495704104,0.037,0.932,-0.503,2.687,-2.992,-2.908,118.968,-0.667,1.060,4.963,1,1,3.260
1777495704117,0.046,0.923,-0.505,3.221,-4.511,-4.595,118.896,-1.162,1.053,7.201,1,1,3.945
1777495704131,0.021,0.913,-0.520,3.237,-6.267,-5.405,119.106,-1.150,1.051,8.886,1,1,3.261
1777495704145,0.014,0.933,-0.500,3.786,-7.710,-6.412,118.867,-1.050,1.059,10.719,1,1,4.009
1777495704159,0.023,0.951,-0.501,5.244,-8.008,-6.748,118.572,-1.097,1.075,11.712,1,1,3.273
1777495704172,-0.001,0.941,-0.515,6.718,-7.847,-5.916,118.597,-0.790,1.073,11.904,1,1,3.257
1777495704186,-0.020,0.931,-0.517,7.420,-7.870,-4.427,118.723,-0.286,1.065,11.687,1,1,3.899
1777495704200,0.020,0.949,-0.525,8.519,-7.985,-6.000,118.784,-0.491,1.085,13.127,1,1,3.282
1777495704213,0.009,0.951,-0.510,11.160,-8.191,-6.641,118.632,-0.484,1.080,15.354,1,1,3.255
1777495704226,0.026,0.958,-0.521,12.191,-8.656,-7.183,118.610,-0.717,1.091,16.588,1,1,3.267
1777495704240,0.041,0.978,-0.527,14.458,-9.565,-5.595,118.526,-1.095,1.112,18.216,1,1,3.256
1777495704253,-0.034,0.994,-0.526,20.084,-8.824,-7.809,118.346,-0.325,1.125,23.286,4,4,3.883
1777495704268,-0.128,1.081,-0.537,24.832,-5.664,-1.183,117.830,1.397,1.214,25.497,4,4,4.123
1777495704281,-0.107,1.124,-0.543,33.947,-0.489,4.718,117.273,2.348,1.253,34.276,4,4,3.261
1777495704295,-0.051,1.094,-0.554,40.382,2.214,10.519,117.160,2.352,1.227,41.788,4,4,3.255
1777495704308,-0.075,1.109,-0.563,46.870,4.458,16.336,117.099,2.648,1.246,49.835,4,4,3.348
1777495704322,-0.037,1.131,-0.565,55.282,7.595,23.542,116.949,2.390,1.265,60.565,4,4,3.880
1777495704336,-0.031,1.230,-0.595,64.496,8.588,23.817,116.644,2.095,1.367,69.287,4,4,3.266
1777495704350,-0.057,1.505,-0.583,85.000,8.595,9.779,115.166,2.077,1.615,85.991,4,4,4.722
1777495704364,-0.035,1.295,-0.580,100.595,11.015,13.137,114.886,1.902,1.420,102.046,4,4,3.258
1777495704377,-0.058,1.405,-0.581,117.092,11.840,13.740,114.231,1.977,1.521,118.488,4,4,3.281
1777495704391,-0.005,1.455,-0.553,136.786,7.496,15.168,113.303,1.491,1.557,137.829,4,4,3.939
1777495704405,0.107,1.491,-0.525,160.656,0.641,13.527,112.251,0.046,1.585,161.226,4,4,3.255
1777495704418,0.193,1.613,-0.495,186.962,-6.267,8.466,110.845,-1.728,1.698,187.258,4,4,3.253
1777495704432,0.211,1.724,-0.505,219.863,-12.687,0.130,109.623,-3.073,1.809,220.228,4,4,3.267
1777495704445,0.342,1.782,-0.441,250.130,-23.924,-13.550,108.077,-5.092,1.867,251.636,4,4,3.256
1777495704458,0.322,1.973,-0.544,250.130,-33.969,-23.710,107.355,-6.132,2.072,253.537,4,4,3.899
1777495704472,0.284,2.130,-0.612,250.130,-39.534,-39.359,106.995,-6.447,2.234,256.275,4,4,3.257
1777495704486,0.139,1.998,-0.756,250.130,-41.313,-54.794,108.006,-5.712,2.141,259.372,4,4,3.257
1777495704499,0.160,1.656,-0.805,250.130,-38.252,-28.779,110.143,-5.511,1.849,254.669,4,4,3.347
1777495704513,0.131,1.605,-0.899,250.130,-40.473,-11.992,112.605,-5.125,1.845,253.667,4,4,3.264
1777495704526,0.209,1.605,-0.625,250.130,-38.145,16.534,112.248,-5.612,1.735,253.561,4,4,3.891
1777495704541,0.181,1.312,0.049,250.130,-43.405,72.130,105.662,-6.214,1.326,263.916,4,4,4.151
1777495704554,0.547,-0.099,0.295,250.130,-68.519,83.206,72.087,-20.838,0.629,272.366,4,4,3.254
1777495704568,0.148,0.175,-0.598,250.130,-85.985,61.473,96.841,-18.810,0.641,271.546,4,4,3.262
1777495704583,-0.244,-0.073,-0.259,219.748,-76.008,3.550,26.285,-2.337,0.363,232.549,4,4,4.413
1777495704596,-0.426,-0.258,-0.115,122.061,-45.824,-45.435,-11.636,13.544,0.511,138.069,4,4,3.842
1777495704610,-0.386,-0.166,-0.109,44.855,-12.489,-85.885,-41.829,26.858,0.434,97.695,4,4,3.267
1777495704624,-0.245,-0.073,-0.034,-17.336,12.374,-101.412,-61.575,39.027,0.257,103.625,4,4,3.266
1777495704637,-0.081,-0.099,-0.007,-72.969,26.756,-96.198,-70.320,39.030,0.128,123.671,4,4,3.260
1777495704650,0.015,-0.125,-0.013,-125.221,33.221,-75.763,-77.207,26.656,0.126,150.080,4,4,3.299
1777495704664,0.065,-0.150,-0.003,-179.466,33.511,-47.214,-80.965,13.137,0.164,188.574,4,4,3.889
1777495704678,0.114,-0.155,0.014,-240.191,27.672,-28.389,-81.996,-0.181,0.193,243.441,4,4,3.250
1777495704691,0.156,-0.050,0.011,-250.137,17.237,-22.985,-80.798,-19.541,0.164,251.782,4,4,3.426
1777495704708,0.191,0.257,-0.006,-250.137,0.374,-22.634,-34.288,-24.150,0.321,251.160,4,4,5.142
1777495704721,0.166,0.628,-0.105,-250.137,-10.977,-16.489,1.860,-21.570,0.658,250.920,4,4,3.420
1777495704740,0.067,0.887,-0.233,-250.137,-14.870,0.237,29.644,-16.873,0.920,250.579,4,4,8.871
1777495704754,0.032,0.830,-0.421,-250.137,-12.489,3.000,53.215,-12.842,0.932,250.467,4,4,3.412
1777495704768,-0.023,0.853,-0.505,-250.137,-7.565,-5.122,71.429,-9.010,0.991,250.304,4,4,3.411
1777495704781,-0.027,0.939,-0.584,-250.137,-0.748,-16.809,85.057,-6.193,1.106,250.703,4,4,3.499
1777495704797,-0.018,1.101,-0.685,-250.137,10.893,-17.748,95.012,-4.302,1.297,251.003,4,4,5.360
1777495704815,-0.001,1.304,-0.800,-250.137,27.664,-5.977,102.177,-3.132,1.530,251.733,5,5,4.312
1777495704829,0.081,1.275,-0.821,-250.137,40.740,-3.160,107.743,-3.110,1.519,253.453,5,5,3.928
1777495704843,0.160,1.309,-0.838,-250.137,48.985,-5.481,111.761,-3.859,1.563,254.948,5,5,3.238
1777495704856,0.260,1.369,-0.861,-250.137,52.863,-6.641,114.574,-5.288,1.638,255.748,5,5,3.222
1777495704871,0.374,1.464,-0.895,-250.137,51.389,3.000,116.431,-7.178,1.756,255.379,5,5,4.454
1777495704884,0.448,1.579,-0.961,-250.137,45.412,23.756,117.753,-8.918,1.902,255.334,5,5,3.712
1777495704898,0.450,1.633,-1.065,-250.137,35.466,48.832,119.200,-10.018,2.000,257.315,5,5,3.242
1777495704911,0.337,1.600,-1.162,-250.137,25.435,69.015,121.034,-9.925,2.006,260.727,5,5,3.233
1777495704925,0.153,1.580,-1.289,-250.137,18.260,81.626,123.242,-8.402,2.045,263.752,5,5,3.230
1777495704939,-0.040,1.549,-1.433,-250.137,16.145,87.702,125.814,-5.837,2.111,265.558,5,5,3.715
1777495704952,-0.177,1.480,-1.662,-232.198,15.992,83.779,129.189,-3.035,2.233,247.368,5,5,3.699
1777495704966,-0.241,1.328,-1.886,-195.901,15.916,68.183,133.419,-0.605,2.319,208.037,5,5,3.214
1777495704979,-0.139,1.165,-2.081,-146.985,7.252,44.374,138.103,0.457,2.389,153.708,5,5,3.227
1777495704992,-0.294,0.903,-2.273,-91.901,-1.832,43.473,143.567,2.183,2.464,101.681,5,5,3.221
1777495705006,-0.492,0.684,-2.305,-36.863,-5.122,44.992,148.948,4.720,2.455,58.390,5,5,3.219
1777495705019,-0.747,0.576,-2.254,14.748,-2.664,22.351,153.463,8.252,2.443,26.911,1,1,3.763
1777495705035,-0.873,0.524,-2.107,58.519,4.924,-27.260,156.862,11.941,2.341,64.744,1,1,5.450
1777495705048,-0.751,0.632,-1.896,93.557,14.084,-84.649,158.131,14.281,2.136,126.952,1,1,3.314
1777495705062,1.326,3.289,2.245,152.695,-29.443,-25.397,130.453,5.445,4.197,157.568,1,1,3.222
1777495705075,0.410,1.522,0.489,250.130,-66.985,-60.969,114.716,0.088,1.651,266.025,1,1,3.225
1777495705088,-0.277,0.977,-0.239,250.130,-43.954,-60.305,111.751,4.224,1.043,261.024,1,1,3.714
1777495705102,-0.203,0.863,-0.444,250.130,-12.771,-36.145,113.222,6.268,0.992,253.050,1,1,3.220
1777495705115,0.143,0.863,-0.633,223.107,-9.519,-34.328,116.744,2.514,1.080,225.933,1,1,3.225
1777495705129,-0.080,0.814,-0.670,194.443,-8.542,-25.573,120.181,3.004,1.058,196.303,1,1,3.362
1777495705142,0.148,0.616,-0.763,128.458,-15.603,-22.305,125.829,-0.134,0.991,131.311,1,1,3.218
1777495705156,-0.158,0.674,-0.775,88.687,-8.366,-26.183,129.381,2.267,1.040,92.849,1,1,3.707
1777495705169,0.076,0.123,-0.865,18.763,-10.519,-18.328,140.879,0.309,0.877,28.260,1,1,3.245
1777495705183,-0.416,0.885,-0.530,12.618,-3.382,1.954,135.481,6.162,1.112,13.209,1,1,3.218
1777495705198,-0.091,0.898,-0.533,10.954,1.679,11.443,131.487,5.840,1.048,15.930,1,1,3.359
1777495705212,0.019,0.893,-0.509,9.565,2.786,14.183,128.299,3.975,1.028,17.332,1,1,3.401
1777495705225,0.101,0.932,-0.498,9.565,-1.176,3.916,125.552,1.428,1.061,10.402,1,1,3.688
1777495705239,-0.010,0.912,-0.509,8.099,-2.817,0.420,123.821,1.184,1.045,8.585,1,1,3.247
1777495705252,0.004,0.916,-0.499,5.710,-3.603,-1.221,122.409,0.806,1.043,6.861,1,1,3.223
1777495705266,0.008,0.950,-0.498,6.534,-4.695,-2.107,121.129,0.475,1.072,8.317,1,1,3.219
1777495705279,-0.033,0.968,-0.488,7.779,-3.870,-2.527,119.951,0.821,1.084,9.048,1,1,3.253
1777495705292,-0.010,0.946,-0.517,8.725,-3.710,-1.305,119.594,0.746,1.078,9.571,1,1,3.691
1777495705306,-0.028,0.955,-0.492,9.511,-3.580,0.107,118.959,0.942,1.075,10.163,1,1,3.225
1777495705319,-0.018,0.948,-0.493,9.832,-4.145,-0.191,118.557,0.942,1.069,10.672,1,1,3.245
1777495705333,-0.038,0.919,-0.511,8.687,-3.969,0.588,118.694,1.245,1.052,9.569,1,1,3.213
1777495705346,0.012,0.925,-0.504,9.359,-5.206,-1.008,118.669,0.733,1.054,10.757,1,1,3.230
1777495705359,0.069,0.898,-0.512,8.443,-8.206,-5.008,118.944,-0.498,1.036,12.794,1,1,3.712
1777495705373,0.023,0.931,-0.518,8.618,-10.160,-7.977,118.976,-0.704,1.066,15.529,1,1,3.224
1777495705386,-0.004,0.925,-0.511,9.145,-10.863,-9.298,118.960,-0.460,1.056,16.973,1,1,3.240
1777495705400,-0.045,0.930,-0.515,9.053,-10.863,-7.527,118.962,0.318,1.064,16.019,1,1,3.219
1777495705413,-0.096,0.923,-0.526,8.023,-6.817,-2.977,119.159,1.626,1.067,10.941,1,1,3.235
1777495705426,-0.077,0.936,-0.526,7.794,-3.977,1.504,119.203,2.297,1.076,8.878,1,1,3.703
1777495705440,-0.041,0.912,-0.536,6.962,-1.542,3.695,119.539,2.269,1.059,8.031,1,1,3.220
1777495705453,-0.045,0.911,-0.530,6.275,-0.282,4.916,119.714,2.323,1.055,7.976,1,1,3.212
1777495705467,-0.029,0.937,-0.528,5.611,0.740,5.305,119.634,2.110,1.076,7.757,1,1,3.231
1777495705480,-0.005,0.892,-0.535,4.733,0.687,3.656,119.993,1.609,1.041,6.020,1,1,3.218
1777495705493,0.011,0.930,-0.540,4.947,0.611,0.198,120.028,1.013,1.075,4.988,1,1,3.712
1777495705507,0.016,0.923,-0.518,7.618,-0.771,-1.809,119.824,0.500,1.059,7.868,1,1,3.229
1777495705520,0.036,0.953,-0.521,8.542,-1.221,-7.221,119.516,-0.146,1.087,11.252,1,1,3.223
1777495705534,-0.005,0.928,-0.532,8.695,-2.092,-11.183,119.601,-0.036,1.070,14.319,1,1,3.225
1777495705547,-0.026,0.902,-0.533,9.076,-2.023,-10.557,119.869,0.359,1.048,14.069,1,1,3.351
1777495705563,-0.057,0.911,-0.529,9.931,-0.954,-9.725,119.943,1.094,1.055,13.933,5,5,6.368
1777495705577,-0.052,0.936,-0.547,12.000,-0.443,-7.198,120.041,1.547,1.085,14.001,5,5,3.240
1777495705590,-0.074,0.961,-0.550,15.359,0.542,-3.061,119.972,2.158,1.110,15.670,5,5,3.227
1777495705604,-0.073,0.992,-0.530,20.336,1.412,0.511,119.476,2.575,1.127,20.391,5,5,3.240
1777495705617,-0.046,0.936,-0.544,20.611,2.000,2.924,119.667,2.535,1.084,20.913,5,5,3.344
1777495705630,-0.048,0.941,-0.543,21.924,3.061,5.550,119.754,2.539,1.087,22.821,5,5,3.793
1777495705644,-0.063,0.927,-0.556,23.038,3.832,9.008,120.079,2.760,1.083,25.032,5,5,3.232
1777495705659,-0.024,0.934,-0.562,24.046,4.015,12.947,120.343,2.351,1.091,27.603,5,5,4.902
1777495705673,-0.036,0.959,-0.552,26.405,4.588,14.107,120.235,2.214,1.107,30.286,5,5,3.228
1777495705686,-0.046,0.980,-0.559,28.931,5.168,11.160,120.091,2.248,1.130,31.437,5,5,3.230
1777495705699,-0.016,0.985,-0.586,31.664,4.802,7.656,120.275,1.855,1.146,32.929,4,4,3.720
1777495705713,0.007,0.983,-0.587,35.137,4.511,5.840,120.427,1.255,1.144,35.904,4,4,3.233
1777495705727,-0.015,0.979,-0.599,38.496,5.290,3.954,120.705,1.117,1.148,39.059,4,4,3.241
1777495705740,0.000,1.014,-0.603,42.504,4.244,2.947,120.710,0.809,1.180,42.817,4,4,3.227
1777495705755,-0.003,1.034,-0.600,47.275,4.198,2.328,120.552,0.625,1.196,47.518,4,4,4.695
1777495705768,-0.021,1.065,-0.634,54.107,4.573,2.412,120.602,0.724,1.240,54.353,5,5,3.708
1777495705782,0.012,1.146,-0.633,64.351,5.107,-0.305,120.142,0.382,1.310,64.554,5,5,3.216
1777495705795,0.017,1.217,-0.624,75.756,2.458,-0.817,119.326,0.091,1.368,75.800,5,5,3.240
1777495705809,-0.015,1.286,-0.625,89.344,3.237,-3.412,118.408,0.233,1.430,89.467,5,5,3.217
1777495705823,0.040,1.241,-0.646,104.359,-3.664,-4.397,118.159,-0.268,1.399,104.516,5,5,3.762
1777495705836,0.029,1.313,-0.595,120.748,-8.565,-4.939,117.141,-0.502,1.442,121.152,4,4,3.705
1777495705850,-0.022,1.357,-0.579,139.977,-9.725,-4.969,116.053,-0.131,1.475,140.402,4,4,3.219
1777495705863,0.079,1.371,-0.589,159.336,-16.580,-6.511,115.292,-0.913,1.494,160.328,4,4,3.228
1777495705876,0.191,1.423,-0.565,181.908,-21.931,-15.504,114.310,-2.587,1.543,183.880,4,4,3.375
1777495705891,0.197,1.381,-0.582,208.382,-27.611,-26.298,113.916,-3.914,1.511,211.842,4,4,4.516
1777495705904,0.203,1.419,-0.581,234.718,-34.198,-37.435,113.474,-4.893,1.547,240.132,4,4,3.686
1777495705919,0.281,1.458,-0.587,250.130,-43.580,-51.206,113.058,-6.314,1.597,259.010,4,4,3.603
1777495705932,0.313,1.539,-0.673,250.130,-51.275,-62.992,113.210,-7.460,1.709,262.987,4,4,3.232
1777495705945,0.204,1.751,-0.801,250.130,-54.939,-75.130,113.578,-7.077,1.936,266.885,4,4,3.221
1777495705959,0.167,1.477,-0.865,250.130,-56.489,-63.351,115.412,-6.675,1.720,264.139,4,4,3.228
1777495705972,0.244,1.441,-0.823,250.130,-65.695,-71.847,116.579,-7.134,1.678,268.408,4,4,3.679
1777495705987,-0.042,1.434,-1.027,250.130,-53.015,-46.092,119.017,-4.843,1.764,259.808,4,4,4.286
1777495706000,0.191,1.208,-0.950,250.130,-49.779,16.695,121.496,-5.445,1.549,255.581,4,4,3.220
1777495706013,0.339,0.994,-0.668,250.130,-60.290,82.855,122.141,-8.244,1.245,270.305,4,4,3.235
1777495706027,0.191,1.393,-0.422,250.130,-72.885,134.672,118.009,-8.038,1.468,293.281,4,4,3.240
1777495706040,0.677,-0.307,0.355,250.130,-97.275,145.229,75.082,-20.794,0.823,305.154,4,4,3.694
1777495706055,-0.403,-1.194,-0.583,167.450,-61.611,128.313,23.455,-10.618,1.389,219.772,4,4,4.840
1777495706069,-0.685,-0.643,-0.345,22.260,-8.985,96.092,-14.817,3.913,1.001,99.044,4,4,3.230
1777495706083,-0.344,-0.400,-0.069,-101.397,42.885,-6.740,-37.766,13.736,0.532,110.299,4,4,4.482
1777495706097,-0.103,0.267,-0.224,-184.725,59.069,-67.534,7.542,14.462,0.364,205.362,4,4,3.232
1777495706110,0.197,0.301,-0.115,-232.893,56.672,-79.855,35.493,2.068,0.378,252.641,4,4,3.740
1777495706124,0.265,0.412,-0.043,-250.137,38.969,-30.779,51.817,-7.289,0.492,255.019,4,4,3.235
1777495706137,0.309,0.608,-0.035,-250.137,26.198,38.023,63.020,-12.586,0.683,254.364,4,4,3.222
1777495706151,0.367,0.743,-0.026,-250.137,5.092,110.695,70.848,-16.291,0.829,273.584,4,4,3.239
1777495706164,0.194,0.740,-0.123,-250.137,-8.023,162.321,78.567,-15.813,0.775,298.297,4,4,3.228
1777495706178,0.003,0.602,-0.173,-250.137,-15.710,166.328,85.985,-11.619,0.626,300.800,4,4,4.426
1777495706192,-0.209,0.647,-0.236,-250.137,-16.069,139.878,92.490,-3.926,0.720,287.041,4,4,3.232
1777495706205,-0.405,0.780,-0.313,-250.137,-10.580,107.573,97.728,4.082,0.932,272.493,4,4,3.230
1777495706221,-0.535,0.959,-0.402,-250.137,6.870,84.557,101.784,10.329,1.169,264.132,4,4,5.340
1777495706234,-0.552,1.150,-0.501,-250.137,26.015,81.595,104.959,13.960,1.371,264.392,4,4,3.242
1777495706247,-0.547,1.200,-0.651,-250.137,44.809,90.504,108.607,16.084,1.471,269.755,5,5,3.751
1777495706261,-0.527,1.178,-0.705,-250.137,63.008,82.802,111.933,17.411,1.470,270.915,5,5,3.233
1777495706275,-0.513,1.129,-0.710,-250.137,80.435,47.282,114.693,18.388,1.429,266.972,5,5,3.260
1777495706288,-0.439,1.101,-0.675,-250.137,99.160,4.053,116.533,18.497,1.364,269.106,5,5,3.235
1777495706302,-0.297,1.134,-0.648,-250.137,115.229,-24.481,117.399,16.960,1.339,276.488,5,5,3.380
1777495706315,-0.156,1.193,-0.641,-250.137,127.115,-30.641,117.627,14.153,1.363,282.251,5,5,3.713
1777495706329,-0.043,1.192,-0.679,-250.137,137.908,-19.519,118.177,10.817,1.373,286.301,5,5,3.219
1777495706343,0.019,1.176,-0.766,-250.137,148.832,7.489,119.504,7.682,1.404,291.163,5,5,4.395
1777495706357,0.050,1.229,-0.896,-250.137,158.130,28.687,121.288,5.095,1.522,297.316,5,5,3.231
1777495706370,0.024,1.378,-1.082,-250.137,164.336,40.687,123.138,3.507,1.752,302.044,5,5,3.251
1777495706384,0.031,1.566,-1.374,-250.137,160.679,35.847,125.333,2.330,2.084,299.452,5,5,3.723
1777495706397,-0.032,1.665,-1.672,-250.137,149.809,16.817,127.974,1.913,2.360,292.052,5,5,3.225
1777495706411,-0.036,1.646,-1.930,-243.679,134.237,-11.649,131.098,1.615,2.537,278.451,5,5,3.231
1777495706424,0.232,1.370,-2.092,-205.985,109.626,-44.901,135.335,-0.255,2.512,237.621,5,5,3.221
1777495706439,0.715,1.082,-2.337,-162.939,53.427,-38.069,140.693,-4.380,2.673,175.650,5,5,4.364
1777495706452,0.710,0.927,-2.590,-113.221,-5.122,35.824,145.991,-7.105,2.841,118.864,1,1,3.733
1777495706466,0.213,0.983,-2.612,-41.580,-46.641,93.206,149.606,-6.365,2.799,112.213,1,1,3.318
1777495706479,-0.979,2.878,-2.252,213.534,-64.992,2.107,143.782,-0.595,3.783,223.216,1,1,3.230
1777495706493,-0.029,0.685,-0.326,196.939,-86.718,-4.206,136.124,0.148,0.759,215.227,1,1,3.713
1777495706507,0.247,1.189,0.289,228.649,-71.282,-26.603,119.979,-2.972,1.249,240.976,1,1,3.649
1777495706523,0.206,0.849,-0.399,236.130,-53.267,-61.893,118.684,-5.508,0.960,249.851,1,1,3.707
1777495706538,-0.154,0.849,-0.476,209.344,-18.618,-62.664,118.842,-1.599,0.986,219.313,1,1,3.321
1777495706552,0.003,0.887,-0.592,178.076,-9.740,-62.534,120.160,-1.213,1.066,188.988,1,1,3.230
1777495706567,-0.118,0.910,-0.559,148.901,-13.305,-44.695,120.535,0.820,1.075,156.032,1,1,4.199
1777495706581,-0.158,0.889,-0.510,132.809,-15.023,-27.229,120.342,2.970,1.037,136.402,1,1,3.313
1777495706595,-0.141,0.609,-0.813,107.061,-13.092,-11.870,126.512,4.308,1.025,108.510,1,1,4.225
1777495706609,-0.144,0.846,-0.558,84.344,0.969,-5.855,125.676,5.325,1.024,84.552,1,1,3.287
1777495706622,-0.026,0.920,-0.497,72.969,4.672,-3.107,123.703,4.270,1.046,73.185,1,1,3.236
1777495706637,-0.125,0.120,-1.157,36.641,-4.519,1.557,137.311,4.769,1.170,36.952,1,1,4.733
1777495706651,-0.059,0.519,-0.738,23.534,-2.336,4.718,139.357,4.489,0.904,24.116,1,1,3.258
1777495706665,-0.004,0.905,-0.512,11.305,-0.710,3.786,134.001,3.331,1.040,11.944,1,1,4.229
1777495706679,-0.001,0.841,-0.555,8.832,-0.069,4.931,131.141,2.453,1.007,10.116,1,1,3.227
1777495706693,0.069,0.901,-0.506,4.275,-1.710,0.832,127.952,0.754,1.036,4.679,1,1,3.225
1777495706706,0.030,0.950,-0.497,3.183,-2.092,-0.550,125.163,0.113,1.072,3.848,1,1,3.232
1777495706719,0.013,0.981,-0.485,4.061,-1.985,-0.260,122.771,-0.101,1.094,4.528,1,1,3.218
1777495706733,-0.016,0.995,-0.470,6.420,-1.000,1.107,120.744,0.150,1.101,6.591,1,1,3.807
1777495706746,-0.039,0.969,-0.498,7.672,0.237,3.466,119.778,0.660,1.090,8.422,1,1,3.227
1777495706760,-0.025,0.935,-0.505,7.557,1.473,4.977,119.401,0.845,1.063,9.168,1,1,3.235
1777495706773,-0.021,0.921,-0.514,6.893,2.061,6.282,119.335,0.921,1.055,9.552,1,1,3.229
1777495706786,0.022,0.922,-0.495,5.779,2.664,6.870,119.039,0.351,1.047,9.364,1,1,3.231
1777495706800,0.013,0.951,-0.503,5.687,2.031,4.969,118.727,0.073,1.076,7.821,1,1,3.752
1777495706814,0.023,0.948,-0.509,5.046,1.534,2.962,118.588,-0.273,1.076,6.049,1,1,3.224
1777495706827,0.021,0.936,-0.498,4.504,0.977,1.069,118.430,-0.506,1.060,4.731,1,1,3.619
1777495706841,-0.016,0.939,-0.509,4.305,1.061,1.603,118.433,-0.139,1.068,4.715,1,1,3.231
1777495706854,-0.028,0.947,-0.494,4.878,2.321,4.160,118.194,0.309,1.069,6.818,1,1,3.229
1777495706867,-0.003,0.935,-0.504,5.412,3.244,5.237,118.225,0.268,1.062,8.200,1,1,3.710
1777495706881,-0.001,0.915,-0.506,5.481,3.420,5.817,118.417,0.217,1.045,8.693,1,1,3.246
1777495706896,0.011,0.922,-0.508,5.290,3.450,4.863,118.537,-0.007,1.053,7.971,1,1,4.363
1777495706909,0.021,0.940,-0.497,5.153,3.069,3.275,118.359,-0.314,1.063,6.833,1,1,3.228
1777495706923,0.036,0.902,-0.492,4.076,2.244,1.237,118.425,-0.777,1.028,4.815,1,1,3.706
1777495706936,0.037,0.922,-0.507,3.695,0.947,-0.206,118.520,-1.113,1.053,3.820,1,1,3.722
1777495706950,0.037,0.931,-0.503,3.573,-0.206,-2.130,118.481,-1.348,1.058,4.164,1,1,3.226
1777495706963,0.022,0.912,-0.516,2.748,-1.107,-2.916,118.759,-1.312,1.048,4.157,1,1,3.237
1777495706976,0.009,0.928,-0.512,3.298,-1.679,-2.992,118.793,-1.082,1.060,4.759,1,1,3.227
1777495706991,0.001,0.943,-0.501,3.588,-1.534,-2.695,118.571,-0.801,1.068,4.742,1,1,4.404
1777495707004,-0.011,0.927,-0.511,3.481,-1.130,-0.885,118.650,-0.427,1.059,3.765,1,1,3.734
1777495707018,-0.014,0.913,-0.513,2.634,-0.748,0.740,118.834,-0.099,1.048,2.836,1,1,3.231
1777495707031,0.007,0.963,-0.507,4.099,-0.870,1.878,118.549,-0.173,1.089,4.592,1,1,3.249
1777495707045,-0.006,0.924,-0.504,5.344,-0.870,2.802,118.569,-0.044,1.052,6.096,1,1,3.228
1777495707060,-0.011,0.922,-0.505,5.855,-0.092,3.939,118.611,0.126,1.052,7.057,1,1,5.599
1777495707074,0.016,0.920,-0.514,6.427,-0.878,4.924,118.775,-0.141,1.054,8.144,1,1,3.785
1777495707088,0.031,0.946,-0.517,7.000,-2.130,4.084,118.749,-0.551,1.078,8.379,1,1,3.254
1777495707101,0.046,0.942,-0.515,7.885,-2.847,3.992,118.726,-1.071,1.074,9.286,1,1,3.233
1777495707115,0.045,0.949,-0.521,9.221,-3.985,3.870,118.731,-1.431,1.083,10.765,1,1,3.634
1777495707128,0.059,0.959,-0.534,11.374,-5.405,6.145,118.829,-1.880,1.100,14.012,1,1,3.250
1777495707142,0.030,1.032,-0.508,16.817,-5.374,5.893,118.124,-1.769,1.151,18.612,4,4,3.703
1777495707155,-0.034,1.090,-0.505,23.084,-3.260,1.344,117.245,-0.851,1.202,23.352,4,4,3.238
1777495707169,-0.007,0.986,-0.540,25.840,-1.427,4.504,117.633,-0.527,1.124,26.268,4,4,3.226
1777495707182,0.000,1.013,-0.534,31.664,-0.275,7.802,117.674,-0.391,1.145,32.612,4,4,3.247
1777495707196,-0.009,1.038,-0.552,35.748,2.160,11.084,117.769,-0.170,1.176,37.489,4,4,3.230
1777495707209,0.001,1.062,-0.557,42.641,3.435,14.626,117.746,-0.137,1.199,45.211,4,4,3.699
1777495707223,0.040,1.056,-0.553,50.313,4.214,16.145,117.712,-0.613,1.193,53.008,4,4,3.254
1777495707236,0.060,1.124,-0.573,56.282,4.824,18.038,117.520,-1.187,1.263,59.299,4,4,3.302
1777495707249,0.015,1.224,-0.583,66.313,5.679,18.672,116.963,-1.039,1.356,69.125,4,4,3.245
1777495707263,0.102,1.477,-0.609,83.931,5.061,8.427,115.730,-1.741,1.600,84.505,4,4,3.235
1777495707276,0.073,1.294,-0.580,101.435,2.885,3.748,115.305,-2.062,1.420,101.545,4,4,3.698
1777495707290,0.032,1.335,-0.588,116.779,0.473,4.145,114.892,-1.849,1.460,116.853,4,4,3.240
1777495707303,0.015,1.336,-0.584,132.740,-0.794,5.786,114.550,-1.513,1.458,132.869,4,4,3.227
1777495707317,0.047,1.440,-0.562,151.374,-2.176,7.519,113.671,-1.576,1.547,151.576,4,4,3.239
1777495707330,0.135,1.456,-0.532,175.389,-5.435,5.550,112.698,-2.497,1.556,175.561,4,4,3.230
1777495707343,0.158,1.497,-0.536,199.763,-8.832,3.756,111.892,-3.357,1.598,199.994,4,4,3.702
1777495707357,0.089,1.674,-0.499,232.405,-12.947,3.771,110.464,-3.239,1.749,232.795,4,4,3.368
1777495707370,0.212,1.738,-0.496,250.130,-19.649,0.389,109.243,-4.175,1.819,250.901,4,4,3.225
1777495707384,0.191,1.828,-0.596,250.130,-24.191,-2.481,108.922,-4.581,1.932,251.309,4,4,3.240
1777495707397,0.175,1.978,-0.686,250.130,-26.649,-11.824,108.976,-4.633,2.101,251.823,4,4,3.237
1777495707410,0.284,1.770,-0.774,250.130,-32.725,-15.824,110.231,-5.644,1.952,252.757,4,4,3.717
1777495707424,0.239,1.469,-0.736,250.130,-32.183,4.878,111.957,-6.357,1.661,252.239,4,4,3.231
1777495707438,0.145,1.612,-0.973,250.130,-33.931,47.084,114.435,-5.830,1.888,256.774,4,4,3.234
1777495707451,0.358,1.376,-0.551,250.130,-36.557,105.695,113.730,-7.920,1.525,273.994,4,4,3.247
1777495707464,0.203,1.069,-0.429,250.130,-51.229,166.733,113.222,-8.482,1.170,304.941,4,4,3.225
1777495707478,0.170,1.147,0.003,250.130,-58.412,221.763,106.906,-8.470,1.160,339.346,4,4,3.707
1777495707491,0.459,-0.201,0.556,250.130,-103.023,215.382,72.654,-16.399,0.749,345.786,4,4,3.229
1777495707505,-0.049,-0.438,-0.634,225.611,-95.702,159.916,13.756,-10.979,0.772,292.630,4,4,3.221
1777495707518,-0.390,-0.364,-0.343,128.008,-76.748,66.916,-25.956,2.234,0.634,163.566,4,4,3.233
1777495707531,-0.478,-0.391,-0.157,22.725,-40.748,-16.809,-49.166,14.764,0.637,49.592,4,4,3.220
1777495707545,-0.390,-0.183,-0.293,-57.916,-9.176,-72.580,-75.867,23.849,0.521,93.308,4,4,3.764
1777495707558,-0.198,-0.098,-0.185,-125.710,11.168,-96.756,-96.468,29.122,0.288,159.026,4,4,3.228
1777495707572,0.028,0.001,-0.160,-175.939,16.351,-100.153,-21.849,18.591,0.163,203.107,4,4,3.228
1777495707586,0.100,0.094,-0.169,-216.511,10.031,-79.466,24.859,6.168,0.218,230.852,4,4,3.770
1777495707599,0.065,0.215,-0.195,-243.634,4.771,-42.481,53.851,1.098,0.298,247.355,4,4,3.249
1777495707613,0.164,0.257,-0.215,-250.137,-4.107,-7.588,74.415,-6.242,0.373,250.286,4,4,4.280
1777495707627,0.116,0.372,-0.292,-250.137,-12.107,24.588,88.931,-8.269,0.487,251.634,4,4,3.291
1777495707641,0.043,0.456,-0.323,-250.137,-16.412,42.916,98.757,-7.223,0.560,254.322,4,4,3.271
1777495707654,-0.081,0.597,-0.356,-250.137,-17.053,39.015,104.719,-3.481,0.700,253.736,4,4,3.235
1777495707668,-0.167,0.629,-0.398,-250.137,-13.855,13.771,109.481,0.865,0.763,250.899,4,4,3.223
1777495707681,-0.211,0.683,-0.433,-250.137,-6.305,-19.366,112.962,4.592,0.835,250.965,5,5,3.706
1777495707695,-0.193,0.744,-0.515,-250.137,3.679,-38.176,116.131,6.605,0.925,253.061,5,5,3.225
1777495707708,-0.127,0.842,-0.566,-250.137,14.145,-34.779,118.230,6.756,1.022,252.939,5,5,3.342
1777495707722,-0.054,0.907,-0.605,-250.137,24.893,-21.206,119.714,5.693,1.091,252.266,5,5,3.223
1777495707737,0.026,1.044,-0.677,-250.137,36.084,-8.504,120.588,3.827,1.245,252.870,5,5,5.124
1777495707750,0.095,1.050,-0.694,-250.137,45.626,-8.763,121.364,1.630,1.262,254.415,5,5,3.722
1777495707764,0.177,1.090,-0.723,-250.137,54.550,-16.832,121.952,-0.890,1.320,256.569,5,5,3.224
1777495707777,0.257,1.108,-0.727,-250.137,61.893,-19.557,122.301,-3.610,1.350,258.422,5,5,3.371
1777495707791,0.362,1.192,-0.739,-250.137,67.405,-11.061,122.161,-6.543,1.448,259.296,5,5,3.239
1777495707804,0.404,1.280,-0.792,-250.137,72.794,6.366,122.054,-8.836,1.558,260.592,5,5,3.240
1777495707817,0.424,1.412,-0.864,-250.137,80.534,24.939,121.895,-10.333,1.709,263.963,5,5,3.702
1777495707832,0.376,1.559,-0.957,-250.137,90.435,53.740,121.804,-10.678,1.867,271.358,5,5,4.037
1777495707845,0.279,1.683,-1.071,-250.137,99.573,81.557,121.983,-9.942,2.015,281.309,5,5,3.249
1777495707859,0.167,1.770,-1.219,-250.137,102.603,90.618,122.678,-8.455,2.156,285.145,5,5,3.227
1777495707873,0.012,1.736,-1.387,-250.137,95.534,77.893,124.283,-6.252,2.222,278.860,5,5,4.656
1777495707887,-0.025,1.610,-1.481,-250.137,78.687,41.511,126.533,-4.389,2.188,265.487,5,5,3.703
1777495707901,0.287,1.497,-1.621,-223.008,44.847,6.382,129.437,-5.204,2.225,227.562,5,5,3.259
1777495707914,0.655,1.224,-1.965,-182.160,-7.145,16.817,134.471,-8.064,2.406,183.074,5,5,3.239
1777495707927,0.569,1.121,-2.163,-125.458,-56.695,70.748,139.372,-9.439,2.502,154.788,5,5,3.229
1777495707941,-0.206,0.835,-2.209,-66.534,-76.267,129.023,144.753,-5.540,2.370,163.983,5,5,3.241
1777495707954,-1.009,0.679,-2.183,-16.313,-65.153,118.122,149.606,2.389,2.499,135.882,1,1,3.711
1777495707968,-1.475,0.561,-2.142,33.046,-23.931,5.305,153.850,10.839,2.661,41.145,1,1,3.851
1777495707982,-1.261,0.703,-2.003,34.870,53.855,-170.015,155.687,16.208,2.469,181.718,1,1,3.222
1777495707995,1.254,3.124,1.876,207.435,-10.832,-125.313,129.569,6.701,3.854,242.590,1,1,3.241
1777495708008,0.070,1.623,0.520,250.130,-3.802,-120.901,114.081,4.255,1.705,277.842,1,1,3.233
1777495708022,-0.243,0.867,-0.186,250.130,-3.267,-117.603,110.848,7.245,0.919,276.416,1,1,3.723
1777495708035,-0.089,0.873,-0.369,250.130,-14.824,-92.863,111.407,6.740,0.952,267.223,1,1,3.239
1777495708049,-0.105,0.864,-0.545,245.489,-28.122,-68.290,114.338,6.507,1.027,256.357,1,1,3.225
1777495708062,-0.277,0.909,-0.527,218.206,-20.947,-40.198,115.891,8.738,1.086,222.864,1,1,3.227
1777495708075,-0.032,0.796,-0.693,188.695,-12.412,-33.771,119.986,6.850,1.056,192.094,1,1,3.239
1777495708089,0.013,0.570,-0.901,126.229,-13.985,-30.802,127.473,4.808,1.066,130.683,1,1,3.687
1777495708103,-0.234,0.741,-0.712,81.389,-1.122,-22.061,129.205,6.969,1.054,84.334,1,1,3.351
1777495708117,-0.140,0.830,-0.545,59.244,3.473,-11.198,127.608,7.261,1.003,60.393,1,1,3.242
1777495708130,-0.062,1.011,-0.368,43.687,-5.115,-1.786,122.854,6.183,1.078,44.022,1,1,3.250
1777495708143,0.042,0.687,-0.593,22.603,-4.947,0.939,125.007,3.797,0.909,23.157,1,1,3.227
1777495708157,0.042,0.892,-0.522,18.000,-7.763,-4.290,123.741,2.146,1.034,20.067,1,1,3.727
1777495708170,-0.045,0.844,-0.538,12.252,-7.038,-4.084,123.410,2.261,1.002,14.708,1,1,3.230
1777495708184,-0.080,0.904,-0.511,8.695,-6.160,-0.573,122.357,2.842,1.041,10.671,1,1,3.231
1777495708197,-0.081,0.939,-0.502,6.916,-2.939,4.870,121.222,3.253,1.068,8.955,1,1,3.242
1777495708210,-0.099,0.961,-0.505,7.672,0.244,9.374,120.277,3.777,1.090,12.116,1,1,3.224
1777495708224,-0.132,0.934,-0.497,8.107,4.046,14.244,119.669,4.679,1.066,16.882,1,1,3.710
1777495708237,-0.094,0.940,-0.502,7.000,7.748,19.053,119.249,4.780,1.070,21.727,1,1,3.227
1777495708251,-0.064,0.918,-0.503,5.672,9.985,22.221,119.112,4.430,1.049,25.013,1,1,3.229
1777495708264,0.016,0.924,-0.505,5.267,9.832,20.206,118.989,3.000,1.053,23.080,1,1,3.238
1777495708277,0.039,0.930,-0.503,4.962,7.595,15.122,118.836,1.621,1.058,17.635,1,1,3.233
1777495708291,0.043,0.919,-0.522,5.053,5.260,10.298,119.043,0.547,1.058,12.619,1,1,3.708
1777495708305,0.027,0.928,-0.509,5.985,3.382,6.023,118.955,0.010,1.059,9.139,1,1,3.234
1777495708318,0.013,0.929,-0.507,5.695,2.000,3.649,118.870,-0.185,1.059,7.053,1,1,3.482
1777495708331,-0.002,0.930,-0.515,5.443,1.412,2.023,118.899,-0.100,1.063,5.976,1,1,3.226
1777495708345,-0.015,0.927,-0.527,4.527,1.802,2.198,119.096,0.140,1.066,5.345,1,1,3.226
1777495708358,-0.000,0.906,-0.553,2.489,3.252,1.427,119.717,0.109,1.062,4.337,1,1,3.722
1777495708372,0.003,0.925,-0.511,2.710,3.183,3.725,119.496,0.030,1.057,5.599,1,1,3.232
1777495708385,0.002,0.912,-0.521,1.687,3.290,3.656,119.558,-0.004,1.050,5.200,1,1,3.233
1777495708399,-0.001,0.908,-0.515,0.840,2.664,3.038,119.556,0.019,1.043,4.127,1,1,3.227
1777495708412,0.002,0.908,-0.515,-0.122,1.672,2.115,119.556,-0.022,1.044,2.698,1,1,3.495
1777495708426,0.001,0.891,-0.505,-0.244,0.458,0.779,119.554,-0.038,1.024,0.936,1,1,3.706
1777495708439,0.033,0.931,-0.511,0.489,-0.718,-0.588,119.348,-0.512,1.062,1.048,1,1,3.231
1777495708453,0.028,0.913,-0.508,0.931,-2.321,-2.672,119.278,-0.789,1.045,3.659,1,1,3.245
1777495708466,0.046,0.921,-0.522,4.023,-3.977,-4.489,119.355,-1.251,1.059,7.221,1,1,3.229
1777495708479,0.016,0.928,-0.505,5.908,-5.588,-6.336,119.131,-1.142,1.057,10.309,1,1,3.228
1777495708493,0.014,0.902,-0.522,6.718,-6.664,-8.321,119.378,-1.043,1.043,12.600,5,5,3.706
1777495708506,0.032,0.922,-0.533,8.046,-7.427,-13.046,119.550,-1.230,1.065,17.032,5,5,3.220
1777495708520,-0.036,0.899,-0.530,8.221,-7.305,-11.679,119.807,-0.365,1.044,16.043,5,5,3.648
1777495708533,-0.067,0.893,-0.526,7.473,-5.977,-8.649,119.990,0.738,1.039,12.899,5,5,3.222
1777495708547,-0.059,0.910,-0.531,7.473,-4.817,-6.115,120.061,1.402,1.056,10.791,5,5,3.231
1777495708560,-0.040,0.927,-0.518,7.718,-4.237,-4.863,119.826,1.603,1.062,10.058,1,1,3.693
1777495708574,-0.041,0.920,-0.527,8.328,-3.954,-3.794,119.814,1.762,1.061,9.969,1,1,3.226
1777495708587,-0.042,0.928,-0.521,9.321,-3.458,-2.305,119.678,1.893,1.065,10.205,1,1,3.228
1777495708601,-0.047,0.963,-0.533,11.458,-2.595,-0.305,119.485,2.047,1.102,11.752,1,1,3.621
1777495708614,-0.060,0.982,-0.530,14.282,-1.260,0.992,119.175,2.326,1.118,14.372,1,1,3.380
1777495708628,-0.053,0.965,-0.546,16.137,0.168,3.634,119.266,2.444,1.110,16.542,1,1,3.809
1777495708643,-0.066,0.966,-0.546,18.710,2.389,7.435,119.322,2.702,1.112,20.274,1,1,4.919
1777495708657,-0.060,0.966,-0.552,20.878,3.450,10.702,119.445,2.803,1.114,23.713,1,1,3.229
1777495708670,-0.038,0.975,-0.542,24.290,4.427,13.412,119.349,2.568,1.116,28.098,1,1,3.265
1777495708684,-0.008,0.991,-0.559,27.595,5.397,14.664,119.373,1.983,1.138,31.712,1,1,3.243
1777495708697,-0.009,0.998,-0.554,30.565,5.779,15.473,119.282,1.573,1.142,34.742,4,4,3.704
1777495708711,-0.033,0.967,-0.583,34.420,7.015,16.763,119.768,1.600,1.129,38.922,4,4,3.242
1777495708724,-0.013,1.023,-0.578,38.908,7.901,17.664,119.685,1.335,1.175,43.455,4,4,3.602
1777495708738,-0.007,1.050,-0.587,44.122,7.809,14.489,119.556,1.059,1.203,47.092,4,4,3.234
1777495708751,0.027,1.133,-0.593,51.183,5.847,6.122,119.035,0.442,1.279,51.879,4,4,3.234
1777495708765,0.025,1.132,-0.596,60.145,5.237,2.771,118.699,0.018,1.279,60.436,5,5,3.910
1777495708781,0.031,1.130,-0.618,70.687,4.595,0.939,118.696,-0.353,1.289,70.842,5,5,6.276
1777495708795,-0.044,1.111,-0.593,79.702,3.511,2.344,118.535,0.288,1.260,79.814,5,5,3.228
1777495708808,-0.030,1.103,-0.605,87.969,4.244,3.069,118.593,0.583,1.258,88.125,5,5,3.242
1777495708821,-0.033,1.100,-0.615,95.710,2.649,4.679,118.761,0.833,1.261,95.861,5,5,3.242
1777495708835,0.045,1.112,-0.657,105.031,2.710,4.504,119.253,0.073,1.292,105.162,4,4,3.712
1777495708849,0.107,1.074,-0.623,113.710,-1.038,2.634,119.478,-1.274,1.246,113.745,4,4,3.233
1777495708862,0.134,1.056,-0.625,122.313,-6.069,-0.985,119.785,-2.617,1.234,122.467,4,4,3.224
1777495708877,0.133,1.069,-0.647,133.389,-8.344,-5.939,120.158,-3.555,1.257,133.782,4,4,4.632
1777495708890,0.121,1.105,-0.649,145.580,-8.328,-9.000,120.226,-4.056,1.287,146.096,4,4,3.230
1777495708903,0.092,1.150,-0.675,159.855,-12.580,-10.000,120.273,-4.024,1.337,160.661,4,4,3.711
1777495708917,0.093,1.223,-0.672,176.962,-15.847,-10.298,119.872,-3.970,1.398,177.968,4,4,3.241
1777495708930,0.073,1.292,-0.739,194.733,-19.618,-8.641,119.841,-3.658,1.490,195.909,4,4,3.233
1777495708944,0.126,1.367,-0.821,214.824,-24.244,-17.153,120.151,-3.888,1.600,216.868,4,4,3.242
1777495708957,0.245,1.486,-0.834,238.550,-31.542,-18.710,119.923,-5.049,1.722,241.352,4,4,3.231
1777495708970,0.299,1.471,-0.936,250.130,-39.679,-10.313,120.612,-6.316,1.769,253.467,4,4,3.739
1777495708984,0.354,1.413,-0.952,250.130,-50.252,-5.061,121.522,-7.784,1.741,255.178,4,4,3.233
1777495708998,0.378,1.601,-1.022,250.130,-66.954,0.046,121.800,-8.722,1.936,258.936,4,4,3.227
1777495709011,0.174,1.399,-1.056,250.130,-66.374,22.321,123.218,-7.894,1.762,259.747,4,4,3.234
1777495709024,0.239,1.500,-0.925,250.130,-68.427,69.389,122.801,-7.844,1.778,268.444,4,4,3.226
1777495709038,0.213,1.079,-0.646,250.130,-80.573,91.756,122.291,-8.327,1.275,278.345,4,4,3.726
1777495709051,0.472,0.252,-0.260,250.130,-102.107,74.969,125.946,-20.273,0.595,280.377,4,4,3.227
1777495709065,0.398,-0.548,0.720,196.603,-123.397,37.145,81.854,-21.211,0.989,235.073,4,4,3.241
1777495709078,-0.302,0.033,-0.835,121.748,-111.489,17.466,107.763,-10.119,0.888,166.004,4,4,3.232
1777495709091,-0.346,-0.343,-0.077,27.634,-79.534,19.679,50.896,4.662,0.493,86.467,4,4,3.225
1777495709105,-0.317,0.369,-0.250,-30.664,-52.901,12.145,70.691,12.966,0.547,62.340,4,4,3.715
1777495709120,-0.298,0.458,-0.209,-52.962,-22.214,12.427,82.540,17.739,0.585,58.761,4,4,3.253
1777495709133,-0.243,0.413,-0.250,-65.427,-3.786,6.817,92.986,20.166,0.541,65.891,4,4,3.261
1777495709147,-0.255,0.305,-0.280,-78.473,13.901,0.015,103.685,23.251,0.486,79.695,4,4,3.371
1777495709162,-0.197,0.154,-0.263,-101.412,26.985,-8.023,116.132,25.840,0.363,105.247,4,4,4.969
1777495709175,-0.154,0.075,-0.268,-138.779,33.756,-12.534,129.176,26.670,0.318,143.374,4,4,3.707
1777495709189,-0.106,0.066,-0.259,-178.160,36.450,-10.977,139.056,25.330,0.287,182.182,4,4,3.219
1777495709202,-0.054,0.199,-0.280,-211.023,34.786,-4.260,140.533,20.900,0.347,213.913,4,4,3.259
1777495709216,-0.055,0.363,-0.339,-232.931,32.756,5.611,138.506,16.966,0.500,235.290,4,4,3.219
1777495709229,-0.092,0.476,-0.399,-246.550,32.679,15.832,136.206,14.648,0.628,249.209,4,4,3.313
1777495709243,-0.130,0.492,-0.458,-250.137,33.435,20.870,135.331,13.639,0.685,253.224,5,5,3.723
1777495709258,-0.171,0.542,-0.504,-250.137,35.725,20.282,134.675,13.460,0.760,253.488,5,5,4.858
1777495709272,-0.178,0.634,-0.547,-250.137,38.878,14.420,133.620,13.069,0.856,253.551,5,5,3.329
1777495709285,-0.135,0.777,-0.634,-250.137,40.183,8.313,132.430,11.604,1.011,253.481,5,5,3.234
1777495709299,-0.076,0.877,-0.705,-250.137,38.588,4.359,131.454,9.518,1.128,253.134,5,5,3.500
1777495709312,-0.008,0.970,-0.763,-250.137,34.901,0.687,130.575,7.042,1.235,252.561,5,5,3.710
1777495709326,0.027,0.952,-0.812,-250.137,31.145,-4.924,130.545,4.801,1.251,252.117,5,5,3.245
1777495709340,0.052,0.905,-0.814,-250.137,29.977,-12.130,130.925,2.843,1.218,252.219,5,5,3.233
1777495709353,0.076,0.975,-0.818,-250.137,33.206,-18.336,130.674,1.156,1.275,252.997,5,5,3.220
1777495709366,0.067,1.117,-0.852,-250.137,41.870,-11.443,129.770,0.107,1.406,253.876,5,5,3.256
1777495709379,0.068,1.224,-0.899,-250.137,55.931,2.649,128.836,-0.616,1.520,256.328,5,5,3.701
1777495709393,0.058,1.295,-0.962,-250.137,75.481,13.412,128.232,-1.002,1.614,261.622,5,5,3.257
1777495709407,0.090,1.343,-1.023,-250.137,94.733,25.015,127.980,-1.552,1.691,268.642,5,5,3.227
1777495709420,0.082,1.377,-1.094,-250.137,110.672,46.817,128.109,-1.854,1.760,277.505,5,5,3.230
1777495709434,0.085,1.416,-1.168,-245.840,120.893,65.634,128.495,-2.073,1.837,281.709,5,5,3.542
1777495709447,0.021,1.418,-1.223,-226.901,122.969,76.153,129.113,-1.687,1.873,269.081,5,5,3.696
1777495709461,-0.055,1.435,-1.291,-206.198,117.168,74.344,129.886,-0.793,1.931,248.542,5,5,3.261
1777495709474,-0.032,1.461,-1.307,-183.046,101.336,50.573,130.410,-0.322,1.960,215.249,5,5,3.225
1777495709487,0.145,1.406,-1.368,-154.939,72.198,25.321,131.440,-1.379,1.967,172.800,5,5,3.258
1777495709501,0.475,1.201,-1.473,-127.389,22.656,17.313,133.974,-4.798,1.959,130.542,5,5,3.235
1777495709514,0.674,0.957,-1.576,-106.115,-35.244,29.962,137.961,-8.925,1.963,115.759,5,5,3.695
1777495709528,0.455,0.996,-1.642,-73.710,-79.557,57.824,140.876,-10.118,1.973,122.907,5,5,3.242
1777495709541,-0.012,0.963,-1.616,-31.504,-96.664,85.160,143.126,-7.286,1.881,132.622,5,5,3.229
1777495709555,-0.530,0.880,-1.539,6.542,-91.588,76.260,145.047,-0.824,1.850,119.359,5,5,3.243
1777495709568,-0.005,4.000,-2.099,142.031,-83.702,-239.748,137.657,-0.584,4.517,290.960,5,5,3.231
1777495709581,-0.619,1.972,0.611,137.573,-40.427,-50.527,120.130,4.083,2.156,152.031,1,1,3.709
1777495709595,0.097,1.360,0.286,178.603,-6.473,-46.122,108.778,1.897,1.394,184.576,1,1,3.237
1777495709608,0.286,0.964,-0.206,184.489,-28.511,-70.275,106.970,-2.993,1.026,199.468,1,1,3.226
1777495709623,-0.144,0.943,-0.228,179.008,-25.695,-58.351,106.051,0.102,0.980,190.023,1,1,4.482
1777495709637,0.001,0.929,-0.309,170.824,-24.672,-50.427,106.686,0.055,0.979,179.813,1,1,3.275
1777495709651,-0.181,0.983,-0.330,163.908,-23.756,-40.160,107.192,2.720,1.053,170.421,1,1,4.285
1777495709665,-0.157,1.058,-0.348,161.092,-9.802,-23.183,107.470,4.155,1.125,163.046,1,1,3.244
1777495709678,-0.105,0.936,-0.548,152.023,-3.557,-15.466,110.945,4.530,1.090,152.849,1,1,3.226
1777495709691,-0.066,0.966,-0.503,142.290,-0.748,-12.221,112.719,4.245,1.091,142.816,1,1,3.236
1777495709705,0.148,0.784,-0.652,104.405,-10.870,-11.954,117.321,0.861,1.030,105.647,1,1,3.230
1777495709719,0.041,0.773,-0.638,80.107,-9.198,-19.748,120.626,-0.001,1.003,83.016,1,1,4.874
1777495709733,-0.055,0.447,-0.580,32.710,-16.015,-14.618,126.515,1.163,0.734,39.244,1,1,3.228
1777495709746,-0.075,0.566,-0.750,19.145,-12.962,-8.832,130.956,2.081,0.942,24.750,1,1,3.233
1777495709760,-0.077,1.000,-0.485,10.824,-6.252,-4.878,126.880,2.596,1.113,13.418,1,1,3.267
1777495709773,-0.121,0.911,-0.482,9.450,-3.496,2.374,124.451,3.709,1.037,10.352,1,1,3.263
1777495709787,-0.009,0.941,-0.465,7.450,-2.771,3.321,122.249,2.833,1.050,8.615,1,1,4.138
1777495709801,-0.006,0.915,-0.494,7.183,-3.725,1.863,121.197,2.151,1.040,8.303,1,1,3.269
1777495709814,-0.011,0.954,-0.489,6.641,-4.145,1.359,120.095,1.725,1.072,7.946,1,1,3.584
1777495709828,-0.053,0.934,-0.489,7.618,-2.565,4.855,119.427,2.043,1.056,9.391,1,1,3.266
1777495709841,-0.058,0.955,-0.497,8.198,-1.145,7.794,118.902,2.330,1.078,11.370,1,1,3.276
1777495709855,-0.008,0.940,-0.502,9.550,-0.115,7.466,118.686,1.821,1.066,12.122,1,1,3.952
1777495709869,-0.018,0.924,-0.493,8.733,1.031,7.313,118.523,1.599,1.048,11.437,1,1,3.280
1777495709883,-0.021,0.929,-0.502,7.847,1.573,7.489,118.484,1.479,1.056,10.960,1,1,4.625
1777495709897,0.041,0.953,-0.490,8.282,0.802,6.435,118.132,0.494,1.072,10.519,1,1,3.274
1777495709910,0.009,0.948,-0.490,8.115,-0.061,4.191,117.921,0.226,1.067,9.133,1,1,3.269
1777495709923,0.011,0.921,-0.512,7.160,-0.748,2.450,118.240,0.007,1.054,7.605,1,1,3.962
1777495709938,-0.004,0.919,-0.512,6.893,-0.977,1.947,118.472,0.063,1.052,7.229,1,1,3.559
1777495709951,0.011,0.911,-0.508,6.405,-1.977,0.092,118.650,-0.125,1.043,6.703,1,1,3.298
1777495709965,0.003,0.917,-0.506,5.618,-2.603,-0.794,118.715,-0.131,1.047,6.243,1,1,3.363
1777495709978,-0.018,0.913,-0.503,4.969,-2.435,-0.565,118.747,0.169,1.042,5.563,1,1,3.271
1777495709991,-0.026,0.916,-0.509,4.198,-1.786,0.000,118.829,0.502,1.048,4.563,1,1,3.947
1777495710005,-0.004,0.921,-0.515,3.954,-1.649,0.046,118.935,0.420,1.055,4.284,1,1,3.266
1777495710019,-0.018,0.930,-0.515,3.351,-1.435,0.511,118.947,0.573,1.063,3.681,1,1,3.291
1777495710032,-0.021,0.925,-0.520,3.397,-0.947,0.840,119.054,0.718,1.061,3.625,1,1,3.263
1777495710046,-0.010,0.936,-0.512,3.214,-0.443,1.015,118.947,0.673,1.067,3.399,1,1,3.276
1777495710059,-0.025,0.924,-0.512,2.954,-0.099,1.519,118.953,0.856,1.057,3.323,1,1,3.943
1777495710073,-0.022,0.917,-0.515,2.786,0.412,1.924,119.049,0.944,1.052,3.411,1,1,3.263
1777495710086,-0.028,0.915,-0.526,2.115,0.740,2.229,119.274,1.094,1.056,3.160,1,1,3.280
1777495710100,-0.020,0.921,-0.513,1.832,0.939,2.519,119.228,1.088,1.055,3.253,1,1,3.263
1777495710113,-0.005,0.910,-0.519,1.534,0.947,2.282,119.353,0.874,1.048,2.909,1,1,3.278
1777495710127,-0.000,0.908,-0.515,1.069,0.794,1.779,119.412,0.641,1.044,2.222,1,1,4.706
1777495710142,-0.016,0.909,-0.517,0.313,0.397,1.840,119.474,0.710,1.046,1.908,1,1,3.322
1777495710155,-0.007,0.905,-0.517,-0.137,0.313,1.618,119.547,0.623,1.042,1.654,1,1,3.267
1777495710168,-0.018,0.901,-0.511,-0.550,0.412,1.511,119.546,0.718,1.036,1.660,1,1,3.256
1777495710183,-0.007,0.900,-0.511,-0.954,0.275,1.489,119.556,0.633,1.035,1.789,1,1,4.441
1777495710196,0.000,0.899,-0.514,-1.840,-0.237,1.237,119.616,0.455,1.036,2.229,1,1,3.877
1777495710211,-0.006,0.897,-0.511,-2.611,-0.947,-0.069,119.639,0.427,1.032,2.778,1,1,4.097
1777495710224,-0.001,0.910,-0.510,-2.817,-1.458,-1.183,119.533,0.334,1.043,3.385,1,1,3.267
1777495710238,-0.001,0.913,-0.508,-3.252,-1.977,-2.229,119.419,0.265,1.045,4.410,1,1,3.258
1777495710251,-0.020,0.927,-0.496,-2.855,-2.023,-2.107,119.077,0.488,1.052,4.084,1,1,3.265
1777495710264,0.005,0.934,-0.503,-2.550,-2.489,-3.076,118.876,0.288,1.061,4.707,1,1,3.938
1777495710279,0.002,0.928,-0.502,-2.023,-3.221,-4.313,118.755,0.178,1.055,5.751,1,1,3.286
1777495710294,-0.002,0.936,-0.511,-1.557,-3.802,-5.588,118.729,0.162,1.066,6.935,1,1,5.329
1777495710307,0.001,0.928,-0.500,-1.443,-4.244,-6.611,118.608,0.104,1.054,7.987,1,1,3.267
1777495710321,-0.008,0.921,-0.504,-1.305,-4.855,-7.389,118.629,0.198,1.050,8.937,1,1,3.267
1777495710334,-0.021,0.917,-0.509,-1.702,-4.687,-7.931,118.740,0.462,1.049,9.369,5,5,3.928
1777495710353,-0.012,0.909,-0.502,-2.015,-4.611,-7.771,118.789,0.522,1.039,9.258,5,5,8.281
1777495710367,-0.051,0.913,-0.511,-2.809,-3.863,-7.382,118.909,1.129,1.047,8.792,5,5,3.264
1777495710380,-0.046,0.910,-0.517,-3.725,-2.649,-6.740,119.092,1.509,1.048,8.144,5,5,3.279
1777495710393,-0.043,0.944,-0.514,-3.901,-1.336,-4.382,118.956,1.723,1.076,6.017,5,5,3.261
1777495710407,-0.042,0.955,-0.500,-3.267,-0.137,-2.313,118.597,1.867,1.079,4.005,5,5,4.252
1777495710421,-0.053,0.952,-0.493,-2.664,0.229,-0.481,118.272,2.134,1.073,2.717,5,5,3.271
1777495710434,-0.070,0.949,-0.511,-2.015,1.099,2.099,118.275,2.559,1.080,3.111,5,5,3.259
1777495710449,-0.053,0.959,-0.497,-0.817,1.275,3.847,118.038,2.623,1.081,4.135,5,5,3.464
1777495710462,-0.044,0.939,-0.491,-0.221,1.695,4.550,117.926,2.556,1.060,4.860,5,5,3.266
1777495710475,-0.044,0.925,-0.502,-0.366,1.947,5.634,118.082,2.511,1.053,5.972,5,5,4.010
1777495710489,-0.027,0.923,-0.503,-0.397,2.145,6.176,118.219,2.225,1.052,6.550,5,5,3.271
1777495710503,-0.016,0.913,-0.504,-0.618,2.008,5.824,118.399,1.856,1.043,6.192,5,5,3.253
1777495710516,-0.021,0.914,-0.501,-0.466,1.802,5.000,118.488,1.663,1.042,5.335,5,5,3.275
1777495710530,-0.023,0.916,-0.504,-0.794,1.275,4.305,118.583,1.550,1.045,4.560,5,5,3.266
1777495710543,0.000,0.911,-0.495,-1.191,1.137,3.122,118.571,1.127,1.037,3.530,5,5,3.956
1777495710557,-0.029,0.919,-0.492,-1.092,1.008,3.382,118.454,1.250,1.043,3.694,5,5,3.273
1777495710570,-0.019,0.928,-0.503,-0.802,0.908,3.214,118.462,1.192,1.056,3.434,5,5,3.265
1777495710584,-0.028,0.927,-0.507,-0.863,1.115,3.435,118.528,1.281,1.057,3.713,5,5,3.273
1777495710597,-0.026,0.919,-0.511,-0.977,1.382,4.023,118.674,1.316,1.051,4.364,5,5,3.266
1777495710610,-0.032,0.936,-0.499,-0.588,1.763,4.794,118.505,1.427,1.061,5.142,1,1,3.944
1777495710624,-0.021,0.933,-0.502,-0.656,1.870,5.122,118.450,1.352,1.060,5.492,1,1,3.266
1777495710638,-0.014,0.930,-0.497,-0.366,1.809,4.847,118.354,1.198,1.055,5.187,1,1,3.266
1777495710654,-0.018,0.927,-0.505,0.031,1.832,5.191,118.414,1.132,1.056,5.505,1,1,3.407
1777495710667,-0.008,0.927,-0.504,0.031,1.695,5.405,118.449,0.937,1.056,5.664,1,1,3.573
1777495710681,-0.006,0.927,-0.504,0.244,1.450,5.168,118.475,0.777,1.055,5.373,1,1,3.932
1777495710695,0.000,0.930,-0.505,0.359,1.321,4.481,118.483,0.560,1.058,4.685,1,1,3.260
1777495710708,-0.003,0.934,-0.505,0.359,0.733,3.496,118.457,0.452,1.061,3.590,1,1,3.271
1777495710722,-0.003,0.929,-0.495,0.344,0.550,2.931,118.349,0.369,1.053,3.002,1,1,3.258
1777495710735,0.006,0.920,-0.509,0.527,0.458,2.595,118.505,0.187,1.051,2.688,1,1,3.260
1777495710748,-0.008,0.927,-0.505,0.481,0.450,2.122,118.517,0.247,1.056,2.222,1,1,3.895
1777495710762,-0.002,0.928,-0.506,0.260,0.489,1.824,118.537,0.209,1.057,1.906,1,1,3.261
1777495710776,0.007,0.931,-0.502,0.313,0.015,1.069,118.480,0.049,1.058,1.114,1,1,3.281
1777495710789,0.003,0.918,-0.502,0.191,-0.282,0.412,118.525,-0.011,1.047,0.535,1,1,3.261
1777495710803,0.002,0.925,-0.502,0.076,-0.550,-0.176,118.522,-0.033,1.052,0.582,1,1,3.264
1777495710817,-0.002,0.924,-0.492,-0.153,-0.969,-0.962,118.397,0.008,1.047,1.374,1,1,4.351
1777495710831,0.008,0.922,-0.500,-0.687,-1.176,-1.901,118.415,-0.113,1.049,2.338,1,1,3.440
1777495710844,0.012,0.930,-0.502,-0.847,-1.412,-3.397,118.400,-0.265,1.057,3.775,1,1,3.277
1777495710858,0.010,0.926,-0.503,-0.855,-2.160,-5.176,118.432,-0.347,1.054,5.673,1,1,3.264
1777495710871,0.016,0.936,-0.510,-0.779,-2.718,-6.931,118.470,-0.481,1.065,7.486,1,1,3.265
1777495710885,0.007,0.927,-0.500,-0.817,-2.786,-8.168,118.434,-0.458,1.053,8.669,5,5,3.926
1777495710899,-0.012,0.917,-0.498,-1.427,-2.947,-8.084,118.452,-0.157,1.043,8.722,5,5,3.265
1777495710912,-0.014,0.923,-0.494,-1.786,-2.870,-7.031,118.372,0.095,1.047,7.801,5,5,3.274
1777495710925,-0.009,0.927,-0.498,-2.336,-3.664,-4.992,118.335,0.205,1.053,6.619,5,5,3.266
1777495710939,0.001,0.941,-0.499,-2.137,-4.855,-2.504,118.227,0.132,1.065,5.866,5,5,3.287
1777495710952,0.065,0.958,-0.491,-2.481,-9.252,1.000,117.925,-0.839,1.079,9.631,5,5,3.927
1777495710967,0.125,0.928,-0.500,-1.847,-16.740,2.435,118.039,-2.443,1.062,17.017,5,5,3.717
1777495710980,0.259,0.938,-0.483,-0.481,-31.550,12.985,117.827,-5.515,1.086,34.121,5,5,3.281
1777495710994,0.677,0.970,-0.478,-1.489,-70.527,47.786,117.394,-12.681,1.276,85.204,5,5,3.257
1777495711007,1.018,1.024,-0.391,-2.244,-135.672,88.977,115.643,-20.839,1.496,162.261,5,5,3.289
1777495711021,0.674,1.139,-0.337,3.763,-194.366,109.244,113.162,-23.193,1.366,222.995,4,4,3.927
1777495711035,0.458,1.020,-0.372,4.702,-240.313,123.092,112.317,-23.113,1.178,270.044,4,4,3.275
1777495711048,0.362,0.980,-0.415,6.641,-250.137,126.779,112.486,-21.939,1.124,280.510,4,4,3.266
1777495711061,0.239,0.985,-0.526,9.092,-250.137,124.870,114.004,-19.269,1.142,279.721,4,4,3.264
1777495711075,0.238,0.979,-0.631,14.282,-250.137,121.206,116.385,-17.180,1.189,278.323,4,4,3.284
1777495711088,0.118,0.970,-0.731,23.969,-250.137,110.420,119.260,-14.037,1.220,274.474,4,4,3.922
1777495711102,0.102,0.836,-0.675,23.802,-250.137,105.191,121.863,-11.710,1.080,272.397,4,4,3.269
1777495711116,-0.030,0.832,-0.626,22.092,-250.137,107.534,123.246,-8.100,1.041,273.167,4,4,3.266
1777495711129,-0.158,0.857,-0.586,22.450,-250.137,134.450,123.550,-3.580,1.051,284.868,4,4,3.277
1777495711142,-0.167,0.811,-0.519,18.191,-250.137,173.924,123.293,0.038,0.977,305.203,4,4,3.281
1777495711158,-0.284,0.915,-0.490,15.115,-250.137,193.061,121.910,4.168,1.076,316.338,4,4,4.055
1777495711172,-0.452,0.937,-0.471,15.290,-250.137,177.435,120.508,9.347,1.142,307.060,4,4,3.294
1777495711186,-0.556,0.927,-0.486,16.282,-250.137,146.641,119.733,14.382,1.185,290.409,4,4,3.266
1777495711199,-0.572,0.890,-0.491,16.916,-250.137,116.122,119.510,18.432,1.166,276.296,4,4,3.288
1777495711213,-0.512,0.904,-0.481,18.557,-250.137,94.427,119.109,20.631,1.145,268.011,4,4,3.265
1777495711226,-0.422,0.891,-0.474,21.038,-237.573,83.832,118.812,21.193,1.094,252.806,4,4,3.885
1777495711240,-0.354,0.893,-0.452,22.794,-225.740,76.382,118.276,20.737,1.062,239.400,4,4,3.295
1777495711253,-0.309,0.856,-0.443,21.504,-216.679,68.435,118.033,19.939,1.012,228.245,4,4,3.274
1777495711267,-0.268,0.846,-0.446,16.870,-209.954,59.832,117.972,18.778,0.993,218.964,4,4,3.266
1777495711280,-0.221,0.871,-0.455,13.763,-205.435,54.221,117.864,17.135,1.007,212.915,4,4,3.259
1777495711293,-0.137,0.891,-0.478,11.893,-203.885,52.832,117.962,14.587,1.020,210.955,1,1,3.880
1777495711307,-0.018,0.913,-0.519,12.473,-208.267,54.221,118.406,10.912,1.050,215.571,1,1,3.283
1777495711321,0.071,0.947,-0.553,15.679,-217.603,59.420,118.908,6.970,1.099,226.114,1,1,3.315
1777495711334,0.103,0.955,-0.559,21.053,-229.008,67.176,119.288,3.647,1.111,239.584,1,1,3.365
1777495711348,0.130,0.933,-0.560,23.824,-241.687,73.824,119.736,0.816,1.096,253.831,1,1,3.265
1777495711361,0.209,0.921,-0.571,23.710,-250.137,73.969,120.297,-2.353,1.104,261.921,4,4,3.901
1777495711375,0.256,0.927,-0.567,22.405,-250.137,66.015,120.609,-5.299,1.117,259.670,4,4,3.314
1777495711389,0.288,0.935,-0.554,22.863,-250.137,67.221,120.623,-7.877,1.125,260.020,4,4,3.266
1777495711402,0.332,0.954,-0.566,24.840,-250.137,73.366,120.635,-10.249,1.158,261.856,4,4,3.263
1777495711415,0.320,0.956,-0.553,27.977,-250.137,79.550,120.482,-11.845,1.150,263.969,4,4,3.282
1777495711429,0.270,0.948,-0.537,29.977,-250.137,85.695,120.219,-12.401,1.123,266.103,1,1,3.927
1777495711443,0.220,0.971,-0.528,33.252,-250.137,88.412,119.758,-12.092,1.127,267.378,1,1,3.268
1777495711456,0.160,0.968,-0.545,37.282,-250.137,86.870,119.658,-11.038,1.122,267.404,1,1,3.264
1777495711471,0.076,0.957,-0.566,41.160,-250.137,83.641,119.910,-9.115,1.114,266.943,1,1,4.894
1777495711485,-0.002,0.927,-0.591,43.214,-248.229,78.260,120.617,-6.628,1.100,263.836,1,1,3.274
1777495711498,-0.061,0.904,-0.615,44.389,-222.893,68.405,121.600,-3.975,1.095,237.341,1,1,4.353
1777495711513,-0.071,0.883,-0.662,45.954,-192.107,55.252,123.023,-1.909,1.106,205.109,1,1,3.266
1777495711526,-0.048,0.890,-0.668,50.282,-162.420,41.534,124.062,-0.725,1.114,175.025,1,1,3.253
1777495711542,-0.032,0.905,-0.680,59.977,-124.076,28.740,124.829,-0.085,1.132,140.777,1,1,3.269
1777495711556,-0.030,0.915,-0.653,71.053,-87.237,22.328,125.007,0.345,1.124,114.706,1,1,3.251
1777495711570,0.371,0.420,-0.387,42.298,-27.122,152.580,127.075,-8.660,0.682,160.641,4,4,5.331
1777495711584,0.196,1.040,-0.298,37.962,-2.237,118.832,121.379,-9.095,1.100,124.768,4,4,3.258
1777495711598,0.395,0.580,-0.016,18.557,4.229,125.137,113.325,-15.889,0.702,126.577,4,4,3.870
1777495711612,0.637,0.807,0.229,-18.015,-22.237,137.672,102.747,-21.653,1.053,140.615,4,4,3.267
1777495711625,-0.259,1.447,-0.312,-10.588,-18.969,88.382,102.588,-13.127,1.503,91.012,4,4,3.267
1777495711642,-0.368,0.584,-0.677,-34.336,-2.282,12.939,112.487,-3.536,0.967,36.764,1,1,7.475
1777495711656,-0.007,1.049,-0.598,-40.954,-2.802,25.069,114.432,-2.490,1.207,48.099,1,1,3.264
1777495711669,-0.249,1.314,-0.488,-40.405,-4.763,11.275,113.333,0.904,1.424,42.218,1,1,3.303
1777495711683,0.031,0.789,-0.552,-12.664,-2.298,33.015,116.481,0.166,0.964,35.435,1,1,3.302
1777495711698,0.004,0.958,-0.524,-5.481,0.618,27.916,117.075,0.062,1.092,28.456,1,1,4.891
1777495711711,-0.023,1.058,-0.482,0.328,0.947,25.489,116.379,0.348,1.162,25.508,1,1,3.949
1777495711725,-0.059,0.970,-0.510,0.847,4.954,28.412,116.745,1.084,1.098,28.853,1,1,3.263
1777495711739,0.039,0.978,-0.492,2.084,5.771,24.412,116.733,0.239,1.095,25.171,1,1,3.269
1777495711752,0.075,0.951,-0.500,3.321,4.893,16.053,117.006,-0.903,1.077,17.108,1,1,3.269
1777495711766,0.062,0.930,-0.501,3.908,3.794,10.130,117.367,-1.567,1.058,11.501,1,1,3.310
1777495711779,0.027,0.916,-0.497,3.534,2.947,8.168,117.668,-1.539,1.042,9.375,1,1,3.894
1777495711795,0.006,0.904,-0.500,2.687,2.275,8.458,118.020,-1.211,1.033,9.161,1,1,5.211
1777495711808,-0.026,0.896,-0.509,1.824,3.061,10.084,118.447,-0.488,1.031,10.695,1,1,3.268
1777495711822,-0.022,0.908,-0.500,0.817,4.099,11.916,118.562,-0.032,1.037,12.628,1,1,3.256
1777495711836,-0.030,0.956,-0.486,2.427,5.336,13.412,118.125,0.410,1.073,14.637,1,1,3.394
1777495711850,0.036,0.959,-0.487,4.588,5.450,13.634,117.796,-0.214,1.076,15.383,1,1,3.897
1777495711864,0.075,0.941,-0.493,5.847,4.061,10.359,117.756,-1.250,1.065,12.569,1,1,3.264
1777495711877,0.071,0.925,-0.515,5.939,2.496,6.916,118.124,-1.949,1.061,9.452,1,1,3.268
1777495711890,0.053,0.924,-0.507,5.611,1.176,4.626,118.290,-2.200,1.055,7.366,1,1,3.255
1777495711904,0.036,0.917,-0.513,4.969,0.328,3.374,118.545,-2.141,1.052,6.016,1,1,3.285
1777495711917,0.027,0.929,-0.504,4.931,0.275,3.076,118.528,-1.953,1.057,5.819,1,1,3.964
1777495711931,0.022,0.932,-0.502,5.405,-0.252,2.870,118.466,-1.743,1.059,6.125,1,1,3.262
1777495711945,0.016,0.937,-0.516,5.740,-0.168,2.298,118.571,-1.501,1.070,6.186,1,1,3.278
1777495711958,0.037,0.922,-0.502,5.863,-0.817,1.656,118.570,-1.635,1.051,6.147,1,1,3.255
1777495711971,0.029,0.932,-0.506,5.450,-1.008,0.863,118.555,-1.618,1.061,5.609,1,1,3.285
1777495711985,0.024,0.922,-0.521,4.863,-1.489,0.344,118.802,-1.527,1.060,5.097,1,1,4.047
1777495711999,0.040,0.916,-0.512,3.985,-1.511,-0.244,118.911,-1.708,1.050,4.269,1,1,3.351
1777495712012,0.041,0.913,-0.521,3.382,-1.695,-0.618,119.130,-1.847,1.052,3.833,1,1,3.262
1777495712026,0.041,0.918,-0.515,2.573,-1.977,-1.076,119.179,-1.951,1.054,3.418,1,1,3.265
1777495712039,0.042,0.900,-0.517,1.771,-2.420,-1.985,119.362,-2.049,1.039,3.596,1,1,3.272
1777495712053,0.064,0.901,-0.503,0.756,-3.214,-2.771,119.308,-2.462,1.034,4.310,1,1,3.928
1777495712067,0.044,0.902,-0.515,-0.244,-3.107,-3.298,119.415,-2.447,1.039,4.537,1,1,3.273
1777495712080,0.025,0.919,-0.511,-0.504,-2.931,-2.931,119.319,-2.149,1.052,4.176,1,1,3.265
1777495712093,0.001,0.921,-0.521,-0.542,-2.092,-1.511,119.367,-1.586,1.058,2.637,1,1,3.262
1777495712107,0.005,0.926,-0.510,-0.427,-1.244,-0.092,119.229,-1.229,1.057,1.319,1,1,3.267
1777495712120,0.017,0.929,-0.519,-0.397,-0.779,0.954,119.224,-1.142,1.064,1.294,4,4,3.919
1777495712134,0.014,0.929,-0.515,-0.153,-0.130,1.397,119.168,-1.036,1.063,1.411,4,4,3.297
1777495712147,0.007,0.922,-0.521,-0.382,0.168,1.809,119.256,-0.863,1.059,1.857,4,4,3.259
1777495712161,0.024,0.913,-0.527,-0.534,0.237,1.282,119.463,-0.981,1.054,1.409,4,4,3.283
1777495712174,0.016,0.911,-0.520,-1.008,0.221,1.008,119.531,-0.958,1.049,1.442,4,4,3.265
1777495712190,0.023,0.904,-0.521,-1.718,-0.214,0.038,119.655,-1.047,1.044,1.731,1,1,4.050
1777495712206,0.042,0.897,-0.518,-2.794,-1.099,-1.870,119.752,-1.391,1.037,3.537,1,1,3.267
1777495712220,0.042,0.896,-0.523,-3.725,-1.740,-3.427,119.890,-1.634,1.038,5.353,1,1,3.269
1777495712234,0.024,0.906,-0.516,-4.618,-2.092,-4.313,119.826,-1.555,1.043,6.656,1,1,4.601
1777495712248,0.027,0.900,-0.514,-5.550,-2.641,-4.885,119.803,-1.536,1.037,7.851,1,1,3.262
1777495712261,0.032,0.913,-0.513,-5.191,-3.496,-6.168,119.684,-1.597,1.048,8.787,1,1,3.968
1777495712275,0.016,0.925,-0.505,-4.763,-3.817,-6.779,119.401,-1.406,1.054,9.122,1,1,3.266
1777495712289,-0.003,0.932,-0.496,-4.015,-4.008,-6.740,119.031,-0.983,1.056,8.810,1,1,3.253
1777495712302,0.002,0.910,-0.510,-4.153,-3.855,-6.527,119.102,-0.750,1.043,8.643,1,1,3.333
1777495712316,0.016,0.908,-0.509,-4.542,-3.435,-6.542,119.144,-0.784,1.041,8.673,1,1,3.259
1777495712330,0.021,0.936,-0.506,-4.298,-3.473,-6.634,118.950,-0.881,1.064,8.634,5,5,3.904
1777495712344,0.015,0.929,-0.508,-3.527,-3.863,-7.534,118.872,-0.864,1.059,9.172,5,5,3.258
1777495712358,-0.005,0.932,-0.490,-3.221,-3.916,-7.786,118.564,-0.552,1.053,9.292,5,5,3.266
1777495712371,-0.008,0.938,-0.505,-3.252,-3.595,-7.458,118.488,-0.289,1.065,8.895,5,5,3.268
1777495712384,-0.014,0.943,-0.496,-2.679,-3.389,-6.130,118.285,-0.002,1.066,7.499,5,5,3.369
1777495712398,-0.016,0.945,-0.497,-2.313,-2.733,-5.260,118.132,0.229,1.068,6.362,5,5,3.986
1777495712412,-0.021,0.936,-0.497,-1.939,-2.435,-4.076,118.091,0.481,1.060,5.129,5,5,3.265
1777495712425,-0.029,0.939,-0.497,-1.985,-1.740,-2.748,118.037,0.767,1.062,3.811,5,5,3.269
1777495712439,-0.014,0.929,-0.498,-1.496,-1.656,-2.137,118.071,0.760,1.054,3.090,5,5,3.276
1777495712452,-0.023,0.929,-0.495,-1.084,-1.473,-2.153,118.069,0.889,1.053,2.825,5,5,3.266
1777495712465,-0.023,0.930,-0.503,-1.282,-1.000,-1.351,118.157,0.981,1.057,2.114,1,1,3.954
1777495712479,-0.016,0.924,-0.502,-1.351,-0.733,-0.542,118.254,0.950,1.052,1.630,1,1,3.263
1777495712493,-0.007,0.926,-0.495,-1.588,-0.405,-0.374,118.216,0.797,1.050,1.681,1,1,3.280
1777495712506,-0.000,0.930,-0.497,-1.382,-0.481,-0.481,118.195,0.589,1.055,1.540,1,1,3.264
1777495712520,-0.010,0.932,-0.504,-1.458,-0.443,-0.947,118.254,0.569,1.060,1.794,1,1,3.262
1777495712533,-0.002,0.925,-0.497,-1.534,-0.267,-1.176,118.256,0.444,1.050,1.951,1,1,4.070
1777495712547,-0.021,0.925,-0.492,-1.893,-0.427,-1.183,118.198,0.627,1.048,2.273,1,1,3.264
1777495712561,-0.021,0.910,-0.502,-2.282,-0.053,-0.405,118.378,0.763,1.039,2.319,1,1,3.276
1777495712574,-0.045,0.921,-0.500,-2.779,0.672,0.641,118.416,1.227,1.049,2.930,1,1,3.279
1777495712588,-0.005,0.917,-0.495,-3.069,0.466,-0.221,118.404,0.965,1.042,3.112,1,1,3.263
1777495712601,0.009,0.941,-0.496,-3.466,-0.191,-1.198,118.246,0.573,1.064,3.672,5,5,3.939
1777495712615,-0.010,0.938,-0.501,-3.137,-0.466,-1.802,118.208,0.556,1.064,3.648,5,5,3.258
1777495712629,-0.015,0.949,-0.501,-3.511,-1.168,-1.962,118.103,0.617,1.073,4.188,5,5,3.282
1777495712642,-0.010,0.970,-0.484,-2.550,-0.916,-0.557,117.679,0.594,1.084,2.766,5,5,3.269
1777495712655,-0.039,0.963,-0.491,-1.916,-1.122,-0.084,117.507,0.989,1.082,2.222,5,5,3.262
1777495712669,-0.043,0.960,-0.495,-1.710,-0.221,2.122,117.440,1.341,1.081,2.734,1,1,3.942
1777495712683,-0.010,0.949,-0.501,-1.420,-0.008,2.550,117.542,1.116,1.073,2.918,1,1,3.293
1777495712697,0.005,0.939,-0.491,-0.779,0.023,2.443,117.557,0.747,1.060,2.564,1,1,4.111
1777495712711,0.010,0.933,-0.483,-0.031,0.000,1.473,117.507,0.397,1.050,1.474,1,1,3.268
1777495712724,-0.031,0.940,-0.482,0.489,-0.244,1.298,117.414,0.744,1.057,1.408,1,1,3.276
1777495712737,0.012,0.924,-0.477,1.260,-0.924,0.336,117.379,0.361,1.040,1.598,1,1,3.946
1777495712751,-0.010,0.912,-0.500,0.832,-1.328,0.183,117.743,0.413,1.040,1.578,1,1,3.286
1777495712765,-0.003,0.923,-0.481,1.412,-2.061,0.344,117.685,0.348,1.041,2.522,1,1,3.969
1777495712779,-0.051,0.916,-0.489,0.954,-1.908,0.573,117.791,1.011,1.039,2.209,1,1,3.248
1777495712792,-0.045,0.922,-0.490,0.450,-1.565,1.519,117.848,1.400,1.045,2.227,1,1,3.264
1777495712806,-0.025,0.930,-0.494,0.710,-1.595,2.733,117.879,1.388,1.053,3.243,1,1,3.904
1777495712820,-0.017,0.928,-0.486,0.252,-1.359,3.008,117.816,1.262,1.048,3.310,1,1,3.259
1777495712833,-0.014,0.929,-0.492,0.069,-1.466,3.069,117.844,1.126,1.052,3.401,1,1,3.276
1777495712846,-0.007,0.928,-0.487,0.275,-1.954,2.695,117.802,0.930,1.048,3.340,1,1,3.251
1777495712861,-0.003,0.928,-0.498,-0.046,-2.053,1.511,117.917,0.722,1.054,2.550,1,1,4.415
1777495712874,0.012,0.927,-0.495,-0.794,-2.321,-0.008,117.972,0.347,1.051,2.453,5,5,3.934
1777495712889,0.014,0.943,-0.491,-0.565,-2.504,-1.924,117.852,0.050,1.063,3.208,5,5,3.565
1777495712902,0.029,0.960,-0.489,0.672,-2.626,-3.649,117.619,-0.384,1.077,4.545,5,5,3.272
1777495712915,0.089,0.983,-0.487,3.901,-4.282,-6.725,117.273,-1.535,1.101,8.876,5,5,3.258
1777495712930,0.171,1.050,-0.485,7.763,-9.092,-19.656,116.602,-3.388,1.169,23.007,5,5,4.733
1777495712944,0.213,1.029,-0.484,12.336,-16.313,-35.076,116.217,-5.345,1.157,40.603,5,5,3.917
1777495712958,0.198,1.099,-0.463,20.305,-22.298,-47.389,115.300,-6.453,1.209,56.172,5,5,3.871
1777495712972,0.388,0.975,-0.583,15.641,-40.366,-12.664,116.804,-9.801,1.200,45.105,5,5,3.264
1777495712985,1.274,1.150,-0.620,16.389,-94.481,71.664,117.214,-19.116,1.825,119.712,5,5,3.257
1777495712998,0.794,1.010,-0.521,36.191,-136.084,93.924,117.241,-23.395,1.387,169.264,5,5,3.290
1777495713012,0.422,0.988,-0.563,27.985,-151.855,78.237,117.907,-22.577,1.213,173.101,4,4,3.921
1777495713026,0.273,0.884,-0.524,26.305,-159.718,66.664,118.659,-20.500,1.063,175.059,4,4,3.284
1777495713039,0.175,0.670,-0.527,9.649,-165.130,50.542,121.235,-18.098,0.870,172.961,4,4,3.265
1777495713053,-0.107,0.658,-0.431,-8.023,-153.069,19.298,121.774,-11.117,0.794,154.489,4,4,3.252
1777495713066,-0.461,0.744,-0.342,-29.084,-108.244,23.733,119.865,-0.171,0.940,114.569,4,4,3.274
1777495713079,-0.457,0.757,-0.428,-29.527,-46.916,67.779,119.765,7.361,0.982,87.561,4,4,3.931
1777495713093,-0.221,0.847,-0.360,-31.244,-8.229,85.198,117.945,9.028,0.946,91.119,4,4,3.307
1777495713107,-0.120,0.854,-0.345,-22.878,4.954,73.397,116.335,8.589,0.928,77.039,4,4,3.260
1777495713120,-0.096,0.782,-0.318,-20.008,2.534,66.931,115.198,8.015,0.850,69.904,4,4,3.265
1777495713133,-0.123,0.811,-0.201,-16.038,-5.916,69.076,112.151,8.118,0.844,71.160,4,4,3.272
1777495713147,-0.290,0.808,-0.079,-10.855,-8.687,67.672,107.676,11.238,0.863,69.085,4,4,3.932
1777495713161,-0.015,1.162,-0.559,-32.176,-40.656,-79.695,109.836,8.378,1.289,95.076,4,4,3.284
1777495713174,-1.370,-0.095,0.010,8.656,-11.649,-71.504,57.518,29.354,1.373,72.962,4,4,3.259
1777495713188,-0.512,1.285,-0.450,6.756,-19.634,5.389,71.513,26.993,1.455,21.451,4,4,3.263
1777495713202,-0.129,0.984,-0.472,1.099,-3.328,14.710,83.428,21.527,1.099,15.122,4,4,3.980
1777495713215,0.130,0.976,-0.495,4.756,0.718,7.198,92.464,13.879,1.102,8.657,5,5,4.016
1777495713229,-0.002,0.996,-0.475,4.305,-0.466,6.260,98.682,10.164,1.104,7.611,5,5,3.288
1777495713243,0.032,0.984,-0.479,4.511,-0.198,4.466,103.347,6.959,1.095,6.351,5,5,3.269
1777495713256,0.005,0.950,-0.477,4.763,-0.542,3.985,106.950,5.012,1.063,6.234,5,5,3.286
1777495713270,0.049,0.928,-0.479,3.870,-0.893,2.458,109.740,2.927,1.045,4.671,5,5,3.265
1777495713283,0.083,0.922,-0.479,2.229,-2.634,-2.649,111.823,0.902,1.042,4.350,5,5,3.897
1777495713297,0.079,0.908,-0.486,0.611,-4.618,-8.427,113.535,-0.524,1.033,9.629,5,5,3.271
1777495713310,0.035,0.924,-0.480,-0.290,-6.023,-12.130,114.594,-0.904,1.042,13.546,5,5,3.250
1777495713325,-0.016,0.940,-0.486,-0.344,-6.267,-12.137,115.333,-0.432,1.058,13.664,5,5,4.120
1777495713338,-0.021,0.936,-0.478,-0.405,-5.198,-10.229,115.799,-0.009,1.052,11.481,5,5,3.275
1777495713351,-0.052,0.930,-0.475,-0.656,-3.847,-6.939,116.140,0.767,1.046,7.961,1,1,3.903
1777495713365,-0.067,0.950,-0.484,-0.504,-2.206,-3.137,116.371,1.529,1.069,3.868,1,1,3.411
1777495713379,-0.054,0.949,-0.480,-0.573,-0.603,0.725,116.492,1.904,1.065,1.103,1,1,3.271
1777495713394,-0.044,0.956,-0.470,-0.244,0.374,4.183,116.405,2.028,1.066,4.207,1,1,4.480
1777495713407,-0.024,0.945,-0.479,0.443,1.000,5.893,116.530,1.837,1.059,5.994,1,1,3.268
1777495713422,-0.016,0.949,-0.475,0.870,1.321,6.771,116.541,1.576,1.062,6.953,1,1,3.998
1777495713436,0.003,0.944,-0.471,1.328,1.252,6.611,116.531,1.111,1.055,6.858,1,1,3.272
1777495713451,0.007,0.941,-0.477,1.420,0.702,5.473,116.632,0.714,1.055,5.698,1,1,4.746
1777495713464,0.010,0.933,-0.476,1.176,0.458,3.962,116.738,0.377,1.048,4.158,1,1,3.270
1777495713478,0.027,0.933,-0.472,1.313,-0.527,1.687,116.758,-0.126,1.046,2.202,1,1,3.258
1777495713492,0.022,0.927,-0.483,1.244,-0.885,-0.481,116.967,-0.421,1.045,1.601,1,1,5.222
1777495713506,0.017,0.922,-0.470,1.053,-1.321,-1.771,116.976,-0.555,1.035,2.447,1,1,3.266
1777495713520,0.004,0.925,-0.476,0.885,-1.786,-2.641,117.049,-0.464,1.040,3.309,1,1,3.293
1777495713533,-0.011,0.926,-0.482,0.725,-1.847,-2.122,117.174,-0.168,1.044,2.906,1,1,3.268
1777495713547,-0.021,0.930,-0.475,0.794,-1.733,-0.962,117.139,0.188,1.045,2.135,1,1,3.266
1777495713560,-0.019,0.937,-0.482,0.992,-1.244,0.435,117.159,0.410,1.054,1.650,1,1,3.958
1777495713574,-0.019,0.933,-0.470,1.168,-0.672,1.840,117.039,0.585,1.045,2.280,1,1,3.257
1777495713587,-0.010,0.947,-0.479,1.191,-0.427,2.832,116.978,0.566,1.061,3.102,1,1,3.317
1777495713601,-0.003,0.941,-0.471,1.229,-0.588,3.107,116.869,0.460,1.052,3.392,1,1,3.265
1777495713614,0.003,0.932,-0.485,0.809,-0.351,2.656,117.038,0.289,1.051,2.799,1,1,3.252
1777495713627,0.006,0.940,-0.482,0.870,-0.718,1.954,117.069,0.128,1.056,2.256,1,1,3.932
1777495713642,0.014,0.933,-0.484,0.557,-0.985,1.221,117.167,-0.111,1.051,1.665,1,1,3.261
1777495713655,0.007,0.933,-0.485,0.595,-1.092,0.634,117.252,-0.189,1.052,1.396,1,1,3.285
1777495713668,0.003,0.936,-0.472,0.664,-1.183,0.244,117.121,-0.185,1.048,1.379,1,1,3.259
1777495713682,0.000,0.935,-0.493,0.885,-1.313,0.038,117.305,-0.135,1.057,1.584,1,1,3.255
1777495713695,-0.004,0.942,-0.471,1.084,-1.092,0.565,117.104,-0.037,1.053,1.639,1,1,3.942
1777495713709,-0.001,0.930,-0.476,1.809,-1.366,0.412,117.099,-0.013,1.044,2.304,1,1,3.262
1777495713722,-0.009,0.927,-0.475,1.573,-1.153,0.824,117.109,0.121,1.042,2.117,1,1,3.314
1777495713736,-0.005,0.928,-0.479,1.099,-1.038,0.985,117.156,0.164,1.044,1.804,1,1,3.347
1777495713749,0.004,0.933,-0.481,1.015,-1.061,1.099,117.193,0.059,1.050,1.834,1,1,3.277
1777495713763,0.004,0.931,-0.481,0.786,-1.099,0.687,117.228,-0.015,1.048,1.516,1,1,3.942
1777495713777,0.007,0.931,-0.490,0.458,-1.206,0.427,117.372,-0.111,1.052,1.359,1,1,3.263
1777495713790,0.002,0.936,-0.477,0.573,-1.168,0.450,117.271,-0.110,1.050,1.376,1,1,3.284
1777495713803,0.009,0.940,-0.481,0.794,-1.504,-0.115,117.223,-0.206,1.056,1.704,1,1,3.252
1777495713817,0.004,0.936,-0.477,0.557,-1.420,-0.145,117.166,-0.204,1.051,1.532,1,1,3.265
1777495713830,0.005,0.938,-0.478,1.122,-1.496,-0.176,117.122,-0.221,1.052,1.878,1,1,3.854
1777495713844,-0.001,0.933,-0.488,1.252,-1.588,-0.305,117.254,-0.147,1.053,2.045,1,1,3.244
1777495713857,-0.008,0.945,-0.479,1.298,-1.511,0.267,117.149,0.007,1.059,2.010,1,1,3.261
1777495713871,-0.013,0.935,-0.483,1.504,-1.412,0.649,117.194,0.203,1.052,2.163,1,1,3.246
1777495713884,0.001,0.936,-0.483,1.718,-1.527,0.565,117.226,0.130,1.053,2.366,1,1,3.306
1777495713898,-0.010,0.925,-0.489,2.023,-1.588,0.969,117.395,0.243,1.046,2.748,4,4,3.932
1777495713912,-0.005,0.930,-0.489,1.893,-1.412,1.221,117.483,0.253,1.050,2.659,4,4,3.274
1777495713925,-0.003,0.926,-0.490,1.267,-1.611,1.435,117.595,0.235,1.047,2.502,4,4,3.269
1777495713939,0.002,0.935,-0.482,1.137,-1.481,0.985,117.513,0.136,1.052,2.111,4,4,3.270
1777495713952,0.007,0.925,-0.487,1.137,-1.534,0.618,117.583,-0.006,1.046,2.008,4,4,3.279
1777495713965,0.008,0.929,-0.487,0.718,-1.885,0.244,117.606,-0.116,1.049,2.032,4,4,3.935
1777495713979,0.002,0.934,-0.490,0.641,-1.695,-0.244,117.623,-0.120,1.055,1.828,4,4,3.266
1777495713993,-0.002,0.934,-0.482,0.458,-1.603,-0.046,117.540,-0.055,1.051,1.668,4,4,3.265
1777495714006,-0.006,0.930,-0.489,0.534,-1.450,0.252,117.587,0.053,1.051,1.566,4,4,3.278
1777495714020,-0.010,0.938,-0.497,0.282,-0.992,0.656,117.670,0.177,1.062,1.223,4,4,3.283
1777495714033,-0.002,0.934,-0.485,0.145,-1.191,0.672,117.608,0.155,1.053,1.375,4,4,3.925
1777495714047,-0.002,0.930,-0.483,0.206,-1.038,0.382,117.565,0.149,1.048,1.125,4,4,3.278
1777495714060,-0.015,0.935,-0.477,0.237,-0.740,1.023,117.422,0.325,1.050,1.285,4,4,3.266
1777495714074,-0.035,0.938,-0.475,0.611,0.038,2.992,117.268,0.758,1.052,3.054,4,4,3.266
1777495714087,-0.018,0.940,-0.490,0.534,0.908,4.740,117.344,0.813,1.060,4.856,4,4,3.280
1777495714100,0.006,0.925,-0.487,0.740,1.176,5.382,117.457,0.500,1.045,5.558,4,4,3.929
1777495714114,-0.003,0.915,-0.480,0.511,1.420,5.244,117.515,0.409,1.034,5.457,4,4,3.271
1777495714128,-0.031,0.919,-0.485,0.427,1.954,6.687,117.597,0.767,1.039,6.980,4,4,3.266
1777495714141,-0.021,0.935,-0.499,0.344,2.489,7.947,117.725,0.867,1.060,8.334,4,4,3.254
1777495714155,-0.005,0.936,-0.481,0.511,2.626,8.084,117.588,0.701,1.052,8.515,4,4,3.276
1777495714168,0.036,0.939,-0.497,0.435,2.000,6.748,117.665,-0.011,1.063,7.052,4,4,3.934
1777495714182,0.036,0.934,-0.480,0.618,1.313,4.855,117.537,-0.544,1.050,5.067,4,4,3.281
1777495714195,0.030,0.933,-0.486,0.458,0.763,3.511,117.526,-0.842,1.053,3.623,4,4,3.265
1777495714209,0.017,0.935,-0.484,0.076,0.542,2.718,117.485,-0.866,1.053,2.772,4,4,3.263
1777495714222,0.009,0.936,-0.479,-0.130,0.519,2.679,117.388,-0.762,1.052,2.732,4,4,3.269
1777495714236,0.015,0.934,-0.484,-0.290,0.305,2.412,117.385,-0.778,1.052,2.449,4,4,4.022
1777495714250,0.010,0.935,-0.485,-0.344,0.450,2.397,117.392,-0.712,1.053,2.463,4,4,3.328
1777495714263,0.015,0.937,-0.490,-0.473,0.389,2.427,117.451,-0.737,1.058,2.504,4,4,3.276
1777495714276,0.017,0.934,-0.486,-0.656,0.305,2.023,117.461,-0.786,1.053,2.149,4,4,3.269
1777495714290,0.016,0.935,-0.488,-0.695,0.000,1.641,117.491,-0.810,1.054,1.782,4,4,3.265
1777495714303,0.017,0.934,-0.481,-0.397,0.130,1.084,117.423,-0.843,1.051,1.162,1,1,3.887
1777495714317,0.017,0.934,-0.481,-0.336,-0.328,0.679,117.382,-0.860,1.051,0.826,1,1,3.283
1777495714331,0.030,0.930,-0.488,-0.328,-0.313,0.366,117.463,-1.063,1.051,0.583,1,1,3.253
1777495714344,0.018,0.942,-0.480,-0.206,-0.802,0.038,117.342,-1.037,1.057,0.828,1,1,3.270
1777495714357,0.017,0.935,-0.485,-0.069,-0.809,0.168,117.356,-1.004,1.053,0.829,1,1,3.259
1777495714371,0.021,0.936,-0.488,0.092,-0.802,0.168,117.412,-1.037,1.056,0.824,1,1,3.894
1777495714385,0.011,0.935,-0.488,0.176,-0.985,0.214,117.447,-0.915,1.055,1.023,1,1,3.287
1777495714398,0.014,0.935,-0.484,0.344,-0.786,0.038,117.432,-0.879,1.053,0.859,1,1,3.451
1777495714412,0.008,0.940,-0.488,0.321,-0.786,0.282,117.429,-0.760,1.059,0.895,1,1,3.278
1777495714425,0.012,0.936,-0.494,0.359,-0.748,0.595,117.533,-0.729,1.059,1.021,1,1,3.264
1777495714438,0.016,0.934,-0.489,0.573,-0.664,0.649,117.558,-0.772,1.055,1.091,1,1,3.932
1777495714452,0.014,0.941,-0.485,0.550,-0.649,0.763,117.480,-0.767,1.058,1.143,1,1,3.275
1777495714466,0.013,0.936,-0.496,0.725,-0.855,0.870,117.598,-0.745,1.060,1.419,1,1,3.262
1777495714479,0.020,0.938,-0.491,0.779,-0.840,0.580,117.606,-0.840,1.058,1.284,1,1,3.278
1777495714492,0.015,0.933,-0.481,0.626,-1.015,0.389,117.520,-0.833,1.050,1.255,1,1,3.249
1777495714506,0.014,0.935,-0.480,0.794,-1.267,-0.221,117.431,-0.820,1.052,1.512,1,1,3.873
1777495714520,0.018,0.941,-0.487,0.924,-1.672,-0.321,117.419,-0.859,1.060,1.937,1,1,3.260
1777495714533,0.013,0.942,-0.486,0.847,-1.527,-0.359,117.381,-0.823,1.060,1.783,1,1,3.246
1777495714546,0.009,0.939,-0.492,1.206,-1.908,-0.382,117.462,-0.736,1.060,2.290,1,1,3.266
1777495714560,0.019,0.938,-0.494,1.069,-1.756,-0.153,117.550,-0.815,1.061,2.061,1,1,3.257
1777495714573,0.017,0.938,-0.491,1.382,-2.092,-0.206,117.571,-0.848,1.059,2.515,1,1,3.909
1777495714587,0.010,0.943,-0.485,1.702,-2.137,-0.183,117.478,-0.772,1.060,2.739,1,1,3.413
1777495714601,0.010,0.947,-0.482,2.160,-1.954,-0.176,117.347,-0.709,1.063,2.918,1,1,3.248
1777495714614,0.017,0.951,-0.490,2.382,-2.053,-0.275,117.325,-0.762,1.070,3.157,1,1,3.278
1777495714627,-0.002,0.954,-0.477,3.000,-2.046,-0.076,117.120,-0.520,1.067,3.632,1,1,3.246
1777495714641,0.017,0.961,-0.486,4.344,-1.458,0.282,117.038,-0.626,1.077,4.590,4,4,3.878
1777495714655,0.010,0.967,-0.488,5.947,-1.198,1.351,116.965,-0.600,1.083,6.215,4,4,3.252
1777495714668,0.006,0.977,-0.491,8.031,-0.679,1.908,116.888,-0.521,1.093,8.282,4,4,3.254
1777495714681,0.039,1.032,-0.485,12.252,-0.336,1.641,116.421,-0.907,1.141,12.366,4,4,3.254
1777495714695,0.047,1.157,-0.489,20.229,-1.672,1.076,115.469,-1.239,1.257,20.326,4,4,3.248
1777495714708,0.186,1.302,-0.496,29.382,-4.901,-5.740,114.223,-2.962,1.405,30.336,4,4,3.881
1777495714722,-0.064,1.552,-0.488,70.282,0.939,0.695,112.392,-1.549,1.628,70.292,4,4,3.259
1777495714735,0.219,1.530,-0.536,87.702,-2.450,17.282,111.557,-3.207,1.635,89.422,4,4,3.246
1777495714749,0.147,1.912,-0.518,106.748,-8.473,-9.076,109.828,-3.489,1.987,107.468,4,4,3.301
1777495714762,0.131,1.789,-0.503,143.649,-8.092,-9.107,108.711,-3.638,1.863,144.164,4,4,3.269
1777495714775,0.134,1.964,-0.485,172.786,-14.687,-3.710,107.406,-3.678,2.028,173.449,4,4,3.960
1777495714790,0.122,1.930,-0.444,208.374,-21.626,-2.221,106.202,-3.637,1.985,209.505,4,4,3.267
1777495714803,0.164,1.779,-0.421,236.412,-31.992,-8.786,105.425,-4.042,1.836,238.729,4,4,3.262
1777495714816,0.286,1.465,-0.451,250.130,-43.496,-30.687,105.882,-5.806,1.559,255.731,4,4,3.261
1777495714830,0.216,1.449,-0.452,250.130,-41.023,-59.557,106.273,-6.429,1.533,260.374,4,4,3.246
1777495714843,0.296,1.109,-0.520,250.130,-45.191,-29.023,108.663,-8.365,1.260,255.831,4,4,3.881
1777495714857,0.168,0.635,-0.599,250.130,-50.473,-33.122,115.334,-9.056,0.889,257.312,4,4,3.257
1777495714870,0.101,0.672,-0.582,243.198,-50.023,-43.809,119.543,-8.353,0.895,252.125,4,4,3.259
1777495714884,0.136,0.396,-0.544,231.969,-55.794,-39.824,126.132,-9.195,0.686,241.886,4,4,3.248
1777495714897,0.066,0.237,-0.445,207.038,-58.664,-59.275,133.106,-8.729,0.509,223.203,4,4,3.251
1777495714910,-0.043,0.217,-0.276,178.160,-57.435,-80.252,135.467,-4.472,0.353,203.667,4,4,3.950
1777495714924,-0.205,-0.133,-0.432,131.504,-40.382,-79.092,54.854,3.328,0.496,158.680,4,4,3.257
1777495714938,-0.253,-0.320,-0.226,57.084,-19.374,-48.618,6.210,11.304,0.466,77.445,4,4,3.481
1777495714951,-0.140,-0.167,-0.146,-12.519,-1.344,-11.748,-30.902,16.959,0.262,17.221,4,4,3.249
1777495714965,-0.054,0.101,-0.089,-62.038,8.168,19.557,12.982,18.288,0.145,65.559,4,4,3.258
1777495714978,0.013,0.331,-0.058,-88.771,11.015,35.481,36.471,12.739,0.336,96.232,4,4,3.877
1777495714992,0.002,0.490,-0.067,-99.969,12.634,42.153,53.048,9.229,0.495,109.226,4,4,3.248
1777495715005,-0.027,0.445,-0.081,-109.962,14.321,42.298,65.806,7.671,0.453,118.684,4,4,3.254
1777495715019,-0.047,0.383,-0.084,-127.985,16.580,39.443,75.677,7.452,0.394,134.947,4,4,3.262
1777495715032,-0.054,0.379,-0.083,-151.519,19.435,34.420,82.871,7.586,0.392,156.590,4,4,3.247
1777495715045,-0.033,0.460,-0.082,-175.962,22.725,28.656,87.534,6.625,0.469,179.723,4,4,3.876
1777495715059,0.004,0.548,-0.097,-198.244,25.611,26.504,90.905,4.727,0.556,201.641,4,4,3.350
1777495715073,0.038,0.629,-0.131,-217.321,28.137,28.969,93.834,2.528,0.644,221.041,4,4,3.271
1777495715086,0.043,0.775,-0.190,-231.672,31.947,35.466,96.513,1.008,0.799,236.538,4,4,3.248
1777495715100,0.059,0.908,-0.260,-240.702,35.023,38.802,99.063,-0.224,0.946,246.312,4,4,3.254
1777495715113,0.078,1.028,-0.356,-244.962,37.191,35.695,101.772,-1.273,1.090,250.327,5,5,3.880
1777495715127,0.104,1.168,-0.437,-245.061,38.282,30.832,104.131,-2.214,1.251,249.942,5,5,3.261
1777495715140,0.116,1.284,-0.539,-240.466,40.183,31.733,106.464,-2.908,1.397,245.856,5,5,3.266
1777495715154,0.139,1.319,-0.637,-236.710,43.649,35.969,108.984,-3.583,1.471,243.373,5,5,3.246
1777495715167,0.120,1.291,-0.709,-239.840,50.344,44.779,111.632,-3.870,1.478,249.124,5,5,3.261
1777495715180,0.099,1.326,-0.751,-248.023,59.038,53.504,113.761,-3.832,1.527,260.506,5,5,3.872
1777495715194,0.093,1.378,-0.790,-250.137,66.771,56.771,115.404,-3.705,1.591,265.047,5,5,3.252
1777495715208,0.107,1.464,-0.833,-250.137,71.298,53.206,116.551,-3.685,1.688,265.486,5,5,3.259
1777495715221,0.124,1.546,-0.909,-248.924,70.824,49.992,117.607,-3.756,1.798,263.587,5,5,3.260
1777495715234,0.185,1.547,-0.987,-233.756,62.893,43.756,118.942,-4.297,1.844,245.992,5,5,3.255
1777495715248,0.249,1.414,-1.063,-216.870,50.374,35.679,121.102,-5.301,1.787,225.484,5,5,3.872
1777495715262,0.268,1.275,-1.122,-198.779,35.046,32.809,123.871,-6.294,1.720,204.493,5,5,3.304
1777495715275,0.235,1.187,-1.165,-177.847,22.618,35.817,126.730,-6.767,1.679,182.823,5,5,3.275
1777495715289,0.201,1.075,-1.143,-152.382,11.740,34.771,129.441,-6.916,1.582,156.739,5,5,3.417
1777495715302,0.075,1.068,-1.156,-119.618,2.305,42.840,131.553,-5.789,1.576,127.079,5,5,3.248
1777495715315,-0.050,0.978,-1.242,-80.626,-6.206,50.794,134.321,-3.740,1.581,95.494,5,5,3.886
1777495715329,-0.286,0.880,-1.254,-41.496,-8.809,36.595,137.195,0.131,1.559,56.025,5,5,3.258
1777495715343,-0.435,0.779,-1.260,-10.046,-5.809,5.267,140.187,4.514,1.543,12.744,5,5,3.252
1777495715356,-0.425,0.813,-1.259,20.527,-1.710,-28.107,142.067,7.569,1.558,34.846,5,5,3.249
1777495715369,-0.328,0.938,-1.233,57.794,0.038,-51.947,142.251,8.749,1.584,77.708,5,5,3.258
1777495715383,1.677,1.909,2.462,126.740,-34.496,-82.382,114.031,-1.258,3.538,155.048,1,1,3.880
1777495715397,0.113,1.098,0.273,198.725,-6.809,-87.069,103.765,-2.452,1.137,217.069,1,1,3.259
1777495715410,0.246,0.839,-0.232,194.603,-23.473,-99.176,104.230,-6.050,0.905,219.675,1,1,3.251
1777495715423,-0.436,1.048,-0.119,193.511,-18.878,-72.153,102.132,1.651,1.141,207.386,1,1,3.288
1777495715437,0.031,0.881,-0.347,187.176,-33.519,-54.649,104.664,0.691,0.948,197.850,1,1,3.336
1777495715450,-0.061,0.995,-0.387,172.855,-42.634,-40.664,106.441,1.388,1.069,182.620,1,1,3.892
1777495715464,-0.128,1.047,-0.332,168.931,-27.160,-18.931,106.758,2.808,1.106,172.145,1,1,3.267
1777495715478,-0.104,0.861,-0.518,152.931,-20.397,-11.802,110.606,3.650,1.010,154.736,1,1,3.253
1777495715491,-0.112,0.949,-0.541,138.542,-14.954,-8.229,113.050,4.249,1.098,139.589,1,1,3.254
1777495715504,0.015,0.702,-0.755,104.374,-10.580,-10.435,119.535,2.874,1.031,105.427,1,1,3.262
1777495715518,-0.081,0.810,-0.615,78.015,1.458,-14.779,121.611,3.324,1.021,79.416,1,1,3.917
1777495715532,0.015,0.862,-0.553,61.786,0.908,-16.313,121.894,2.205,1.024,63.910,1,1,3.291
1777495715545,0.156,0.437,-0.642,30.092,-11.817,-15.634,128.338,-1.454,0.792,35.910,1,1,3.259
1777495715559,-0.060,0.788,-0.584,23.122,-8.565,-7.969,127.858,-0.122,0.983,25.913,1,1,3.251
1777495715572,-0.020,0.873,-0.542,17.427,-9.580,-9.214,126.224,0.205,1.028,21.918,1,1,3.398
1777495715585,-0.053,0.876,-0.527,11.595,-6.756,-3.420,124.815,0.951,1.024,13.849,1,1,3.930
1777495715599,-0.078,0.919,-0.520,8.939,-4.802,0.756,123.373,1.841,1.059,10.175,1,1,3.286
1777495715613,-0.133,0.912,-0.543,6.412,-0.328,9.183,122.670,3.267,1.070,11.205,1,1,3.269
1777495715627,-0.057,0.958,-0.496,6.885,2.733,13.595,121.235,3.197,1.080,15.483,1,1,3.992
1777495715640,-0.039,0.934,-0.485,6.863,4.756,15.756,120.216,2.900,1.053,17.831,1,1,3.280
1777495715654,-0.009,0.904,-0.507,6.084,5.542,16.130,119.970,2.255,1.037,18.108,1,1,3.918
1777495715668,0.071,0.893,-0.523,4.634,5.244,14.237,120.073,0.589,1.037,15.864,1,1,3.265
1777495715681,0.104,0.881,-0.521,3.794,3.649,10.321,120.221,-1.142,1.029,11.585,1,1,3.256
1777495715694,0.059,0.907,-0.508,2.511,1.595,5.435,119.962,-1.712,1.041,6.196,1,1,3.261
1777495715708,0.063,0.906,-0.503,0.977,-0.420,-0.191,119.710,-2.189,1.038,1.080,1,1,3.260
1777495715721,0.047,0.909,-0.505,-0.183,-2.176,-3.954,119.537,-2.299,1.041,4.517,1,1,3.920
1777495715735,-0.022,0.930,-0.507,-0.939,-2.336,-3.618,119.278,-1.353,1.060,4.408,1,1,3.277
1777495715749,-0.045,0.926,-0.507,-1.672,-1.115,-0.550,119.119,-0.322,1.056,2.083,1,1,3.262
1777495715763,-0.050,0.948,-0.494,-1.687,0.481,3.412,118.688,0.489,1.070,3.837,1,1,4.249
1777495715776,-0.046,0.955,-0.500,-0.626,1.962,7.344,118.404,1.016,1.079,7.627,1,1,3.286
1777495715790,-0.032,0.930,-0.501,-0.145,3.328,9.809,118.379,1.213,1.057,10.359,1,1,4.034
1777495715804,-0.016,0.922,-0.503,-0.321,4.137,11.092,118.451,1.126,1.050,11.842,1,1,3.260
1777495715817,0.028,0.932,-0.497,0.244,3.718,9.718,118.351,0.407,1.057,10.407,1,1,3.247
1777495715832,0.029,0.914,-0.506,-0.504,2.947,7.809,118.522,-0.126,1.045,8.362,1,1,3.978
1777495715845,0.010,0.915,-0.508,-1.198,2.634,7.489,118.666,-0.240,1.046,8.028,1,1,3.243
1777495715858,0.022,0.922,-0.502,-1.908,2.282,6.519,118.641,-0.499,1.050,7.166,1,1,3.881
1777495715872,0.023,0.928,-0.490,-1.718,1.702,5.405,118.417,-0.710,1.050,5.921,1,1,3.253
1777495715886,0.016,0.925,-0.498,-2.389,1.634,5.038,118.386,-0.752,1.051,5.810,1,1,3.249
1777495715899,0.038,0.927,-0.495,-2.748,1.061,3.618,118.316,-1.113,1.052,4.666,1,1,3.280
1777495715912,0.028,0.938,-0.491,-2.779,0.275,2.427,118.133,-1.223,1.059,3.700,1,1,3.265
1777495715926,0.040,0.947,-0.488,-1.855,-0.481,0.542,117.905,-1.478,1.066,1.991,1,1,4.013
1777495715942,0.032,0.927,-0.494,-1.740,-1.183,-2.137,117.952,-1.550,1.051,3.000,1,1,4.390
1777495715955,0.025,0.913,-0.497,-1.847,-1.893,-3.336,118.115,-1.505,1.040,4.257,1,1,3.258
1777495715969,0.057,0.944,-0.481,-1.611,-3.069,-6.282,117.816,-1.932,1.061,7.175,1,1,3.277
1777495715982,0.062,0.936,-0.487,-0.374,-4.466,-11.206,117.726,-2.316,1.057,12.069,1,1,3.259
1777495715996,0.058,0.929,-0.490,1.191,-5.771,-15.580,117.743,-2.538,1.052,16.657,1,1,3.963
1777495716010,0.035,0.941,-0.488,2.947,-6.870,-18.550,117.654,-2.358,1.061,19.999,1,1,3.271
1777495716023,0.015,0.945,-0.488,4.405,-7.603,-19.771,117.554,-1.941,1.064,21.636,1,1,3.253
1777495716036,0.000,0.940,-0.491,5.870,-8.962,-19.992,117.565,-1.417,1.060,22.682,1,1,3.278
1777495716050,-0.022,0.950,-0.485,6.954,-9.969,-19.588,117.423,-0.712,1.067,23.053,1,1,3.251
1777495716063,-0.045,0.953,-0.500,7.824,-9.817,-17.573,117.490,0.123,1.077,21.596,1,1,3.937
1777495716077,-0.071,0.935,-0.500,8.076,-8.046,-13.305,117.662,1.118,1.063,17.521,1,1,3.256
1777495716090,-0.071,0.937,-0.509,8.290,-6.542,-8.824,117.889,1.846,1.069,13.762,1,1,3.253
1777495716104,-0.079,0.919,-0.521,7.069,-3.832,-4.901,118.341,2.500,1.060,9.416,1,1,3.285
1777495716117,-0.070,0.899,-0.518,5.847,-2.031,-1.847,118.774,2.865,1.040,6.460,1,1,3.268
1777495716130,-0.047,0.922,-0.512,6.313,-1.489,-0.107,118.855,2.778,1.056,6.487,1,1,3.960
1777495716145,-0.047,0.929,-0.515,6.214,-1.122,1.969,118.889,2.707,1.063,6.614,1,1,3.279
1777495716158,-0.061,0.922,-0.513,5.588,-0.382,4.244,118.949,2.870,1.057,7.027,1,1,3.266
1777495716171,-0.049,0.943,-0.510,6.061,0.786,6.939,118.797,2.803,1.073,9.247,1,1,3.267
1777495716185,-0.030,0.943,-0.517,6.015,1.435,8.634,118.783,2.474,1.076,10.620,1,1,3.254
1777495716198,-0.025,0.929,-0.513,5.855,2.221,10.153,118.815,2.176,1.061,11.929,4,4,3.978
1777495716212,-0.030,0.939,-0.521,5.389,2.435,11.046,118.874,2.014,1.075,12.529,4,4,3.268
1777495716225,0.013,0.933,-0.511,5.366,2.511,12.702,118.833,1.282,1.064,14.016,4,4,3.283
1777495716239,0.012,0.959,-0.491,5.137,1.282,13.336,118.362,0.764,1.078,14.349,4,4,3.299
1777495716252,0.009,1.104,-0.471,13.618,1.282,8.931,116.944,0.438,1.200,16.336,4,4,3.251
1777495716266,0.034,1.091,-0.531,14.015,0.198,15.206,116.674,-0.114,1.214,20.681,4,4,3.929
1777495716281,-0.195,1.505,-0.557,41.931,3.053,12.595,114.953,1.790,1.616,43.889,4,4,4.636
1777495716294,0.006,1.137,-0.568,58.527,5.076,27.847,115.379,1.229,1.271,65.012,4,4,3.300
1777495716308,-0.077,1.212,-0.522,73.153,9.794,37.328,114.821,1.798,1.322,82.708,4,4,3.259
1777495716324,-0.154,1.324,-0.548,82.565,11.366,27.405,114.187,2.967,1.441,87.733,4,4,5.729
1777495716337,-0.089,1.353,-0.513,103.947,13.252,19.947,113.266,3.115,1.450,106.669,4,4,4.099
1777495716351,-0.043,1.229,-0.545,113.267,12.656,21.603,113.445,2.765,1.345,116.001,4,4,3.249
1777495716365,0.049,1.277,-0.539,126.794,10.427,21.527,113.290,1.470,1.387,129.030,4,4,3.265
1777495716378,0.125,1.224,-0.552,140.206,6.107,19.511,113.553,-0.358,1.348,141.689,4,4,3.256
1777495716391,0.207,1.250,-0.552,153.092,-1.305,12.298,113.633,-2.592,1.382,153.590,4,4,3.273
1777495716405,0.317,1.200,-0.583,167.618,-8.847,0.611,114.242,-5.501,1.371,167.853,4,4,3.924
1777495716420,0.346,1.208,-0.596,181.504,-20.267,-15.282,114.783,-7.903,1.391,183.270,4,4,4.518
1777495716433,0.413,1.218,-0.581,196.832,-30.885,-27.328,114.980,-10.363,1.411,201.106,4,4,3.268
