timestamp,ax,ay,az,gx,gy,gz,roll,pitch_k,acc_norm,gyro_norm,classe_prevista_raw,classe_prevista,delay_ms
1777577924800,-0.0981445,0.957031,-0.485596,-0.0830534,-0.0380153,-0.0296183,111.337,4.97649,1.07766,0.0960223,0,0,4.124
1777577924817,-0.117,0.973,-0.480,-0.055,-0.019,-0.010,113.746,5.549,1.092,0.059,0,0,5.932
1777577924831,-0.095,0.967,-0.479,-0.037,-0.011,0.011,114.607,5.378,1.083,0.040,0,0,3.352
1777577924844,-0.089,0.954,-0.472,-0.027,-0.005,0.022,115.033,5.234,1.068,0.035,0,0,3.320
1777577924858,-0.082,0.946,-0.479,-0.020,-0.003,0.029,115.399,5.075,1.063,0.035,0,0,3.242
1777577924872,-0.080,0.936,-0.480,-0.016,0.002,0.034,115.697,4.949,1.055,0.037,0,0,3.974
1777577924885,-0.071,0.939,-0.479,-0.013,-0.001,0.032,115.888,4.786,1.057,0.034,0,0,3.259
1777577924899,-0.052,0.943,-0.479,-0.009,-0.002,0.020,116.020,4.530,1.059,0.022,0,0,3.260
1777577924912,-0.057,0.931,-0.471,-0.006,-0.006,0.010,116.113,4.369,1.045,0.013,0,0,3.316
1777577924925,-0.058,0.927,-0.482,-0.006,-0.011,-0.000,116.257,4.246,1.046,0.013,0,0,3.275
1777577924940,-0.037,0.927,-0.480,-0.010,-0.017,-0.018,116.367,4.029,1.045,0.027,0,0,4.254
1777577924953,-0.034,0.924,-0.477,-0.015,-0.021,-0.038,116.454,3.836,1.040,0.046,0,0,3.263
1777577924967,-0.048,0.927,-0.477,-0.017,-0.030,-0.052,116.520,3.734,1.044,0.062,0,0,3.264
1777577924980,-0.058,0.933,-0.472,-0.019,-0.030,-0.061,116.543,3.689,1.047,0.070,0,0,3.256
1777577924993,-0.040,0.949,-0.479,-0.016,-0.039,-0.071,116.561,3.572,1.064,0.082,0,0,3.253
1777577925007,-0.066,0.955,-0.483,-0.008,-0.047,-0.081,116.579,3.569,1.072,0.094,0,0,3.262
1777577925020,-0.058,0.957,-0.488,-0.003,-0.053,-0.083,116.611,3.536,1.076,0.098,0,0,3.249
1777577925033,-0.058,0.938,-0.489,-0.003,-0.071,-0.072,116.670,3.509,1.060,0.101,0,0,3.285
1777577925047,-0.010,0.932,-0.494,-0.009,-0.128,-0.011,116.750,3.319,1.055,0.129,0,0,3.256
1777577925060,0.213,0.974,-0.512,-0.010,-0.335,0.182,116.811,2.439,1.120,0.381,0,0,3.294
1777577925073,0.422,0.959,-0.539,0.014,-0.712,0.447,116.962,1.039,1.178,0.841,0,0,3.256
1777577925087,0.429,0.968,-0.567,0.048,-1.163,0.685,117.160,-0.240,1.201,1.350,0,0,3.260
1777577925100,0.111,0.872,-0.636,0.090,-1.476,0.814,117.669,-0.561,1.085,1.687,0,0,3.263
1777577925114,-0.212,0.888,-0.676,0.088,-1.572,0.758,118.202,0.068,1.136,1.748,0,0,3.258
1777577925127,-0.465,0.977,-0.735,0.184,-1.465,0.504,118.679,1.198,1.308,1.560,0,0,3.298
1777577925140,-0.600,0.885,-0.781,0.286,-1.217,0.235,119.360,2.571,1.324,1.272,0,0,3.419
1777577925154,-0.476,0.804,-0.757,0.320,-0.953,0.075,120.091,3.660,1.202,1.008,0,0,3.267
1777577925167,-0.448,0.772,-0.692,0.295,-0.625,0.093,120.700,4.679,1.129,0.697,0,0,3.274
1777577925181,-0.177,0.660,-0.486,0.055,-0.379,0.276,120.989,5.063,0.839,0.472,0,0,3.259
1777577925194,-0.222,0.780,-0.298,0.035,-0.159,0.133,120.482,5.558,0.864,0.210,4,4,3.979
1777577925208,-0.102,0.799,-0.061,-0.140,-0.028,0.112,119.185,5.641,0.808,0.182,4,4,3.259
1777577925221,-0.133,0.842,0.124,-0.283,0.096,0.071,117.339,5.799,0.861,0.307,4,4,3.282
1777577925235,0.008,0.968,0.171,-0.452,0.198,0.217,115.520,5.496,0.983,0.538,4,4,3.258
1777577925248,0.392,0.707,-0.553,0.028,0.032,0.067,116.123,4.094,0.979,0.079,4,4,3.277
1777577925261,-0.040,0.888,-0.548,0.053,0.001,-0.000,116.389,4.003,1.044,0.053,4,4,3.912
1777577925275,0.084,1.007,-0.438,-0.002,-0.036,-0.095,116.252,3.605,1.102,0.101,4,4,3.272
1777577925289,-0.003,0.975,-0.429,0.037,-0.052,-0.156,116.135,3.442,1.065,0.168,4,4,3.271
1777577925307,-0.061,0.912,-0.494,0.014,-0.063,-0.170,116.244,3.438,1.039,0.182,4,4,7.993
1777577925321,-0.122,0.952,-0.458,0.032,-0.044,-0.131,116.219,3.585,1.064,0.142,4,4,3.476
1777577925334,-0.122,0.937,-0.475,0.028,-0.041,-0.091,116.250,3.725,1.057,0.104,4,4,3.936
1777577925349,-0.139,0.946,-0.465,0.025,-0.021,-0.037,116.246,3.900,1.063,0.049,4,4,3.451
1777577925362,-0.114,0.945,-0.472,0.031,-0.014,-0.009,116.259,4.004,1.062,0.035,4,4,3.408
1777577925376,-0.108,0.927,-0.472,0.027,-0.010,0.011,116.291,4.092,1.046,0.031,4,4,3.409
1777577925389,-0.101,0.932,-0.479,0.031,-0.006,0.026,116.332,4.157,1.053,0.040,4,4,3.382
1777577925403,-0.085,0.919,-0.474,0.027,-0.006,0.028,116.375,4.182,1.037,0.039,1,1,3.914
1777577925417,-0.084,0.923,-0.481,0.024,-0.005,0.029,116.427,4.202,1.044,0.038,1,1,3.524
1777577925431,-0.055,0.931,-0.475,0.024,-0.013,0.010,116.455,4.148,1.046,0.029,1,1,3.253
1777577925448,-0.084,0.937,-0.466,0.023,-0.014,0.003,116.454,4.168,1.049,0.027,1,1,3.794
1777577925463,-0.071,0.928,-0.479,0.020,-0.016,-0.002,116.493,4.156,1.047,0.026,1,1,4.667
1777577925477,-0.090,0.940,-0.479,0.020,-0.014,-0.002,116.516,4.189,1.059,0.025,1,1,3.745
1777577925491,-0.068,0.929,-0.476,0.024,-0.015,-0.009,116.543,4.168,1.046,0.029,1,1,3.248
1777577925504,-0.060,0.912,-0.479,0.023,-0.021,-0.018,116.594,4.130,1.032,0.036,1,1,3.233
1777577925517,-0.102,0.916,-0.479,0.020,-0.021,-0.009,116.638,4.197,1.039,0.030,1,1,3.233
1777577925531,-0.089,0.930,-0.472,0.018,-0.018,-0.004,116.651,4.227,1.047,0.026,1,1,3.227
1777577925544,-0.076,0.924,-0.482,0.018,-0.023,-0.003,116.690,4.226,1.045,0.030,1,1,3.712
1777577925558,-0.105,0.941,-0.477,0.018,-0.019,0.004,116.698,4.291,1.061,0.027,1,1,3.228
1777577925571,-0.073,0.930,-0.489,0.016,-0.017,0.004,116.744,4.278,1.053,0.024,1,1,3.263
1777577925585,-0.090,0.943,-0.474,0.016,-0.019,0.007,116.741,4.303,1.059,0.026,1,1,3.228
1777577925598,-0.083,0.949,-0.472,0.015,-0.020,0.002,116.728,4.312,1.063,0.025,1,1,3.234
1777577925611,-0.081,0.951,-0.478,0.012,-0.025,-0.007,116.726,4.314,1.067,0.029,1,1,3.711
1777577925625,-0.088,0.949,-0.480,0.012,-0.019,-0.008,116.731,4.331,1.067,0.024,1,1,3.237
1777577925638,-0.097,0.938,-0.479,0.014,-0.014,-0.005,116.745,4.373,1.058,0.020,1,1,3.236
1777577925652,-0.121,0.940,-0.489,0.010,-0.006,0.013,116.777,4.468,1.067,0.017,1,1,3.573
1777577925665,-0.097,0.948,-0.482,0.008,0.001,0.025,116.786,4.502,1.068,0.026,1,1,3.240
1777577925679,-0.092,0.943,-0.478,0.011,0.007,0.033,116.790,4.522,1.061,0.036,1,1,3.706
1777577925692,-0.091,0.927,-0.486,0.007,0.010,0.035,116.828,4.541,1.050,0.038,1,1,3.228
1777577925706,-0.081,0.922,-0.476,0.006,0.009,0.034,116.848,4.536,1.041,0.036,1,1,3.233
1777577925719,-0.072,0.913,-0.482,0.002,0.008,0.030,116.892,4.512,1.035,0.031,1,1,3.229
1777577925732,-0.072,0.929,-0.475,0.001,0.008,0.024,116.900,4.486,1.046,0.025,1,1,3.244
1777577925746,-0.084,0.935,-0.479,-0.003,0.006,0.018,116.909,4.490,1.054,0.019,2,2,3.699
1777577925760,-0.080,0.922,-0.483,-0.007,0.008,0.016,116.942,4.484,1.044,0.019,2,2,3.238
1777577925773,-0.100,0.924,-0.483,-0.010,0.007,0.024,116.970,4.527,1.047,0.027,2,2,3.229
1777577925786,-0.086,0.926,-0.481,-0.015,0.009,0.033,116.990,4.536,1.047,0.038,2,2,3.228
1777577925799,-0.064,0.927,-0.484,-0.016,0.005,0.026,117.016,4.490,1.047,0.031,2,2,3.241
1777577925813,-0.069,0.938,-0.482,-0.022,0.001,0.018,117.024,4.458,1.057,0.029,2,2,3.719
1777577925827,-0.073,0.941,-0.474,-0.021,-0.005,0.008,117.012,4.435,1.056,0.024,2,2,3.268
1777577925840,-0.070,0.939,-0.477,-0.016,-0.007,0.004,117.009,4.408,1.056,0.019,2,2,3.230
1777577925853,-0.083,0.935,-0.472,-0.015,-0.006,0.004,116.998,4.414,1.051,0.017,2,2,3.237
1777577925867,-0.077,0.934,-0.473,-0.013,-0.005,0.006,116.992,4.405,1.050,0.015,2,2,3.231
1777577925880,-0.089,0.939,-0.468,-0.008,-0.004,0.008,116.971,4.423,1.053,0.012,1,1,3.697
1777577925894,-0.076,0.927,-0.475,-0.007,-0.005,0.005,116.978,4.412,1.044,0.010,1,1,3.240
1777577925907,-0.074,0.925,-0.475,-0.004,-0.005,0.003,116.988,4.397,1.042,0.007,1,1,3.228
1777577925920,-0.075,0.928,-0.465,0.001,-0.008,0.002,116.972,4.386,1.041,0.008,1,1,3.248
1777577925934,-0.069,0.930,-0.479,0.003,-0.010,-0.001,116.984,4.359,1.049,0.010,1,1,3.235
1777577925947,-0.077,0.924,-0.469,0.005,-0.011,-0.003,116.982,4.354,1.040,0.013,1,1,3.704
1777577925961,-0.078,0.935,-0.479,0.005,-0.014,-0.006,116.988,4.350,1.054,0.016,1,1,3.239
1777577925974,-0.083,0.924,-0.482,0.007,-0.015,-0.008,117.012,4.358,1.045,0.018,1,1,3.230
1777577925988,-0.073,0.925,-0.479,0.005,-0.015,-0.012,117.028,4.343,1.045,0.019,1,1,3.252
1777577926001,-0.087,0.923,-0.483,0.004,-0.011,-0.009,117.054,4.362,1.046,0.015,1,1,3.229
1777577926014,-0.076,0.929,-0.476,-0.001,-0.010,-0.009,117.058,4.353,1.047,0.014,1,1,3.764
1777577926028,-0.088,0.937,-0.482,-0.001,-0.007,-0.010,117.066,4.370,1.057,0.012,1,1,3.237
1777577926042,-0.078,0.938,-0.477,-0.004,-0.008,-0.009,117.060,4.366,1.055,0.013,1,1,3.232
1777577926055,-0.084,0.929,-0.482,-0.005,-0.011,-0.008,117.075,4.375,1.050,0.014,1,1,3.236
1777577926068,-0.078,0.930,-0.477,-0.006,-0.011,-0.010,117.080,4.370,1.048,0.016,1,1,3.229
1777577926082,-0.092,0.931,-0.470,-0.006,-0.011,-0.011,117.068,4.399,1.047,0.017,2,2,3.730
1777577926095,-0.087,0.929,-0.481,-0.006,-0.014,-0.011,117.081,4.415,1.050,0.018,2,2,3.241
1777577926109,-0.084,0.934,-0.470,-0.007,-0.011,-0.005,117.066,4.424,1.049,0.014,2,2,3.234
1777577926122,-0.090,0.930,-0.475,-0.007,-0.011,-0.005,117.065,4.445,1.048,0.014,2,2,3.227
1777577926135,-0.086,0.933,-0.476,-0.009,-0.012,-0.000,117.063,4.457,1.051,0.015,2,2,3.245
1777577926149,-0.089,0.935,-0.478,-0.009,-0.008,0.003,117.063,4.473,1.054,0.012,2,2,3.703
1777577926162,-0.091,0.933,-0.474,-0.008,-0.008,0.006,117.057,4.494,1.051,0.013,2,2,3.238
1777577926176,-0.091,0.932,-0.473,-0.007,-0.006,0.009,117.051,4.516,1.050,0.013,2,2,3.231
1777577926189,-0.087,0.930,-0.475,-0.009,-0.005,0.010,117.050,4.526,1.048,0.014,2,2,3.233
1777577926202,-0.083,0.932,-0.475,-0.006,-0.005,0.008,117.048,4.526,1.050,0.012,2,2,3.230
1777577926216,-0.078,0.934,-0.471,-0.004,-0.007,0.005,117.035,4.515,1.049,0.009,2,2,3.714
1777577926230,-0.085,0.935,-0.469,-0.004,-0.011,0.004,117.017,4.522,1.049,0.012,2,2,3.238
1777577926243,-0.077,0.930,-0.483,-0.002,-0.008,0.003,117.035,4.507,1.051,0.009,2,2,3.255
1777577926256,-0.080,0.935,-0.466,0.001,-0.012,-0.002,117.012,4.501,1.048,0.012,2,2,3.234
1777577926270,-0.077,0.933,-0.475,0.002,-0.008,-0.001,117.010,4.488,1.050,0.008,2,2,3.240
1777577926283,-0.091,0.931,-0.469,0.002,-0.009,0.001,116.998,4.510,1.047,0.009,2,2,3.716
1777577926297,-0.092,0.928,-0.470,0.003,-0.007,0.005,116.993,4.535,1.044,0.009,2,2,3.226
1777577926310,-0.091,0.929,-0.479,0.003,-0.006,0.008,117.004,4.554,1.049,0.011,2,2,3.248
1777577926323,-0.084,0.932,-0.478,0.006,-0.005,0.011,117.011,4.557,1.051,0.013,2,2,3.256
1777577926337,-0.083,0.935,-0.469,0.005,-0.007,0.011,116.995,4.557,1.049,0.014,2,2,3.255
1777577926350,-0.082,0.938,-0.474,0.009,-0.006,0.009,116.988,4.553,1.054,0.014,2,2,3.706
1777577926364,-0.085,0.932,-0.472,0.011,-0.008,0.007,116.982,4.557,1.048,0.015,2,2,3.405
1777577926377,-0.084,0.929,-0.470,0.009,-0.007,0.010,116.975,4.560,1.045,0.015,2,2,3.233
1777577926391,-0.090,0.931,-0.481,0.008,-0.005,0.013,116.990,4.575,1.052,0.016,2,2,3.225
1777577926404,-0.089,0.934,-0.475,0.013,-0.004,0.016,116.989,4.587,1.051,0.021,2,2,3.240
1777577926417,-0.074,0.932,-0.470,0.016,-0.007,0.014,116.979,4.564,1.046,0.022,2,2,3.700
1777577926431,-0.086,0.935,-0.475,0.018,-0.006,0.014,116.977,4.570,1.053,0.023,2,2,3.262
1777577926445,-0.087,0.939,-0.472,0.022,-0.002,0.015,116.963,4.578,1.055,0.027,2,2,3.234
1777577926458,-0.083,0.942,-0.475,0.025,-0.005,0.016,116.955,4.575,1.058,0.031,2,2,3.223
1777577926471,-0.069,0.939,-0.480,0.030,-0.005,0.015,116.959,4.540,1.057,0.034,2,2,3.235
1777577926485,-0.089,0.929,-0.477,0.031,-0.002,0.016,116.967,4.554,1.048,0.035,2,2,3.703
1777577926498,-0.082,0.935,-0.474,0.036,-0.000,0.021,116.963,4.549,1.052,0.042,2,2,3.255
1777577926512,-0.080,0.924,-0.479,0.037,-0.000,0.024,116.983,4.543,1.044,0.044,2,2,3.232
1777577926527,-0.069,0.943,-0.479,0.046,0.003,0.023,116.980,4.509,1.059,0.051,2,2,5.044
1777577926540,-0.084,0.950,-0.477,0.056,0.004,0.023,116.966,4.508,1.067,0.061,2,2,3.235
1777577926554,-0.091,0.952,-0.482,0.064,0.004,0.027,116.961,4.524,1.071,0.070,2,2,3.697
1777577926568,-0.081,0.954,-0.479,0.074,0.002,0.031,116.949,4.515,1.071,0.080,2,2,3.238
1777577926581,-0.062,0.957,-0.471,0.087,-0.001,0.030,116.915,4.462,1.068,0.092,2,2,3.221
1777577926594,-0.057,0.969,-0.490,0.103,-0.013,0.030,116.910,4.397,1.087,0.108,2,2,3.247
1777577926608,-0.047,0.966,-0.486,0.142,-0.024,0.046,116.902,4.314,1.082,0.151,2,2,3.230
1777577926621,0.089,1.017,-0.474,0.168,-0.076,0.091,116.819,3.926,1.126,0.205,3,3,3.694
1777577926635,-0.164,1.141,-0.518,0.306,-0.045,0.024,116.715,4.080,1.263,0.311,3,3,3.234
1777577926648,-0.115,1.063,-0.501,0.384,-0.012,0.039,116.650,4.146,1.181,0.386,3,3,3.227
1777577926661,-0.069,1.136,-0.521,0.458,-0.014,0.094,116.560,4.103,1.252,0.468,3,3,3.262
1777577926675,-0.107,1.118,-0.510,0.523,-0.002,0.151,116.472,4.142,1.234,0.545,3,3,3.239
1777577926688,-0.121,1.185,-0.517,0.601,0.025,0.184,116.345,4.194,1.299,0.629,4,4,3.689
1777577926702,-0.124,1.332,-0.528,0.726,0.045,0.095,116.138,4.227,1.438,0.733,4,4,3.235
1777577926715,-0.103,1.258,-0.531,0.860,0.058,0.098,115.997,4.230,1.369,0.868,4,4,3.227
1777577926729,-0.128,1.371,-0.527,1.007,0.064,0.088,115.780,4.263,1.474,1.013,4,4,3.255
1777577926742,-0.064,1.337,-0.527,1.167,0.066,0.080,115.593,4.188,1.438,1.172,4,4,3.231
1777577926755,-0.027,1.370,-0.549,1.332,0.048,0.058,115.429,4.051,1.476,1.334,4,4,3.746
1777577926769,-0.020,1.380,-0.528,1.517,0.034,0.040,115.232,3.908,1.477,1.518,4,4,3.249
1777577926782,-0.013,1.457,-0.534,1.712,0.018,0.015,115.008,3.758,1.552,1.712,4,4,3.223
1777577926796,-0.062,1.423,-0.515,1.917,0.014,-0.034,114.784,3.695,1.515,1.918,4,4,3.245
1777577926809,0.075,1.437,-0.502,2.148,-0.044,-0.050,114.542,3.409,1.524,2.149,4,4,3.231
1777577926822,-0.035,1.363,-0.551,2.341,-0.056,-0.093,114.432,3.320,1.471,2.343,4,4,3.709
1777577926836,-0.061,1.037,-0.645,2.427,-0.055,-0.092,114.758,3.301,1.223,2.430,4,4,3.277
1777577926850,-0.169,0.766,-0.735,2.423,-0.021,-0.042,115.590,3.552,1.075,2.423,4,4,3.228
1777577926863,-0.201,0.485,-0.723,2.312,0.028,-0.063,116.926,3.965,0.894,2.313,4,4,3.237
1777577926876,-0.257,0.422,-0.783,2.130,0.102,-0.027,118.445,4.496,0.926,2.132,4,4,3.231
1777577926890,-0.403,0.422,-0.837,1.977,0.226,0.173,119.966,5.317,1.020,1.997,4,4,3.739
1777577926903,-0.354,0.223,-0.797,1.768,0.335,0.489,121.909,6.098,0.900,1.865,4,4,3.239
1777577926917,-0.374,0.021,-0.757,1.541,0.426,0.685,124.379,6.981,0.844,1.739,4,4,3.231
1777577926930,-0.328,-0.444,-0.528,1.155,0.465,0.625,112.819,7.789,0.764,1.393,4,4,3.251
1777577926943,-0.163,-0.681,-0.219,0.385,0.408,0.451,103.171,8.010,0.734,0.720,4,4,3.227
1777577926957,0.166,-0.221,-0.085,-0.329,0.123,0.419,93.803,6.129,0.289,0.547,4,4,3.705
1777577926971,-0.138,-0.135,-0.208,-0.815,-0.123,0.336,83.270,7.134,0.283,0.890,4,4,3.509
1777577926984,-0.008,0.281,-0.202,-1.186,-0.392,0.251,85.129,6.881,0.346,1.274,4,4,3.237
1777577926997,-0.133,0.522,-0.246,-1.245,-0.635,0.184,86.448,7.148,0.592,1.409,4,4,3.237
1777577927011,-0.166,0.502,-0.251,-1.263,-0.835,0.137,87.764,7.556,0.586,1.521,4,4,3.232
1777577927024,-0.213,0.490,-0.258,-1.312,-0.979,0.160,89.074,8.145,0.594,1.645,4,4,3.716
1777577927038,-0.241,0.449,-0.237,-1.443,-1.072,0.191,90.330,8.900,0.562,1.808,4,4,3.236
1777577927051,-0.281,0.435,-0.253,-1.635,-1.121,0.185,91.636,9.789,0.576,1.991,4,4,3.237
1777577927065,-0.338,0.453,-0.271,-1.882,-1.118,0.134,92.915,10.790,0.627,2.193,4,4,3.240
1777577927078,-0.378,0.585,-0.299,-2.101,-1.083,0.015,93.971,11.625,0.758,2.363,4,4,3.226
1777577927091,-0.425,0.801,-0.359,-2.211,-1.013,-0.089,94.853,12.248,0.975,2.433,5,5,3.713
1777577927105,-0.435,0.939,-0.420,-2.219,-0.915,-0.111,95.695,12.714,1.117,2.403,5,5,3.230
1777577927118,-0.395,1.001,-0.483,-2.195,-0.820,-0.093,96.574,13.013,1.179,2.345,5,5,3.236
1777577927132,-0.364,1.049,-0.545,-2.168,-0.725,-0.071,97.488,13.193,1.237,2.287,5,5,3.231
1777577927145,-0.328,1.051,-0.583,-2.172,-0.638,-0.070,98.429,13.284,1.245,2.265,5,5,3.232
1777577927158,-0.263,1.030,-0.615,-2.225,-0.559,-0.074,99.409,13.243,1.228,2.296,5,5,3.704
1777577927173,-0.231,0.969,-0.635,-2.383,-0.474,-0.028,100.451,13.157,1.182,2.430,5,5,3.609
1777577927186,-0.227,1.054,-0.593,-2.501,-0.380,0.019,101.278,13.047,1.230,2.530,5,5,3.236
1777577927199,-0.224,1.315,-0.587,-2.501,-0.299,0.020,101.837,12.863,1.457,2.519,5,5,3.232
1777577927213,-0.200,1.456,-0.654,-2.431,-0.258,0.050,102.376,12.613,1.609,2.445,5,5,3.221
1777577927226,-0.153,1.421,-0.694,-2.242,-0.265,0.091,102.973,12.303,1.589,2.259,5,5,3.707
1777577927240,-0.206,1.374,-0.749,-2.054,-0.287,0.121,103.655,12.093,1.579,2.078,5,5,3.227
1777577927253,-0.266,1.308,-0.769,-1.916,-0.284,0.099,104.389,11.999,1.541,1.939,5,5,3.275
1777577927267,-0.344,1.312,-0.774,-1.740,-0.241,0.048,105.096,12.032,1.562,1.757,5,5,3.232
1777577927280,-0.323,1.218,-0.769,-1.569,-0.177,-0.012,105.847,12.058,1.476,1.580,5,5,3.234
1777577927293,-0.107,1.078,-0.804,-1.416,-0.201,-0.089,106.761,11.729,1.349,1.432,5,5,3.699
1777577927307,0.267,1.131,-0.877,-1.201,-0.399,-0.121,107.681,10.754,1.456,1.272,5,5,3.225
1777577927320,0.257,1.206,-0.981,-0.842,-0.569,0.150,108.619,9.873,1.576,1.027,5,5,3.247
1777577927334,0.228,1.100,-0.996,-0.489,-0.724,0.427,109.649,9.060,1.502,0.972,5,5,3.333
1777577927348,0.064,1.015,-0.987,-0.174,-0.836,0.448,110.723,8.550,1.417,0.964,5,5,3.677
1777577927361,-0.149,0.949,-0.959,0.078,-0.826,0.299,111.797,8.452,1.357,0.882,1,1,3.698
1777577927375,-2.070,3.413,-1.196,1.320,-0.152,0.652,111.688,9.385,4.167,1.480,1,1,3.487
1777577927388,-0.426,1.359,-0.109,0.830,-0.144,1.098,110.941,9.733,1.429,1.384,1,1,3.353
1777577927402,0.317,1.440,0.468,1.005,-0.251,0.745,109.237,8.791,1.547,1.276,1,1,3.230
1777577927415,0.290,1.175,0.137,1.387,-0.378,0.261,108.104,7.805,1.218,1.461,1,1,3.227
1777577927428,-0.266,1.033,-0.039,1.495,-0.101,0.189,107.406,8.095,1.067,1.511,1,1,3.701
1777577927442,-0.151,1.001,-0.192,1.477,0.155,0.179,107.119,8.108,1.030,1.495,1,1,3.227
1777577927456,0.011,0.955,-0.268,1.426,0.179,0.081,107.056,7.725,0.992,1.440,1,1,3.243
1777577927469,-0.076,0.979,-0.304,1.368,0.165,0.064,107.065,7.572,1.027,1.379,1,1,3.228
1777577927482,-0.053,0.926,-0.371,1.287,0.083,0.055,107.273,7.373,0.998,1.290,1,1,3.244
1777577927496,-0.216,0.908,-0.416,1.181,0.110,0.106,107.595,7.584,1.022,1.191,1,1,3.702
1777577927510,-0.081,0.930,-0.410,1.077,0.124,0.131,107.865,7.451,1.019,1.092,1,1,3.748
1777577927523,-0.133,0.932,-0.420,0.994,0.128,0.145,108.145,7.449,1.031,1.013,1,1,3.268
1777577927537,-0.058,0.928,-0.481,0.915,0.141,0.155,108.550,7.262,1.047,0.938,1,1,3.291
1777577927550,-0.077,0.925,-0.469,0.843,0.171,0.139,108.913,7.129,1.040,0.871,1,1,3.232
1777577927563,-0.049,0.845,-0.611,0.744,0.172,0.128,109.655,6.934,1.044,0.774,1,1,3.704
1777577927577,-0.016,0.791,-0.622,0.541,0.129,0.059,110.465,6.671,1.006,0.559,1,1,3.492
1777577927591,-0.009,0.880,-0.525,0.433,0.099,0.027,110.918,6.402,1.025,0.445,1,1,3.249
1777577927604,-0.050,0.903,-0.504,0.386,0.076,-0.003,111.279,6.242,1.035,0.394,1,1,3.227
1777577927617,0.037,0.510,-0.827,0.233,0.029,-0.045,112.900,5.874,0.972,0.239,1,1,3.231
1777577927631,-0.231,0.809,-0.560,0.153,0.018,-0.009,113.416,6.195,1.011,0.154,1,1,3.705
1777577927644,-0.023,0.921,-0.502,0.121,-0.001,-0.030,113.643,5.980,1.049,0.125,1,1,3.228
1777577927658,-0.102,0.869,-0.529,0.086,-0.011,-0.008,113.979,5.969,1.023,0.087,1,1,3.249
1777577927671,-0.060,0.916,-0.495,0.066,-0.016,0.011,114.171,5.853,1.043,0.069,1,1,3.249
1777577927684,-0.102,0.948,-0.478,0.064,-0.002,0.038,114.284,5.836,1.067,0.075,1,1,3.235
1777577927698,-0.097,0.961,-0.491,0.074,0.010,0.065,114.405,5.805,1.084,0.099,1,1,3.706
1777577927712,-0.133,0.941,-0.505,0.078,0.032,0.115,114.572,5.862,1.076,0.143,1,1,3.227
1777577927725,-0.106,0.975,-0.487,0.083,0.054,0.150,114.658,5.849,1.095,0.180,1,1,3.249
1777577927738,-0.066,0.947,-0.488,0.093,0.060,0.153,114.772,5.749,1.067,0.189,1,1,3.226
1777577927752,-0.025,0.935,-0.500,0.086,0.053,0.128,114.919,5.556,1.061,0.164,1,1,3.227
1777577927765,-0.004,0.939,-0.510,0.083,0.040,0.087,115.077,5.323,1.069,0.127,1,1,3.704
1777577927779,0.011,0.946,-0.507,0.088,0.028,0.027,115.213,5.064,1.073,0.096,1,1,3.457
1777577927792,-0.026,0.939,-0.500,0.091,0.013,-0.003,115.336,4.905,1.064,0.092,1,1,3.257
1777577927806,-0.044,0.939,-0.505,0.085,0.009,-0.014,115.463,4.795,1.067,0.086,1,1,3.226
1777577927819,-0.058,0.947,-0.508,0.088,0.012,-0.013,115.584,4.720,1.076,0.090,1,1,3.236
1777577927832,-0.065,0.937,-0.517,0.085,0.020,-0.006,115.728,4.665,1.072,0.087,1,1,3.705
1777577927846,-0.077,0.907,-0.533,0.076,0.029,-0.001,115.934,4.644,1.055,0.082,1,1,3.228
1777577927859,-0.059,0.938,-0.512,0.083,0.026,-0.000,116.052,4.580,1.070,0.087,1,1,3.277
1777577927873,-0.084,0.922,-0.512,0.082,0.029,0.011,116.184,4.579,1.058,0.087,1,1,3.257
1777577927886,-0.035,0.910,-0.519,0.069,0.027,0.004,116.337,4.464,1.048,0.074,1,1,3.237
1777577927899,-0.057,0.939,-0.521,0.068,0.017,0.003,116.455,4.402,1.076,0.070,1,1,3.709
1777577927913,-0.031,0.901,-0.517,0.055,0.012,-0.014,116.603,4.283,1.039,0.058,1,1,3.230
1777577927927,-0.023,0.926,-0.507,0.076,-0.003,-0.010,116.694,4.151,1.056,0.077,1,1,3.258
1777577927940,0.002,0.916,-0.522,0.072,-0.020,-0.024,116.826,3.965,1.054,0.079,1,1,3.222
1777577927953,-0.032,0.942,-0.516,0.072,-0.037,-0.032,116.909,3.865,1.074,0.087,1,1,3.236
1777577927967,0.009,0.945,-0.507,0.080,-0.060,-0.047,116.967,3.676,1.072,0.110,2,2,3.705
1777577927980,-0.036,0.878,-0.549,0.070,-0.075,-0.026,117.188,3.602,1.036,0.106,2,2,3.243
1777577927994,-0.065,1.041,-0.531,0.110,-0.078,0.007,117.180,3.584,1.170,0.135,2,2,3.842
1777577928008,-0.019,0.898,-0.543,0.162,-0.079,-0.028,117.353,3.472,1.050,0.183,2,2,3.228
1777577928024,-0.140,0.879,-0.546,0.189,-0.056,-0.013,117.550,3.658,1.044,0.197,2,2,6.416
1777577928038,-0.095,0.939,-0.540,0.203,-0.039,0.031,117.653,3.716,1.088,0.209,4,4,3.716
1777577928051,-0.093,0.959,-0.542,0.224,-0.024,0.063,117.733,3.764,1.106,0.234,4,4,3.231
1777577928065,-0.115,0.962,-0.555,0.254,-0.011,0.096,117.832,3.858,1.117,0.271,4,4,3.242
1777577928078,-0.031,0.995,-0.547,0.285,-0.005,0.107,117.874,3.759,1.136,0.304,4,4,3.226
1777577928092,-0.057,0.997,-0.552,0.323,0.005,0.079,117.923,3.720,1.141,0.333,4,4,3.244
1777577928105,-0.044,1.001,-0.564,0.364,0.007,0.065,117.987,3.654,1.150,0.370,4,4,3.696
1777577928119,-0.037,0.984,-0.578,0.392,0.009,0.041,118.094,3.575,1.141,0.394,4,4,3.224
1777577928132,-0.087,0.986,-0.577,0.422,0.017,0.026,118.192,3.608,1.146,0.423,4,4,3.242
1777577928145,-0.055,0.971,-0.584,0.451,0.022,0.023,118.315,3.572,1.135,0.452,4,4,3.224
1777577928159,-0.060,0.974,-0.602,0.480,0.029,0.032,118.463,3.548,1.146,0.482,4,4,3.244
1777577928172,-0.052,0.959,-0.604,0.507,0.028,0.035,118.627,3.507,1.134,0.509,4,4,3.701
1777577928186,-0.080,0.956,-0.612,0.542,0.038,0.037,118.802,3.530,1.138,0.545,4,4,3.231
1777577928199,-0.073,0.910,-0.622,0.565,0.045,0.045,119.044,3.540,1.105,0.569,4,4,3.248
1777577928213,-0.094,0.905,-0.647,0.591,0.044,0.050,119.329,3.596,1.116,0.595,4,4,3.229
1777577928226,-0.071,0.904,-0.632,0.616,0.035,0.038,119.574,3.600,1.105,0.618,4,4,3.256
1777577928239,-0.021,0.954,-0.651,0.661,0.043,0.049,119.781,3.489,1.155,0.664,4,4,3.696
1777577928253,-0.048,0.983,-0.647,0.703,0.045,0.054,119.938,3.439,1.178,0.706,4,4,3.222
1777577928266,-0.091,1.009,-0.669,0.766,0.046,0.073,120.096,3.477,1.214,0.771,4,4,3.253
1777577928280,-0.097,1.013,-0.684,0.828,0.048,0.079,120.268,3.523,1.226,0.833,4,4,3.228
1777577928293,-0.140,1.004,-0.663,0.907,0.069,0.100,120.407,3.658,1.212,0.915,4,4,3.234
1777577928306,-0.140,1.020,-0.687,1.003,0.098,0.126,120.562,3.783,1.238,1.016,4,4,3.693
1777577928320,-0.131,1.054,-0.710,1.106,0.122,0.144,120.712,3.874,1.278,1.122,4,4,3.222
1777577928334,-0.143,1.086,-0.686,1.230,0.149,0.152,120.779,3.982,1.292,1.249,4,4,3.259
1777577928347,-0.109,1.073,-0.691,1.356,0.166,0.165,120.867,4.022,1.281,1.376,4,4,3.223
1777577928360,-0.048,1.065,-0.693,1.491,0.169,0.138,120.962,3.941,1.272,1.507,4,4,3.229
1777577928374,0.017,1.171,-0.737,1.648,0.167,0.101,121.015,3.738,1.384,1.660,4,4,3.772
1777577928387,0.062,1.161,-0.740,1.830,0.157,0.017,121.080,3.461,1.378,1.836,4,4,3.322
1777577928401,0.312,1.264,-0.749,2.000,0.088,-0.089,121.061,2.785,1.502,2.004,4,4,3.242
1777577928414,0.325,1.256,-0.832,2.185,0.040,-0.229,121.168,2.131,1.541,2.198,4,4,3.235
1777577928430,0.337,1.303,-0.815,2.390,-0.045,-0.355,121.206,1.497,1.574,2.416,4,4,6.138
1777577928444,0.246,1.159,-0.804,2.501,-0.139,-0.422,121.362,0.998,1.432,2.540,4,4,3.707
1777577928458,0.295,1.062,-0.877,2.501,-0.230,-0.461,121.720,0.425,1.408,2.554,4,4,3.222
1777577928471,0.213,0.856,-0.913,2.501,-0.311,-0.423,122.380,-0.016,1.269,2.556,4,4,3.239
1777577928484,0.086,0.741,-0.928,2.501,-0.327,-0.498,123.213,-0.196,1.191,2.571,4,4,3.242
1777577928498,0.056,0.911,-0.991,2.501,-0.290,-0.482,123.833,-0.291,1.347,2.564,4,4,3.222
1777577928511,0.064,0.886,-0.934,2.501,-0.243,-0.230,124.387,-0.403,1.289,2.524,4,4,3.692
1777577928525,0.093,1.064,-1.032,2.501,-0.222,0.228,124.812,-0.542,1.485,2.521,4,4,3.224
1777577928538,0.075,0.856,-1.173,2.501,-0.172,0.814,125.646,-0.647,1.454,2.636,4,4,3.242
1777577928551,0.022,0.758,-0.909,2.501,-0.218,1.264,126.281,-0.666,1.184,2.811,4,4,3.234
1777577928565,0.214,-0.074,-0.396,2.226,-0.365,1.484,113.353,-1.860,0.456,2.700,4,4,3.228
1777577928578,-0.976,-1.021,-0.067,1.494,-0.119,1.119,104.296,0.129,1.414,1.871,4,4,3.731
1777577928592,-0.258,-0.352,-0.860,0.401,0.197,0.489,92.836,0.802,0.964,0.662,4,4,3.226
1777577928605,-0.537,-0.100,-0.701,-0.433,0.597,0.042,81.260,2.392,0.888,0.739,4,4,3.228
1777577928618,-0.367,0.216,-0.605,-0.964,0.764,-0.265,84.719,3.589,0.740,1.258,4,4,3.229
1777577928632,-0.274,0.423,-0.614,-1.273,0.829,-0.484,87.374,4.314,0.794,1.594,4,4,3.221
1777577928645,-0.091,0.336,-0.503,-1.577,0.737,-0.608,89.950,4.499,0.612,1.844,4,4,3.717
1777577928659,-0.015,0.177,-0.393,-1.942,0.549,-0.635,92.827,4.390,0.431,2.116,4,4,3.233
1777577928672,-0.023,0.321,-0.358,-2.263,0.344,-0.453,94.808,4.318,0.481,2.333,4,4,3.245
1777577928686,0.001,0.507,-0.304,-2.469,0.145,-0.275,95.951,4.126,0.592,2.488,4,4,3.319
1777577928699,0.082,0.511,-0.236,-2.501,-0.078,-0.193,96.775,3.584,0.569,2.510,4,4,3.225
1777577928712,0.097,0.550,-0.204,-2.501,-0.291,-0.142,97.368,3.018,0.594,2.522,4,4,3.728
1777577928726,0.022,0.576,-0.217,-2.501,-0.453,-0.088,97.948,2.797,0.616,2.544,4,4,3.226
1777577928739,-0.060,0.536,-0.210,-2.501,-0.540,-0.046,98.535,2.934,0.579,2.559,4,4,3.224
1777577928753,-0.094,0.562,-0.213,-2.501,-0.573,-0.133,99.068,3.194,0.608,2.570,4,4,3.229
1777577928766,-0.098,0.604,-0.205,-2.501,-0.557,-0.307,99.492,3.438,0.645,2.581,4,4,3.227
1777577928779,-0.085,0.719,-0.236,-2.501,-0.511,-0.368,99.873,3.569,0.761,2.579,5,5,3.766
1777577928793,-0.052,0.826,-0.310,-2.501,-0.451,-0.208,100.341,3.560,0.884,2.550,5,5,3.231
1777577928807,-0.028,0.932,-0.376,-2.501,-0.392,0.078,100.850,3.475,1.005,2.533,5,5,3.219
1777577928820,-0.003,0.974,-0.436,-2.501,-0.324,0.256,101.431,3.330,1.067,2.535,5,5,3.255
1777577928833,-0.021,1.177,-0.540,-2.501,-0.273,0.263,102.008,3.226,1.295,2.530,5,5,3.223
1777577928847,-0.073,1.301,-0.644,-2.501,-0.204,0.161,102.635,3.211,1.453,2.515,5,5,3.735
1777577928860,-0.155,1.296,-0.750,-2.501,-0.078,0.014,103.396,3.328,1.505,2.503,5,5,3.236
1777577928874,-0.184,1.324,-0.816,-2.501,0.121,-0.090,104.194,3.477,1.566,2.506,5,5,3.230
1777577928887,-0.104,1.386,-0.875,-2.501,0.340,-0.053,104.985,3.483,1.643,2.525,5,5,3.260
1777577928900,0.025,1.588,-0.992,-2.501,0.505,0.135,105.729,3.298,1.873,2.555,5,5,3.240
1777577928914,0.091,1.752,-1.167,-2.501,0.595,0.478,106.513,3.045,2.107,2.615,5,5,3.695
1777577928928,0.052,1.782,-1.413,-2.501,0.607,0.782,107.470,2.855,2.275,2.690,5,5,3.232
1777577928941,-0.159,1.783,-1.654,-2.501,0.628,0.805,108.580,2.893,2.437,2.702,5,5,3.229
1777577928954,-0.368,1.726,-1.824,-2.451,0.695,0.562,109.805,3.131,2.538,2.609,5,5,3.246
1777577928968,-0.461,1.604,-1.982,-1.948,0.815,0.102,111.170,3.442,2.591,2.114,5,5,3.232
1777577928981,-0.081,1.380,-1.974,-1.389,0.869,-0.491,112.651,3.376,2.410,1.710,5,5,3.700
1777577928995,0.469,1.008,-2.151,-0.889,0.610,-0.512,114.499,2.740,2.421,1.194,5,5,3.243
1777577929008,0.630,0.655,-2.203,-0.547,0.237,-0.033,116.639,1.949,2.383,0.597,5,5,3.222
1777577929021,0.324,0.591,-2.207,-0.204,-0.050,0.499,118.755,1.511,2.308,0.541,5,5,3.227
1777577929035,0.977,4.000,-2.526,2.501,-0.465,-0.524,118.909,0.935,4.831,2.598,5,5,3.235
1777577929048,1.063,0.338,-0.301,2.175,-0.766,-0.691,119.468,-2.035,1.156,2.407,1,1,3.772
1777577929062,-0.614,1.523,0.352,2.200,-0.194,-0.266,117.610,-1.009,1.680,2.225,1,1,3.248
1777577929075,0.068,1.294,0.052,2.501,-0.141,-0.453,116.302,-1.097,1.297,2.546,1,1,3.230
1777577929089,-0.114,0.789,-0.495,2.501,0.038,-0.525,116.555,-0.744,0.939,2.556,1,1,3.248
1777577929102,-0.320,0.678,-0.710,2.133,0.247,-0.436,117.420,0.078,1.032,2.191,1,1,3.230
1777577929115,-0.075,0.774,-0.766,1.736,0.092,-0.333,118.175,0.248,1.091,1.770,1,1,3.694
1777577929129,-0.302,0.720,-0.730,1.372,0.095,-0.111,118.928,0.953,1.069,1.379,1,1,3.238
1777577929142,-0.283,0.697,-0.672,0.961,0.151,0.015,119.586,1.625,1.008,0.973,1,1,3.227
1777577929156,-0.317,0.766,-0.612,0.720,0.229,0.167,119.981,2.338,1.030,0.774,1,1,3.231
1777577929169,-0.133,0.818,-0.527,0.586,0.220,0.244,120.104,2.577,0.982,0.671,1,1,3.228
1777577929182,-0.083,0.798,-0.643,0.483,0.166,0.255,120.486,2.666,1.028,0.570,1,1,3.694
1777577929196,-0.077,0.873,-0.546,0.165,0.101,0.182,120.554,2.736,1.032,0.266,1,1,3.258
1777577929210,0.045,1.005,-0.446,0.146,0.058,0.167,120.264,2.513,1.101,0.230,1,1,3.231
1777577929223,0.078,0.912,-0.555,0.096,0.041,0.090,120.311,2.220,1.070,0.138,1,1,3.233
1777577929236,0.111,0.991,-0.449,0.106,0.002,-0.047,120.052,1.869,1.094,0.116,1,1,3.231
1777577929250,0.077,0.920,-0.513,0.102,-0.063,-0.171,120.012,1.603,1.056,0.209,1,1,3.692
1777577929263,-0.052,0.927,-0.509,0.088,-0.079,-0.193,119.958,1.656,1.059,0.226,1,1,3.235
1777577929277,-0.116,0.932,-0.504,0.085,-0.092,-0.170,119.890,1.858,1.066,0.211,1,1,3.231
1777577929290,-0.133,0.957,-0.496,0.089,-0.076,-0.123,119.781,2.085,1.086,0.170,1,1,3.227
1777577929303,-0.137,0.970,-0.502,0.096,-0.057,-0.089,119.675,2.306,1.101,0.143,1,1,3.243
1777577929317,-0.132,0.954,-0.507,0.098,-0.015,-0.050,119.602,2.510,1.089,0.111,1,1,3.715
1777577929331,-0.131,0.945,-0.505,0.103,0.005,-0.013,119.537,2.705,1.080,0.104,1,1,3.227
1777577929345,-0.122,0.916,-0.511,0.102,0.027,0.021,119.522,2.876,1.056,0.108,1,1,3.248
1777577929358,-0.093,0.913,-0.509,0.093,0.040,0.030,119.505,2.973,1.050,0.105,1,1,3.221
1777577929371,-0.050,0.901,-0.520,0.080,0.039,0.013,119.528,2.963,1.041,0.090,1,1,3.232
1777577929384,-0.073,0.919,-0.498,0.082,0.029,-0.001,119.481,3.008,1.048,0.087,1,1,3.700
1777577929398,0.005,0.894,-0.523,0.058,0.012,-0.054,119.518,2.864,1.035,0.080,1,1,3.283
1777577929412,-0.037,0.918,-0.506,0.060,-0.006,-0.084,119.488,2.828,1.048,0.103,1,1,3.249
1777577929425,-0.048,0.890,-0.531,0.048,-0.029,-0.112,119.548,2.819,1.037,0.125,1,1,3.237
1777577929438,-0.055,0.877,-0.507,0.042,-0.054,-0.120,119.568,2.832,1.015,0.138,1,1,3.233
1777577929452,-0.080,0.862,-0.531,0.037,-0.070,-0.117,119.658,2.906,1.016,0.142,1,1,3.709
1777577929465,-0.053,0.930,-0.522,0.045,-0.083,-0.115,119.644,2.904,1.068,0.148,1,1,3.228
1777577929479,-0.095,0.914,-0.513,0.056,-0.092,-0.097,119.630,3.005,1.053,0.145,1,1,3.258
1777577929492,-0.118,0.936,-0.534,0.074,-0.088,-0.092,119.633,3.146,1.084,0.147,1,1,3.263
1777577929506,-0.136,0.915,-0.542,0.085,-0.076,-0.083,119.679,3.327,1.072,0.141,1,1,3.236
1777577929519,-0.113,0.938,-0.527,0.089,-0.068,-0.069,119.663,3.443,1.082,0.131,1,1,3.711
1777577929533,-0.109,0.928,-0.546,0.082,-0.049,-0.063,119.698,3.546,1.082,0.115,1,1,3.229
1777577929546,-0.107,0.885,-0.534,0.093,-0.039,-0.064,119.760,3.650,1.039,0.119,1,1,3.247
1777577929559,-0.129,0.929,-0.540,0.101,-0.034,-0.020,119.779,3.790,1.082,0.108,1,1,3.257
1777577929573,-0.216,1.030,-0.549,0.142,-0.020,0.075,119.703,4.084,1.187,0.162,1,1,3.246
1777577929586,-0.220,0.986,-0.536,0.249,0.016,0.146,119.651,4.391,1.143,0.289,1,1,3.776
1777577929600,-0.131,0.990,-0.521,0.251,0.028,0.165,119.569,4.491,1.127,0.302,1,1,3.247
1777577929613,-0.100,0.971,-0.540,0.285,0.039,0.202,119.548,4.520,1.115,0.352,1,1,3.231
1777577929627,-0.099,0.969,-0.538,0.316,0.052,0.210,119.526,4.547,1.113,0.383,1,1,3.231
1777577929640,-0.095,0.966,-0.559,0.335,0.060,0.190,119.549,4.562,1.120,0.390,1,1,3.220
1777577929653,-0.110,0.965,-0.556,0.371,0.072,0.169,119.566,4.609,1.119,0.414,5,5,3.722
1777577929667,-0.084,0.969,-0.588,0.391,0.079,0.125,119.640,4.593,1.137,0.418,5,5,3.234
1777577929680,-0.091,1.039,-0.571,0.430,0.079,0.091,119.603,4.584,1.189,0.446,5,5,3.232
1777577929694,-0.056,1.051,-0.589,0.492,0.077,0.048,119.589,4.501,1.206,0.500,5,5,3.241
1777577929707,-0.033,1.101,-0.577,0.567,0.072,0.027,119.505,4.371,1.243,0.572,5,5,3.229
1777577929720,-0.080,1.086,-0.598,0.639,0.071,0.012,119.476,4.341,1.242,0.643,5,5,3.696
1777577929734,-0.155,1.174,-0.609,0.732,0.090,0.008,119.386,4.443,1.332,0.738,5,5,3.228
1777577929748,-0.098,1.191,-0.622,0.849,0.087,0.015,119.307,4.430,1.348,0.854,5,5,3.245
1777577929761,-0.204,1.207,-0.604,0.979,0.102,0.044,119.189,4.612,1.365,0.985,5,5,3.267
1777577929774,-0.174,1.184,-0.604,1.100,0.116,0.059,119.093,4.736,1.341,1.108,5,5,3.254
1777577929788,-0.198,1.139,-0.626,1.211,0.114,0.092,119.080,4.907,1.314,1.220,4,4,3.704
1777577929802,-0.194,1.301,-0.617,1.379,0.131,0.104,118.919,5.028,1.453,1.389,4,4,3.264
1777577929815,0.012,1.351,-0.603,1.589,0.120,0.078,118.705,4.787,1.479,1.596,4,4,3.232
1777577929828,0.042,1.351,-0.591,1.824,0.104,0.025,118.483,4.506,1.475,1.827,4,4,3.236
1777577929842,0.072,1.398,-0.607,2.060,0.090,-0.034,118.263,4.191,1.526,2.063,4,4,3.238
1777577929855,0.058,1.520,-0.607,2.337,0.061,-0.089,117.979,3.919,1.637,2.340,4,4,3.678
1777577929869,0.052,1.677,-0.685,2.501,0.049,-0.082,117.727,3.675,1.812,2.503,4,4,3.258
1777577929882,0.006,1.735,-0.780,2.501,0.041,0.046,117.573,3.506,1.902,2.502,4,4,3.227
1777577929895,0.074,1.661,-0.869,2.501,0.032,0.140,117.574,3.253,1.876,2.505,4,4,3.226
1777577929909,0.136,1.384,-0.980,2.501,-0.064,0.233,117.912,2.910,1.701,2.513,4,4,3.355
1777577929922,-0.052,1.523,-1.103,2.501,-0.072,0.228,118.262,2.852,1.881,2.513,4,4,3.770
1777577929936,0.112,1.411,-0.958,2.501,-0.084,0.684,118.521,2.563,1.709,2.595,4,4,3.272
1777577929949,0.205,1.393,-0.550,2.501,-0.187,1.086,118.216,2.111,1.511,2.733,4,4,3.232
1777577929963,0.169,1.511,-0.264,2.501,-0.385,1.332,117.416,1.744,1.543,2.860,4,4,3.227
1777577929976,0.082,1.281,0.114,2.501,-0.531,1.365,115.994,1.509,1.289,2.898,4,4,3.272
1777577929989,-0.030,-0.314,-0.555,2.501,-0.450,0.991,104.342,1.562,0.638,2.728,4,4,3.702
1777577930007,-0.342,-0.328,-0.436,2.501,-0.329,0.796,93.525,2.896,0.644,2.645,4,4,7.451
1777577930021,-0.597,-0.236,-0.545,1.641,0.033,0.332,82.589,4.745,0.842,1.674,4,4,3.233
1777577930034,-0.476,-0.580,-0.371,0.767,0.334,-0.316,73.615,6.052,0.837,0.894,4,4,3.229
1777577930047,-0.407,-0.466,-0.225,-0.099,0.609,-0.856,65.334,7.458,0.659,1.056,4,4,3.236
1777577930061,-0.213,-0.218,-0.202,-0.809,0.763,-1.055,56.664,8.691,0.366,1.533,4,4,3.714
1777577930075,-0.112,-0.062,-0.126,-1.405,0.811,-0.925,47.467,9.995,0.179,1.867,4,4,3.232
1777577930091,0.020,-0.037,-0.104,-1.976,0.772,-0.461,38.381,9.106,0.112,2.171,4,4,6.088
1777577930104,0.125,0.031,-0.101,-2.411,0.604,-0.101,43.822,6.525,0.164,2.488,4,4,3.221
1777577930117,0.156,0.105,-0.107,-2.501,0.405,0.061,47.829,4.218,0.217,2.535,4,4,3.247
1777577930131,0.184,0.160,-0.084,-2.501,0.156,-0.019,50.890,2.045,0.258,2.506,4,4,3.713
1777577930145,0.185,0.272,-0.068,-2.501,-0.110,-0.217,53.210,0.495,0.336,2.513,4,4,3.227
1777577930160,0.166,0.521,-0.104,-2.501,-0.407,-0.323,55.313,-0.284,0.556,2.555,4,4,5.288
1777577930173,0.091,0.837,-0.196,-2.501,-0.595,-0.197,57.407,-0.535,0.865,2.579,4,4,3.226
1777577930187,0.014,0.861,-0.328,-2.501,-0.686,-0.010,59.743,-0.549,0.921,2.594,4,4,3.244
1777577930200,-0.045,0.771,-0.413,-2.501,-0.720,0.069,62.298,-0.395,0.876,2.604,5,5,3.708
1777577930214,-0.118,0.844,-0.487,-2.501,-0.710,0.021,64.820,-0.076,0.982,2.600,5,5,3.227
1777577930227,-0.229,0.995,-0.554,-2.501,-0.635,-0.112,67.196,0.424,1.161,2.583,5,5,3.259
1777577930240,-0.253,1.176,-0.640,-2.501,-0.485,-0.269,69.441,0.874,1.362,2.562,5,5,3.236
1777577930254,-0.284,1.229,-0.714,-2.501,-0.266,-0.302,71.659,1.331,1.449,2.534,5,5,3.221
1777577930269,-0.244,1.151,-0.704,-2.501,-0.005,-0.268,73.836,1.721,1.371,2.516,5,5,5.667
1777577930283,-0.195,1.290,-0.690,-2.501,0.213,-0.192,75.774,1.977,1.476,2.518,5,5,3.226
1777577930296,-0.108,1.430,-0.663,-2.501,0.378,-0.113,77.484,2.062,1.580,2.532,5,5,3.240
1777577930310,0.022,1.574,-0.690,-2.501,0.457,-0.056,79.066,1.940,1.719,2.543,5,5,3.232
1777577930323,0.142,1.708,-0.746,-2.501,0.453,0.043,80.576,1.664,1.869,2.542,5,5,3.229
1777577930336,0.231,1.839,-0.818,-2.501,0.361,0.129,82.036,1.305,2.026,2.531,5,5,3.936
1777577930350,0.311,1.956,-0.964,-2.501,0.195,0.143,83.532,0.893,2.203,2.513,5,5,3.263
1777577930364,0.378,2.059,-1.153,-2.501,0.022,0.146,85.094,0.456,2.389,2.506,5,5,3.269
1777577930377,0.372,1.968,-1.385,-2.501,-0.123,0.246,86.845,0.052,2.435,2.516,5,5,3.293
1777577930390,0.249,1.640,-1.585,-2.273,-0.205,0.523,88.908,-0.223,2.294,2.341,5,5,3.262
1777577930404,0.159,1.370,-1.781,-1.972,-0.269,0.780,91.249,-0.390,2.252,2.138,5,5,3.937
1777577930418,-0.145,1.231,-2.005,-1.505,-0.304,0.938,93.750,-0.219,2.357,1.799,5,5,3.281
1777577930434,-0.743,0.860,-2.166,-0.891,-0.134,0.690,96.575,0.563,2.446,1.134,5,5,3.300
1777577930447,-0.882,0.624,-2.239,-0.382,0.096,-0.032,99.543,1.448,2.486,0.395,5,5,3.289
1777577930460,-0.716,0.682,-2.232,0.186,0.239,-0.680,102.318,2.130,2.441,0.745,5,5,3.272
1777577930474,-0.465,0.720,-2.033,0.718,0.296,-0.859,104.862,2.569,2.207,1.158,1,1,3.926
1777577930489,-0.324,2.937,-1.887,0.839,0.411,-0.832,105.644,2.688,3.506,1.251,1,1,4.110
1777577930502,0.495,2.524,1.286,1.931,-0.125,-0.399,103.779,2.137,2.876,1.976,1,1,3.264
1777577930516,0.021,1.378,0.205,2.501,-0.484,-0.768,102.807,2.005,1.393,2.661,1,1,3.257
1777577930529,-0.426,0.758,-0.269,2.501,-0.225,-0.654,103.102,3.137,0.910,2.595,1,1,3.285
1777577930542,-0.396,0.931,-0.225,2.454,-0.003,-0.365,103.123,3.982,1.037,2.481,1,1,3.918
1777577930556,0.025,0.766,-0.533,2.178,-0.140,-0.348,104.073,3.740,0.934,2.210,1,1,3.269
1777577930570,-0.517,0.856,-0.510,1.879,0.080,-0.135,104.804,4.775,1.122,1.885,1,1,3.281
1777577930583,-0.149,0.895,-0.484,1.715,0.158,0.012,105.399,4.931,1.028,1.722,1,1,3.257
1777577930598,-0.336,0.804,-0.608,1.427,0.248,0.181,106.347,5.522,1.063,1.460,1,1,3.462
1777577930611,0.079,0.606,-0.926,1.114,0.231,0.252,108.115,5.102,1.109,1.166,1,1,3.913
1777577930626,-0.193,0.728,-0.739,0.736,0.301,0.252,109.310,5.341,1.055,0.834,1,1,3.483
1777577930639,-0.102,0.895,-0.538,0.571,0.312,0.275,109.821,5.352,1.049,0.707,1,1,3.270
1777577930652,-0.103,0.961,-0.458,0.549,0.299,0.304,110.069,5.360,1.070,0.695,1,1,3.265
1777577930666,0.350,0.615,-0.736,0.338,0.064,0.163,111.384,4.248,1.021,0.381,1,1,3.257
1777577930679,0.067,0.830,-0.555,0.224,0.072,0.171,111.926,3.893,1.001,0.291,1,1,3.944
1777577930693,-0.064,0.881,-0.535,0.193,0.086,0.112,112.335,3.879,1.032,0.239,1,1,3.266
1777577930707,0.012,0.863,-0.510,0.153,0.066,0.065,112.696,3.679,1.002,0.178,1,1,3.248
1777577930720,-0.065,0.917,-0.519,0.125,0.051,0.076,112.994,3.672,1.056,0.155,1,1,3.401
1777577930733,-0.071,0.921,-0.521,0.119,0.060,0.101,113.280,3.679,1.061,0.167,1,1,3.256
1777577930747,-0.062,0.905,-0.520,0.120,0.073,0.123,113.568,3.666,1.045,0.186,1,1,3.893
1777577930761,-0.073,0.950,-0.513,0.123,0.087,0.142,113.778,3.675,1.082,0.207,1,1,3.290
1777577930774,0.005,0.902,-0.495,0.109,0.090,0.140,113.997,3.502,1.029,0.199,1,1,3.292
1777577930788,-0.025,0.899,-0.529,0.100,0.079,0.149,114.279,3.410,1.043,0.196,1,1,3.259
1777577930801,0.017,0.918,-0.527,0.085,0.075,0.121,114.524,3.222,1.059,0.166,1,1,3.276
1777577930814,0.053,0.910,-0.520,0.074,0.057,0.078,114.752,2.955,1.049,0.122,1,1,3.909
1777577930828,0.074,0.903,-0.517,0.060,0.043,0.029,114.972,2.648,1.043,0.079,1,1,3.264
1777577930842,0.055,0.897,-0.514,0.049,0.029,-0.012,115.183,2.399,1.036,0.058,1,1,3.275
1777577930855,0.027,0.903,-0.516,0.042,0.024,-0.035,115.383,2.229,1.041,0.060,1,1,3.261
1777577930869,-0.006,0.889,-0.526,0.039,0.017,-0.050,115.611,2.147,1.034,0.065,1,1,3.258
1777577930882,-0.024,0.908,-0.526,0.037,0.017,-0.035,115.807,2.111,1.050,0.054,1,1,3.930
1777577930896,-0.032,0.909,-0.522,0.035,0.017,-0.033,115.984,2.095,1.049,0.051,1,1,3.261
1777577930909,-0.006,0.924,-0.518,0.037,0.012,-0.038,116.129,2.017,1.059,0.054,1,1,3.253
1777577930923,0.038,0.905,-0.528,0.032,0.002,-0.076,116.310,1.838,1.048,0.082,1,1,3.285
1777577930936,0.023,0.906,-0.525,0.023,-0.008,-0.108,116.476,1.701,1.047,0.110,1,1,3.262
1777577930950,0.041,0.912,-0.536,0.012,-0.020,-0.152,116.650,1.529,1.058,0.154,1,1,3.991
1777577930964,-0.010,0.908,-0.531,0.013,-0.031,-0.185,116.810,1.487,1.052,0.188,1,1,3.372
1777577930978,-0.040,0.912,-0.515,0.011,-0.029,-0.179,116.926,1.517,1.048,0.182,1,1,3.594
1777577930991,-0.077,0.932,-0.531,0.016,-0.025,-0.155,117.046,1.630,1.075,0.158,1,1,3.481
1777577931005,-0.058,0.886,-0.515,0.017,0.001,-0.154,117.182,1.699,1.027,0.155,1,1,3.263
1777577931018,-0.056,0.929,-0.487,0.026,-0.003,-0.095,117.203,1.758,1.051,0.099,1,1,3.907
1777577931032,-0.094,0.906,-0.536,0.027,0.001,-0.059,117.351,1.904,1.057,0.065,1,1,3.282
1777577931045,-0.083,0.936,-0.529,0.023,0.001,-0.034,117.444,2.013,1.079,0.041,1,1,3.247
1777577931059,-0.031,0.923,-0.531,0.022,-0.008,-0.038,117.552,1.998,1.065,0.045,1,1,3.251
1777577931072,-0.017,0.910,-0.524,0.019,-0.023,-0.052,117.657,1.951,1.051,0.060,1,1,3.262
1777577931086,-0.005,0.917,-0.532,0.016,-0.047,-0.081,117.766,1.877,1.060,0.095,1,1,3.857
1777577931099,-0.026,0.887,-0.544,0.020,-0.063,-0.107,117.930,1.857,1.041,0.126,1,1,3.249
1777577931113,-0.022,0.929,-0.528,0.035,-0.081,-0.112,118.003,1.827,1.069,0.143,1,1,3.274
1777577931129,-0.043,0.917,-0.518,0.066,-0.098,-0.094,118.068,1.850,1.054,0.151,1,1,5.479
1777577931143,-0.131,0.922,-0.545,0.077,-0.085,-0.022,118.179,2.075,1.079,0.117,1,1,3.300
1777577931157,-0.150,0.966,-0.533,0.094,-0.060,0.073,118.209,2.322,1.114,0.133,1,1,3.910
1777577931171,-0.148,1.054,-0.552,0.140,-0.032,0.126,118.184,2.531,1.199,0.191,1,1,3.253
1777577931184,-0.093,0.979,-0.549,0.216,-0.004,0.157,118.231,2.626,1.127,0.268,1,1,3.286
1777577931198,-0.061,1.035,-0.552,0.270,0.012,0.109,118.224,2.641,1.175,0.291,1,1,3.258
1777577931211,-0.099,0.964,-0.558,0.320,0.036,0.146,118.303,2.748,1.118,0.354,1,1,3.249
1777577931224,-0.039,1.017,-0.538,0.362,0.049,0.154,118.285,2.711,1.151,0.396,4,4,3.956
1777577931238,0.007,1.015,-0.554,0.405,0.049,0.153,118.300,2.579,1.157,0.436,4,4,3.268
1777577931252,-0.052,1.110,-0.563,0.486,0.063,0.166,118.239,2.572,1.245,0.517,4,4,3.242
1777577931265,-0.083,1.182,-0.557,0.584,0.086,0.147,118.107,2.618,1.310,0.608,4,4,3.259
1777577931278,-0.043,1.194,-0.566,0.694,0.105,0.116,117.987,2.585,1.322,0.712,4,4,3.255
1777577931292,-0.034,1.291,-0.596,0.812,0.098,0.044,117.846,2.532,1.422,0.819,4,4,3.872
1777577931306,-0.084,1.256,-0.594,0.955,0.106,0.046,117.735,2.573,1.392,0.962,4,4,3.263
1777577931319,-0.119,1.216,-0.606,1.083,0.114,0.081,117.682,2.678,1.364,1.092,4,4,3.271
1777577931333,-0.149,1.247,-0.600,1.214,0.125,0.117,117.595,2.830,1.392,1.226,4,4,3.250
1777577931346,-0.118,1.313,-0.584,1.379,0.143,0.154,117.437,2.913,1.442,1.395,4,4,3.251
1777577931359,-0.126,1.357,-0.572,1.574,0.159,0.175,117.236,3.000,1.478,1.591,4,4,3.846
1777577931373,-0.100,1.382,-0.548,1.805,0.189,0.195,116.991,3.036,1.490,1.825,4,4,3.251
1777577931387,-0.012,1.385,-0.577,2.035,0.202,0.175,116.800,2.924,1.500,2.053,4,4,3.265
1777577931400,-0.062,1.530,-0.534,2.321,0.239,0.222,116.469,2.892,1.622,2.343,4,4,3.261
1777577931413,-0.179,1.729,-0.638,2.501,0.271,0.295,116.197,3.008,1.852,2.533,4,4,3.247
1777577931427,-0.060,1.744,-0.730,2.501,0.284,0.325,116.045,2.955,1.891,2.538,4,4,4.045
1777577931441,0.078,1.428,-0.817,2.501,0.244,0.308,116.208,2.708,1.648,2.532,4,4,3.254
1777577931454,0.001,1.742,-0.924,2.501,0.249,0.291,116.284,2.588,1.972,2.530,4,4,3.263
1777577931468,0.381,1.298,-0.930,2.501,0.110,0.615,116.692,1.887,1.641,2.578,4,4,3.418
1777577931482,0.188,1.731,-1.151,2.501,0.081,1.194,116.995,1.579,2.087,2.773,4,4,3.779
1777577931495,0.206,1.556,-0.656,2.501,-0.052,1.687,116.813,1.206,1.701,3.017,4,4,3.904
1777577931509,0.093,1.822,-0.445,2.501,-0.166,2.171,116.240,1.030,1.878,3.316,4,4,3.302
1777577931522,0.157,0.159,0.583,2.501,-0.367,2.199,111.825,0.347,0.624,3.351,4,4,3.254
1777577931536,0.603,-2.462,-0.510,1.865,-0.897,1.733,102.486,-0.258,2.585,2.699,4,4,3.271
1777577931549,-0.287,-0.156,-0.597,0.606,-0.735,0.849,90.774,0.844,0.681,1.276,4,4,3.290
1777577931563,-0.222,0.050,-0.359,-0.177,-0.524,-0.229,94.329,2.184,0.425,0.598,4,4,3.891
1777577931577,-0.368,0.398,-0.312,-0.592,-0.281,-0.761,95.807,3.665,0.626,1.004,4,4,3.266
1777577931590,-0.231,0.536,-0.256,-0.704,-0.101,-0.944,96.669,4.434,0.638,1.182,4,4,3.265
1777577931603,-0.164,0.410,-0.239,-0.764,0.010,-0.739,97.698,5.074,0.502,1.063,4,4,3.251
1777577931617,-0.101,0.320,-0.232,-0.868,0.085,-0.387,98.934,5.482,0.408,0.954,4,4,3.274
1777577931630,-0.116,0.209,-0.186,-1.048,0.124,-0.088,100.365,6.227,0.303,1.059,4,4,7.902
1777577931648,-0.087,0.083,-0.136,-1.410,0.086,-0.050,102.468,7.208,0.182,1.414,4,4,3.275
1777577931661,-0.073,0.076,-0.112,-1.745,-0.016,-0.323,104.368,8.127,0.153,1.774,4,4,3.272
1777577931677,-0.081,0.169,-0.115,-2.094,-0.155,-0.600,105.229,8.712,0.220,2.184,4,4,4.994
1777577931690,-0.090,0.316,-0.134,-2.343,-0.258,-0.624,105.564,8.973,0.355,2.438,4,4,3.270
1777577931703,-0.070,0.413,-0.157,-2.501,-0.345,-0.473,105.793,8.973,0.447,2.569,4,4,3.933
1777577931717,-0.014,0.501,-0.204,-2.501,-0.439,-0.298,106.069,8.644,0.541,2.557,4,4,3.295
1777577931731,-0.017,0.619,-0.257,-2.501,-0.529,-0.219,106.353,8.331,0.671,2.566,4,4,3.309
1777577931744,-0.028,0.709,-0.363,-2.501,-0.607,-0.230,106.823,8.056,0.797,2.584,4,4,3.267
1777577931758,-0.031,0.821,-0.450,-2.501,-0.678,-0.283,107.343,7.786,0.937,2.607,4,4,3.268
1777577931773,-0.054,0.974,-0.575,-2.501,-0.709,-0.281,107.920,7.564,1.133,2.615,5,5,6.075
1777577931787,-0.127,1.166,-0.696,-2.501,-0.654,-0.195,108.485,7.467,1.364,2.593,5,5,3.275
1777577931801,-0.155,1.193,-0.773,-2.501,-0.537,-0.165,109.118,7.413,1.430,2.564,5,5,3.267
1777577931814,-0.208,1.237,-0.799,-2.501,-0.363,-0.186,109.718,7.441,1.487,2.534,5,5,3.296
1777577931828,-0.201,1.338,-0.808,-2.501,-0.158,-0.299,110.218,7.436,1.576,2.524,5,5,3.264
1777577931843,-0.198,1.480,-0.853,-2.501,0.112,-0.351,110.644,7.399,1.719,2.528,5,5,3.968
1777577931857,-0.089,1.536,-0.892,-2.501,0.363,-0.234,111.059,7.201,1.779,2.538,5,5,3.266
1777577931872,0.045,1.605,-0.928,-2.501,0.538,-0.040,111.452,6.825,1.855,2.559,5,5,5.475
1777577931886,0.180,1.711,-1.010,-2.501,0.611,0.193,111.851,6.300,1.995,2.582,5,5,3.271
1777577931899,0.182,1.800,-1.130,-2.501,0.589,0.300,112.299,5.810,2.133,2.587,5,5,3.267
1777577931913,0.095,1.765,-1.318,-2.501,0.538,0.335,112.931,5.448,2.205,2.580,5,5,3.956
1777577931927,-0.060,1.637,-1.474,-2.501,0.506,0.310,113.766,5.278,2.204,2.571,5,5,3.273
1777577931942,-0.042,1.500,-1.583,-2.275,0.471,0.135,114.762,5.096,2.181,2.327,5,5,3.288
1777577931955,0.207,1.305,-1.678,-1.874,0.296,-0.030,115.959,4.630,2.136,1.897,5,5,3.268
1777577931968,0.225,1.127,-1.842,-1.449,0.034,0.097,117.383,4.167,2.171,1.453,5,5,3.255
1777577931984,-0.062,0.902,-1.921,-0.921,-0.197,0.277,119.022,4.058,2.123,0.982,5,5,3.968
1777577931998,-0.455,0.811,-1.924,-0.355,-0.221,0.101,120.689,4.418,2.137,0.430,5,5,3.278
1777577932012,-0.635,0.757,-1.840,0.219,-0.089,-0.358,122.305,4.998,2.089,0.429,5,5,3.312
1777577932026,-0.526,0.698,-1.635,0.603,0.052,-0.629,123.816,5.501,1.854,0.873,5,5,3.306
1777577932040,-0.358,0.862,-1.572,0.066,-0.370,1.271,125.016,5.755,1.828,1.325,5,5,3.937
1777577932053,0.617,1.041,1.324,1.821,0.071,0.075,121.219,4.622,1.794,1.824,5,5,3.950
1777577932069,0.216,1.213,0.122,2.501,-0.414,-0.303,119.602,3.981,1.238,2.553,5,5,5.274
1777577932083,-0.383,0.923,-0.132,2.469,-0.087,-0.262,118.662,4.784,1.008,2.484,5,5,3.262
1777577932096,-0.172,0.822,-0.326,2.297,0.119,-0.155,118.354,5.056,0.900,2.306,5,5,3.249
1777577932112,-0.046,0.765,-0.529,1.960,0.139,-0.176,118.631,4.958,0.931,1.973,5,5,5.711
1777577932125,-0.225,0.838,-0.523,1.680,0.239,-0.017,118.777,5.302,1.013,1.697,1,1,3.856
1777577932139,-0.155,0.868,-0.537,1.470,0.218,0.034,118.906,5.447,1.033,1.487,1,1,3.264
1777577932153,-0.169,0.898,-0.537,1.316,0.280,0.069,118.992,5.611,1.060,1.347,1,1,3.246
1777577932168,-0.135,0.838,-0.545,1.146,0.318,0.091,119.170,5.703,1.009,1.193,1,1,3.580
1777577932181,0.029,0.783,-0.634,0.817,0.256,0.060,119.599,5.383,1.008,0.858,1,1,3.257
1777577932195,-0.074,0.829,-0.568,0.614,0.211,0.030,119.811,5.332,1.008,0.650,1,1,4.026
1777577932209,-0.031,0.852,-0.557,0.523,0.176,-0.025,119.958,5.175,1.018,0.553,1,1,3.348
1777577932222,-0.092,0.657,-0.826,0.391,0.074,-0.003,120.900,5.166,1.060,0.398,1,1,3.256
1777577932235,-0.221,0.876,-0.539,0.240,0.077,0.017,120.930,5.471,1.052,0.252,1,1,3.267
1777577932249,0.038,0.919,-0.521,0.205,0.025,-0.046,120.871,5.142,1.057,0.211,1,1,3.264
1777577932262,-0.072,0.841,-0.576,0.157,0.001,-0.031,121.025,5.094,1.022,0.160,1,1,3.921
1777577932276,-0.116,0.929,-0.509,0.130,-0.006,-0.024,120.925,5.145,1.066,0.133,1,1,3.264
1777577932290,-0.089,0.922,-0.521,0.129,-0.024,-0.040,120.861,5.130,1.063,0.137,1,1,3.254
1777577932303,-0.124,0.921,-0.522,0.110,-0.002,-0.021,120.803,5.198,1.066,0.112,1,1,3.297
1777577932317,-0.140,0.918,-0.514,0.102,0.013,0.011,120.735,5.302,1.062,0.103,1,1,3.772
1777577932330,-0.143,0.899,-0.517,0.080,0.041,0.048,120.699,5.413,1.047,0.102,1,1,3.913
1777577932344,-0.123,0.886,-0.530,0.060,0.053,0.062,120.706,5.473,1.039,0.101,1,1,3.386
1777577932358,-0.103,0.879,-0.530,0.047,0.052,0.066,120.723,5.484,1.031,0.096,1,1,3.257
1777577932371,-0.078,0.894,-0.526,0.039,0.049,0.057,120.712,5.431,1.040,0.085,1,1,3.297
1777577932385,-0.057,0.914,-0.517,0.037,0.034,0.037,120.658,5.331,1.052,0.062,1,1,3.255
1777577932400,-0.087,0.917,-0.513,0.033,0.019,0.019,120.596,5.305,1.054,0.042,1,1,6.000
1777577932414,-0.075,0.908,-0.512,0.037,0.006,0.002,120.545,5.253,1.045,0.037,1,1,3.273
1777577932430,-0.076,0.915,-0.519,0.035,-0.006,-0.009,120.501,5.204,1.055,0.037,1,1,5.327
1777577932443,-0.087,0.900,-0.523,0.034,-0.013,-0.021,120.487,5.186,1.045,0.042,1,1,3.272
1777577932456,-0.100,0.923,-0.512,0.036,-0.014,-0.018,120.424,5.195,1.060,0.043,1,1,3.279
1777577932470,-0.115,0.917,-0.520,0.034,-0.005,-0.008,120.387,5.240,1.060,0.035,1,1,3.990
1777577932484,-0.114,0.914,-0.525,0.029,0.002,0.001,120.366,5.280,1.060,0.029,1,1,3.267
1777577932500,-0.102,0.918,-0.530,0.026,0.011,0.008,120.349,5.290,1.065,0.030,1,1,4.164
1777577932513,-0.104,0.917,-0.527,0.024,0.014,0.018,120.328,5.305,1.063,0.033,1,1,3.275
1777577932527,-0.097,0.908,-0.521,0.020,0.016,0.020,120.307,5.305,1.052,0.033,1,1,3.263
1777577932541,-0.088,0.927,-0.515,0.026,0.015,0.016,120.252,5.280,1.064,0.034,1,1,3.955
1777577932555,-0.095,0.927,-0.520,0.021,0.014,0.021,120.211,5.273,1.067,0.033,1,1,3.263
1777577932571,-0.081,0.909,-0.527,0.022,0.010,0.020,120.207,5.234,1.054,0.031,1,1,5.978
1777577932584,-0.087,0.917,-0.528,0.030,0.007,0.024,120.194,5.211,1.061,0.039,1,1,3.255
1777577932598,-0.059,0.923,-0.517,0.055,-0.006,0.016,120.153,5.123,1.059,0.057,1,1,3.250
1777577932611,-0.078,0.913,-0.526,0.071,-0.013,0.011,120.145,5.085,1.056,0.073,2,2,3.868
1777577932625,-0.106,0.897,-0.539,0.077,-0.022,0.015,120.182,5.115,1.052,0.082,2,2,3.250
1777577932638,-0.061,0.945,-0.521,0.091,-0.028,0.020,120.125,5.033,1.080,0.097,2,2,3.251
1777577932652,-0.047,0.983,-0.525,0.115,-0.040,0.008,120.036,4.919,1.116,0.122,2,2,3.247
1777577932667,-0.102,0.931,-0.548,0.151,-0.044,0.008,120.055,4.941,1.085,0.157,2,2,5.193
1777577932680,-0.178,1.016,-0.539,0.208,-0.029,0.048,119.964,5.110,1.164,0.216,1,1,3.938
1777577932694,-0.152,0.925,-0.559,0.260,0.003,0.098,120.015,5.237,1.091,0.278,1,1,3.272
1777577932708,-0.128,0.980,-0.553,0.279,0.018,0.138,119.990,5.291,1.133,0.312,1,1,3.271
1777577932721,-0.166,0.927,-0.586,0.291,0.038,0.180,120.091,5.436,1.109,0.344,1,1,3.251
1777577932734,-0.127,0.926,-0.572,0.320,0.059,0.203,120.163,5.489,1.096,0.384,1,1,3.266
1777577932748,-0.124,0.999,-0.556,0.340,0.079,0.218,120.116,5.520,1.150,0.412,5,5,3.927
1777577932762,-0.080,1.046,-0.572,0.392,0.101,0.201,120.053,5.447,1.195,0.452,5,5,3.268
1777577932775,-0.096,1.044,-0.586,0.445,0.113,0.180,120.020,5.409,1.201,0.493,5,5,3.255
1777577932789,-0.079,1.117,-0.591,0.526,0.116,0.151,119.927,5.328,1.266,0.559,5,5,3.249
1777577932802,-0.069,1.140,-0.590,0.610,0.118,0.122,119.813,5.229,1.286,0.633,5,5,3.251
1777577932815,-0.089,1.137,-0.591,0.697,0.115,0.099,119.711,5.174,1.285,0.713,3,3,3.872
1777577932829,-0.087,1.164,-0.601,0.792,0.127,0.097,119.606,5.114,1.312,0.808,3,3,3.273
1777577932843,-0.045,1.145,-0.619,0.900,0.115,0.086,119.553,4.977,1.302,0.911,3,3,3.253
1777577932856,-0.100,1.162,-0.617,1.017,0.114,0.083,119.483,4.948,1.320,1.026,3,3,3.262
1777577932870,-0.079,1.159,-0.611,1.128,0.099,0.087,119.409,4.883,1.312,1.136,3,3,3.261
1777577932883,-0.110,1.201,-0.609,1.260,0.093,0.108,119.299,4.873,1.351,1.268,4,4,3.928
1777577932897,-0.103,1.257,-0.616,1.435,0.100,0.104,119.159,4.843,1.403,1.442,4,4,3.273
1777577932910,0.019,1.428,-0.570,1.668,0.106,0.077,118.836,4.600,1.538,1.673,4,4,3.251
1777577932924,0.057,1.408,-0.569,1.911,0.091,0.026,118.538,4.304,1.520,1.913,4,4,3.290
1777577932937,0.106,1.478,-0.558,2.183,0.049,-0.047,118.195,3.948,1.583,2.184,4,4,3.264
1777577932951,0.109,1.548,-0.602,2.492,0.030,-0.116,117.891,3.611,1.664,2.495,4,4,3.933
1777577932965,0.169,1.592,-0.648,2.501,-0.010,-0.173,117.639,3.207,1.727,2.507,4,4,3.270
1777577932978,0.056,1.637,-0.700,2.501,-0.022,-0.193,117.444,2.988,1.781,2.509,4,4,3.259
1777577932991,0.097,1.465,-0.766,2.501,-0.020,-0.192,117.451,2.710,1.656,2.509,4,4,3.271
1777577933005,0.155,1.243,-0.869,2.501,-0.038,-0.055,117.779,2.335,1.525,2.502,4,4,3.261
1777577933018,0.057,1.269,-0.951,2.501,-0.101,-0.172,118.176,2.143,1.587,2.509,4,4,3.967
1777577933032,-0.047,1.217,-0.991,2.501,-0.020,0.069,118.656,2.124,1.570,2.502,4,4,3.266
1777577933046,0.075,1.164,-0.801,2.501,-0.019,0.574,118.912,1.898,1.415,2.566,4,4,3.555
1777577933059,0.112,1.074,-0.551,2.501,-0.124,1.082,118.834,1.583,1.212,2.728,4,4,3.282
1777577933073,-0.041,1.681,-0.162,2.501,-0.272,1.336,117.814,1.575,1.689,2.849,4,4,3.244
1777577933086,0.129,0.524,0.246,2.501,-0.443,1.248,115.496,0.956,0.593,2.830,4,4,3.860
1777577933100,0.396,-1.750,-0.615,2.294,-0.617,0.631,105.663,0.388,1.897,2.458,4,4,3.258
1777577933113,-0.170,-0.632,-0.512,1.131,-0.647,0.099,95.399,0.886,0.831,1.306,4,4,3.240
1777577933127,-0.337,-0.475,-0.505,0.162,-0.460,-0.458,85.245,1.980,0.771,0.669,4,4,3.258
1777577933140,-0.307,-0.306,-0.404,-0.650,-0.273,-0.718,75.269,3.258,0.592,1.006,4,4,3.239
1777577933153,-0.294,0.035,-0.366,-1.231,-0.058,-0.758,79.612,4.806,0.470,1.447,4,4,3.864
1777577933167,-0.126,0.144,-0.287,-1.616,0.077,-0.727,82.836,5.535,0.345,1.774,4,4,3.282
1777577933181,-0.040,0.050,-0.245,-1.975,0.128,-0.640,86.578,5.690,0.254,2.080,4,4,3.245
1777577933194,-0.008,-0.012,-0.230,-2.363,0.114,-0.393,75.047,5.524,0.231,2.398,4,4,3.253
1777577933208,-0.000,0.102,-0.164,-2.501,0.065,-0.069,78.237,5.285,0.193,2.503,4,4,3.496
1777577933221,0.123,0.339,-0.149,-2.501,-0.033,0.101,79.791,4.251,0.390,2.504,4,4,3.932
1777577933235,0.135,0.456,-0.175,-2.501,-0.184,0.197,81.154,3.388,0.506,2.516,4,4,3.253
1777577933248,0.094,0.541,-0.241,-2.501,-0.323,0.249,82.591,2.843,0.600,2.534,4,4,3.259
1777577933262,0.013,0.545,-0.295,-2.501,-0.426,0.240,84.159,2.667,0.620,2.549,4,4,3.269
1777577933275,-0.054,0.571,-0.347,-2.501,-0.493,0.182,85.784,2.754,0.670,2.556,4,4,3.252
1777577933288,-0.119,0.629,-0.401,-2.501,-0.514,0.159,87.391,3.031,0.755,2.559,4,4,3.896
1777577933303,-0.146,0.723,-0.479,-2.501,-0.507,0.189,88.972,3.316,0.879,2.559,4,4,3.254
1777577933316,-0.175,0.894,-0.587,-2.501,-0.474,0.205,90.473,3.576,1.084,2.554,4,4,3.260
1777577933329,-0.214,0.988,-0.661,-2.501,-0.396,0.113,91.930,3.867,1.207,2.535,4,4,3.249
1777577933343,-0.312,1.156,-0.817,-2.501,-0.267,0.006,93.386,4.242,1.450,2.516,4,4,3.257
1777577933356,-0.343,1.145,-0.878,-2.501,-0.078,-0.124,94.878,4.641,1.483,2.506,5,5,4.134
1777577933370,-0.335,1.129,-0.875,-2.501,0.167,-0.226,96.316,5.015,1.467,2.517,5,5,3.262
1777577933383,-0.261,1.166,-0.851,-2.501,0.407,-0.244,97.619,5.243,1.467,2.546,5,5,3.264
1777577933397,-0.186,1.253,-0.855,-2.501,0.614,-0.169,98.786,5.319,1.528,2.581,5,5,3.259
1777577933410,-0.098,1.314,-0.887,-2.501,0.766,-0.095,99.890,5.241,1.589,2.618,5,5,3.261
1777577933424,-0.035,1.444,-0.941,-2.501,0.875,-0.040,100.905,5.062,1.724,2.650,5,5,3.927
1777577933438,0.029,1.461,-0.996,-2.501,0.904,0.078,101.927,4.800,1.768,2.661,5,5,3.329
1777577933451,0.072,1.550,-1.063,-2.501,0.858,0.164,102.912,4.493,1.881,2.650,5,5,3.268
1777577933464,0.073,1.583,-1.151,-2.501,0.768,0.168,103.922,4.204,1.958,2.622,5,5,3.266
1777577933478,0.061,1.595,-1.210,-2.262,0.661,0.095,104.940,3.943,2.003,2.358,5,5,3.254
1777577933491,0.127,1.577,-1.228,-1.913,0.548,-0.073,105.944,3.612,2.003,1.992,5,5,3.926
1777577933505,0.241,1.500,-1.275,-1.535,0.410,-0.165,107.012,3.149,1.983,1.597,5,5,3.260
1777577933518,0.371,1.180,-1.314,-1.285,0.232,0.037,108.371,2.493,1.805,1.306,5,5,3.287
1777577933532,0.429,0.962,-1.317,-1.189,0.001,0.458,109.922,1.740,1.687,1.274,5,5,3.256
1777577933545,0.252,1.053,-1.371,-0.974,-0.171,0.797,111.346,1.301,1.747,1.270,5,5,3.290
1777577933559,-0.040,1.016,-1.398,-0.611,-0.226,0.798,112.774,1.302,1.728,1.030,1,1,4.491
1777577933573,-0.341,0.840,-1.376,-0.252,-0.134,0.478,114.340,1.767,1.648,0.556,1,1,3.268
1777577933587,-0.413,0.778,-1.314,0.008,0.013,0.080,115.873,2.352,1.582,0.081,1,1,3.266
1777577933600,-0.340,0.800,-1.247,0.251,0.163,-0.128,117.248,2.815,1.520,0.325,1,1,3.263
1777577933613,-0.234,0.791,-1.163,0.438,0.269,-0.107,118.495,3.105,1.426,0.525,1,1,3.293
1777577933627,-0.100,4.000,-1.400,0.892,0.315,-2.425,118.093,3.028,4.239,2.603,1,1,3.924
1777577933641,-0.155,1.219,0.980,1.699,0.597,-0.599,115.167,3.144,1.572,1.898,1,1,3.274
1777577933654,-0.162,1.208,0.276,2.144,0.343,-0.479,113.503,3.332,1.250,2.223,1,1,3.269
1777577933668,-0.188,0.827,-0.187,2.211,0.014,-0.406,113.032,3.734,0.868,2.248,1,1,3.262
1777577933681,-0.290,0.877,-0.265,2.143,-0.037,-0.188,112.760,4.339,0.961,2.151,1,1,3.268
1777577933694,-0.091,0.939,-0.542,2.014,-0.153,-0.100,113.076,4.359,1.089,2.022,1,1,3.912
1777577933708,-0.283,0.888,-0.518,1.751,0.013,0.066,113.390,4.841,1.067,1.752,1,1,3.272
1777577933722,-0.138,0.887,-0.552,1.531,0.117,0.087,113.761,4.958,1.054,1.538,1,1,3.300
1777577933735,-0.125,0.803,-0.592,1.283,0.182,0.075,114.314,5.053,1.006,1.298,1,1,3.260
1777577933749,-0.066,0.822,-0.591,1.057,0.227,0.056,114.812,4.995,1.015,1.082,1,1,3.275
1777577933762,-0.002,0.779,-0.657,0.769,0.172,-0.022,115.483,4.782,1.019,0.789,1,1,3.986
1777577933776,-0.103,0.842,-0.583,0.581,0.168,-0.068,115.886,4.824,1.029,0.609,1,1,3.341
1777577933789,-0.025,0.871,-0.540,0.481,0.102,-0.109,116.144,4.675,1.025,0.504,1,1,3.264
1777577933803,-0.070,0.881,-0.526,0.407,0.070,-0.130,116.350,4.641,1.029,0.433,1,1,3.260
1777577933816,-0.060,0.923,-0.511,0.377,0.030,-0.171,116.464,4.580,1.056,0.415,1,1,3.265
1777577933829,-0.068,0.658,-0.765,0.257,-0.076,-0.167,117.464,4.547,1.012,0.316,1,1,3.888
1777577933844,-0.151,0.935,-0.489,0.173,-0.050,-0.144,117.469,4.705,1.066,0.231,1,1,3.313
1777577933857,-0.146,0.918,-0.529,0.171,-0.078,-0.121,117.577,4.843,1.069,0.223,1,1,3.255
1777577933870,-0.156,0.905,-0.515,0.152,-0.070,-0.086,117.667,5.002,1.053,0.188,1,1,3.260
1777577933884,-0.177,0.934,-0.512,0.151,-0.050,-0.046,117.714,5.196,1.079,0.165,1,1,3.266
1777577933897,-0.166,0.908,-0.527,0.145,-0.033,-0.007,117.820,5.360,1.063,0.148,1,1,3.905
1777577933911,-0.145,0.943,-0.497,0.143,-0.024,0.018,117.819,5.464,1.076,0.146,1,1,3.289
1777577933924,-0.126,0.901,-0.526,0.122,-0.019,0.002,117.927,5.527,1.051,0.123,1,1,3.276
1777577933938,-0.115,0.905,-0.525,0.114,-0.022,-0.001,118.022,5.559,1.052,0.116,1,1,3.271
1777577933951,-0.120,0.892,-0.519,0.098,-0.025,-0.008,118.117,5.605,1.039,0.102,1,1,3.262
1777577933965,-0.128,0.897,-0.520,0.088,-0.027,-0.008,118.204,5.668,1.044,0.092,1,1,4.381
1777577933979,-0.128,0.877,-0.536,0.078,-0.027,-0.013,118.346,5.729,1.036,0.084,1,1,3.261
1777577933993,-0.142,0.885,-0.520,0.067,-0.024,-0.011,118.438,5.824,1.036,0.072,1,1,3.248
1777577934006,-0.128,0.900,-0.531,0.061,-0.022,-0.005,118.529,5.875,1.052,0.065,1,1,3.264
1777577934019,-0.146,0.917,-0.520,0.064,-0.017,-0.003,118.575,5.963,1.064,0.066,1,1,3.265
1777577934033,-0.133,0.895,-0.528,0.060,-0.013,-0.001,118.661,6.020,1.047,0.062,1,1,3.893
1777577934047,-0.165,0.883,-0.537,0.048,-0.005,0.015,118.777,6.154,1.046,0.051,1,1,3.268
1777577934060,-0.157,0.903,-0.538,0.041,0.002,0.023,118.864,6.258,1.063,0.047,1,1,3.255
1777577934074,-0.139,0.896,-0.532,0.034,0.006,0.024,118.944,6.316,1.052,0.042,1,1,3.327
1777577934087,-0.140,0.897,-0.532,0.029,0.008,0.029,119.021,6.374,1.052,0.042,1,1,3.284
1777577934100,-0.129,0.900,-0.536,0.022,0.010,0.028,119.097,6.403,1.055,0.037,1,1,3.908
1777577934115,-0.137,0.896,-0.528,0.023,0.011,0.030,119.158,6.452,1.049,0.040,1,1,3.266
1777577934128,-0.150,0.897,-0.529,0.019,0.023,0.040,119.217,6.528,1.052,0.050,1,1,3.255
1777577934141,-0.142,0.892,-0.539,0.012,0.028,0.048,119.300,6.581,1.052,0.057,1,1,3.274
1777577934155,-0.140,0.881,-0.541,0.013,0.033,0.059,119.397,6.631,1.043,0.069,1,1,3.268
1777577934168,-0.154,0.890,-0.540,0.005,0.039,0.068,119.478,6.710,1.053,0.079,1,1,3.899
1777577934182,-0.134,0.894,-0.535,-0.002,0.049,0.073,119.541,6.736,1.050,0.088,1,1,3.263
1777577934195,-0.120,0.913,-0.536,0.003,0.052,0.075,119.580,6.724,1.066,0.091,1,1,3.250
1777577934209,-0.116,0.903,-0.532,0.007,0.055,0.068,119.619,6.706,1.055,0.088,1,1,3.267
1777577934222,-0.121,0.887,-0.539,-0.002,0.063,0.066,119.692,6.702,1.045,0.091,1,1,3.256
1777577934235,-0.102,0.907,-0.538,0.004,0.064,0.064,119.735,6.651,1.060,0.090,1,1,3.917
1777577934249,-0.101,0.927,-0.531,0.016,0.064,0.054,119.738,6.596,1.073,0.085,1,1,3.288
1777577934264,-0.103,0.921,-0.531,0.043,0.056,0.051,119.749,6.550,1.068,0.087,1,1,4.733
1777577934278,-0.113,0.890,-0.549,0.047,0.057,0.066,119.833,6.534,1.052,0.099,1,1,3.260
1777577934291,-0.104,0.910,-0.535,0.050,0.055,0.071,119.860,6.495,1.061,0.103,1,1,3.252
1777577934305,-0.103,0.922,-0.540,0.048,0.056,0.089,119.882,6.451,1.073,0.116,1,1,3.907
1777577934319,-0.104,0.939,-0.540,0.072,0.047,0.117,119.884,6.408,1.088,0.145,1,1,3.260
1777577934332,-0.098,1.020,-0.560,0.106,0.051,0.149,119.834,6.338,1.168,0.190,1,1,3.282
1777577934346,-0.248,1.287,-0.550,0.254,0.072,0.212,119.541,6.499,1.421,0.338,1,1,3.269
1777577934359,-0.093,1.077,-0.562,0.363,0.092,0.290,119.453,6.407,1.218,0.474,1,1,3.255
1777577934375,-0.147,1.214,-0.550,0.500,0.120,0.357,119.231,6.403,1.341,0.626,4,4,3.925
1777577934389,-0.095,1.259,-0.572,0.636,0.135,0.336,119.020,6.295,1.385,0.732,4,4,3.249
1777577934402,-0.156,1.369,-0.584,0.822,0.157,0.255,118.761,6.281,1.497,0.875,4,4,3.263
1777577934416,-0.122,1.454,-0.555,1.005,0.165,0.130,118.417,6.203,1.561,1.026,4,4,3.255
1777577934429,-0.086,1.316,-0.556,1.183,0.182,0.136,118.176,6.083,1.432,1.205,4,4,3.255
1777577934442,-0.087,1.316,-0.561,1.322,0.170,0.118,117.952,5.969,1.433,1.338,4,4,3.888
1777577934456,-0.025,1.304,-0.524,1.517,0.147,0.082,117.688,5.752,1.405,1.526,4,4,3.249
1777577934470,-0.002,1.252,-0.543,1.671,0.106,0.080,117.503,5.504,1.365,1.677,4,4,3.256
1777577934483,-0.021,1.308,-0.534,1.859,0.095,0.043,117.271,5.301,1.413,1.862,4,4,3.260
1777577934496,0.010,1.357,-0.535,2.069,0.082,0.021,117.020,5.051,1.459,2.071,4,4,3.272
1777577934510,0.015,1.443,-0.518,2.300,0.065,-0.054,116.702,4.806,1.533,2.302,4,4,3.923
1777577934524,0.072,1.438,-0.558,2.501,0.035,-0.112,116.462,4.479,1.544,2.504,4,4,3.263
1777577934537,-0.051,1.512,-0.587,2.501,0.031,-0.151,116.232,4.361,1.622,2.506,4,4,3.261
1777577934551,0.003,1.535,-0.646,2.501,0.018,-0.178,116.083,4.166,1.666,2.508,4,4,3.266
1777577934564,-0.163,1.310,-0.805,2.501,0.035,-0.230,116.323,4.248,1.546,2.512,4,4,3.259
1777577934577,0.077,1.285,-0.778,2.501,0.063,-0.186,116.536,3.934,1.504,2.509,4,4,3.999
1777577934591,0.032,1.215,-0.874,2.501,0.029,-0.324,116.938,3.709,1.497,2.522,4,4,3.298
1777577934606,-0.005,0.995,-0.833,2.501,0.082,-0.372,117.506,3.557,1.298,2.530,4,4,3.285
1777577934619,0.109,1.040,-0.749,2.501,0.086,-0.088,117.867,3.189,1.286,2.504,4,4,3.266
1777577934632,0.110,1.001,-0.733,2.501,0.046,0.340,118.232,2.829,1.246,2.525,4,4,3.266
1777577934646,0.027,0.951,-0.489,2.501,0.038,0.822,118.187,2.642,1.070,2.633,4,4,3.945
1777577934660,0.499,-0.285,0.009,2.501,-0.150,0.958,109.161,-0.109,0.574,2.683,4,4,3.282
1777577934673,0.664,-0.182,0.345,2.358,-0.520,0.952,103.170,-2.709,0.771,2.595,4,4,3.258
1777577934687,0.197,-0.285,-0.951,1.800,-0.611,0.833,91.516,-3.082,1.013,2.075,4,4,3.253
1777577934700,-0.244,-0.727,-0.549,0.818,-0.616,0.740,81.957,-2.290,0.943,1.263,4,4,3.272
1777577934713,-0.282,-0.786,-0.391,-0.173,-0.405,0.004,73.279,-1.411,0.922,0.440,4,4,3.885
1777577934727,-0.291,-0.432,-0.419,-1.041,-0.217,-0.636,64.209,-0.221,0.668,1.238,4,4,3.268
1777577934741,-0.300,-0.231,-0.379,-1.677,-0.019,-0.890,54.903,1.277,0.536,1.899,4,4,3.262
1777577934754,-0.216,-0.031,-0.319,-2.147,0.099,-0.877,44.877,2.709,0.387,2.321,4,4,3.256
1777577934767,-0.186,0.030,-0.317,-2.501,0.177,-0.668,50.550,3.916,0.369,2.595,4,4,3.353
1777577934781,-0.101,0.054,-0.298,-2.501,0.161,-0.294,55.759,4.551,0.320,2.524,4,4,3.904
1777577934795,-0.039,0.313,-0.263,-2.501,0.122,0.136,59.005,4.590,0.411,2.508,4,4,3.323
1777577934808,0.134,0.573,-0.240,-2.501,-0.025,0.504,61.355,3.859,0.636,2.552,4,4,3.261
1777577934822,0.138,0.616,-0.287,-2.501,-0.205,0.848,63.699,3.190,0.694,2.649,4,4,3.265
1777577934835,0.082,0.551,-0.339,-2.501,-0.422,1.016,66.231,2.735,0.652,2.733,4,4,3.268
1777577934848,-0.079,0.513,-0.358,-2.501,-0.600,0.980,68.799,2.929,0.631,2.753,4,4,3.904
1777577934863,-0.241,0.575,-0.374,-2.501,-0.717,0.804,71.170,3.648,0.727,2.724,4,4,3.289
1777577934876,-0.286,0.648,-0.396,-2.501,-0.797,0.623,73.366,4.390,0.811,2.698,4,4,3.281
1777577934889,-0.304,0.725,-0.462,-2.501,-0.855,0.560,75.514,5.050,0.912,2.702,4,4,3.260
1777577934903,-0.366,0.880,-0.555,-2.501,-0.861,0.618,77.558,5.677,1.103,2.717,4,4,3.297
1777577934916,-0.507,1.059,-0.660,-2.501,-0.768,0.714,79.499,6.396,1.347,2.712,5,5,3.926
1777577934930,-0.626,1.096,-0.753,-2.501,-0.561,0.697,81.467,7.219,1.470,2.657,5,5,3.287
1777577934943,-0.693,1.044,-0.786,-2.501,-0.280,0.465,83.457,8.125,1.479,2.560,5,5,3.264
1777577934957,-0.662,1.014,-0.750,-2.501,0.034,0.150,85.339,8.981,1.424,2.506,5,5,3.286
1777577934970,-0.562,1.118,-0.724,-2.501,0.334,0.026,86.983,9.588,1.445,2.524,5,5,3.286
1777577934984,-0.377,1.251,-0.756,-2.501,0.559,0.131,88.477,9.801,1.509,2.567,5,5,3.932
1777577934998,-0.165,1.350,-0.776,-2.501,0.689,0.326,89.850,9.637,1.566,2.615,5,5,3.279
1777577935011,-0.066,1.431,-0.805,-2.501,0.725,0.406,91.141,9.317,1.644,2.636,5,5,3.256
1777577935024,-0.084,1.504,-0.872,-2.501,0.749,0.468,92.407,9.030,1.741,2.653,5,5,3.282
1777577935038,-0.119,1.478,-0.966,-2.501,0.781,0.557,93.753,8.804,1.770,2.679,5,5,3.298
1777577935051,-0.108,1.493,-1.071,-2.501,0.769,0.576,95.147,8.566,1.840,2.680,5,5,3.939
1777577935065,-0.088,1.512,-1.173,-2.429,0.716,0.326,96.575,8.306,1.916,2.553,5,5,3.279
1777577935079,-0.044,1.527,-1.246,-2.204,0.637,-0.086,98.003,7.999,1.971,2.296,5,5,3.269
1777577935092,0.106,1.435,-1.382,-1.925,0.521,-0.337,99.574,7.515,1.995,2.022,5,5,3.293
1777577935105,0.365,1.274,-1.457,-1.619,0.307,-0.317,101.290,6.720,1.969,1.678,5,5,3.269
1777577935120,0.529,1.068,-1.683,-1.290,-0.041,0.088,103.315,5.775,2.062,1.294,5,5,4.979
1777577935134,0.268,0.982,-1.814,-0.855,-0.345,0.405,105.425,5.199,2.080,1.007,5,5,3.272
1777577935147,-0.260,0.849,-1.867,-0.376,-0.418,0.367,107.618,5.287,2.067,0.671,5,5,3.278
1777577935161,-0.550,0.689,-1.862,0.083,-0.320,-0.080,109.895,5.733,2.060,0.340,5,5,3.271
1777577935174,-0.474,0.687,-1.769,0.485,-0.169,-0.569,112.033,6.095,1.956,0.767,5,5,3.273
1777577935187,0.295,0.509,0.751,1.255,-0.291,-0.270,108.626,5.041,0.954,1.316,1,1,3.868
1777577935201,-0.048,1.438,0.764,1.871,-0.840,-0.565,106.587,4.894,1.628,2.127,1,1,3.251
1777577935215,-0.163,1.005,-0.142,2.133,-0.615,-0.695,106.214,5.079,1.028,2.326,1,1,3.263
1777577935228,-0.374,1.041,-0.167,2.083,-0.210,-0.547,105.903,5.711,1.118,2.164,1,1,3.252
1777577935241,-0.183,0.939,-0.261,2.017,0.037,-0.503,105.889,5.927,0.992,2.079,1,1,3.238
1777577935255,-0.072,0.817,-0.450,1.843,0.001,-0.496,106.456,5.860,0.935,1.909,1,1,3.930
1777577935269,-0.384,0.906,-0.408,1.664,0.048,-0.345,106.797,6.528,1.065,1.700,1,1,3.255
1777577935282,-0.287,0.915,-0.447,1.564,0.006,-0.157,107.201,6.930,1.058,1.572,1,1,3.270
1777577935296,-0.446,0.871,-0.468,1.439,0.117,0.071,107.684,7.688,1.084,1.446,1,1,3.271
1777577935309,-0.277,0.838,-0.563,1.299,0.268,0.237,108.393,8.022,1.047,1.347,1,1,3.256
1777577935322,0.046,0.547,-0.872,1.082,0.275,0.287,110.121,7.560,1.030,1.153,1,1,3.988
1777577935337,-0.156,0.709,-0.661,0.769,0.299,0.252,111.120,7.629,0.982,0.863,1,1,3.309
1777577935350,-0.001,0.813,-0.616,0.564,0.264,0.188,111.821,7.297,1.020,0.650,1,1,3.290
1777577935363,-0.028,0.869,-0.554,0.450,0.201,0.176,112.290,7.045,1.031,0.524,1,1,3.266
1777577935377,0.032,0.581,-0.721,0.326,0.092,0.189,113.552,6.650,0.926,0.388,1,1,3.252
1777577935390,-0.149,0.712,-0.602,0.130,0.074,0.133,114.280,6.757,0.945,0.200,1,1,3.993
1777577935404,-0.035,0.912,-0.524,0.123,0.042,0.123,114.526,6.545,1.052,0.179,1,1,3.246
1777577935418,-0.022,0.871,-0.553,0.060,0.015,0.123,114.871,6.312,1.031,0.138,1,1,3.299
1777577935431,-0.038,0.875,-0.547,0.028,0.035,0.125,115.183,6.128,1.032,0.133,1,1,3.261
1777577935444,-0.099,0.960,-0.486,0.035,0.026,0.144,115.256,6.089,1.080,0.150,1,1,3.275
1777577935458,-0.081,0.879,-0.522,0.014,0.032,0.161,115.494,6.022,1.026,0.165,1,1,3.898
1777577935472,-0.102,0.950,-0.506,0.012,0.043,0.200,115.606,5.996,1.081,0.205,1,1,3.258
1777577935485,-0.073,1.001,-0.463,0.022,0.070,0.227,115.571,5.899,1.106,0.239,1,1,3.294
1777577935498,-0.052,0.927,-0.505,0.011,0.067,0.249,115.702,5.765,1.058,0.258,1,1,3.264
1777577935512,-0.053,0.988,-0.480,0.018,0.090,0.237,115.712,5.634,1.100,0.254,1,1,3.260
1777577935525,0.019,0.929,-0.481,0.015,0.074,0.203,115.785,5.342,1.047,0.216,1,1,3.945
1777577935539,0.042,0.922,-0.482,0.001,0.076,0.164,115.864,5.007,1.042,0.181,1,1,3.256
1777577935553,-0.008,1.012,-0.498,0.019,0.058,0.120,115.878,4.806,1.127,0.135,1,1,3.289
1777577935566,0.051,0.916,-0.475,0.012,0.041,0.078,115.946,4.472,1.033,0.089,1,1,3.270
1777577935579,0.017,0.932,-0.500,0.018,0.019,0.052,116.046,4.235,1.058,0.058,1,1,3.312
1777577935593,0.010,0.894,-0.501,0.022,0.011,0.035,116.188,4.026,1.025,0.042,1,1,4.016
1777577935607,-0.017,0.943,-0.483,0.036,0.014,0.036,116.228,3.891,1.059,0.053,1,1,3.272
1777577935620,0.011,0.936,-0.494,0.041,0.013,0.033,116.298,3.694,1.059,0.055,1,1,3.305
1777577935634,-0.002,0.929,-0.512,0.047,0.014,0.028,116.411,3.538,1.060,0.057,1,1,3.274
1777577935647,-0.004,0.932,-0.514,0.050,0.015,0.023,116.519,3.394,1.064,0.057,1,1,3.295
1777577935661,0.016,0.914,-0.508,0.048,0.010,0.006,116.630,3.206,1.046,0.049,1,1,3.950
1777577935675,0.023,0.922,-0.513,0.039,0.002,-0.005,116.737,3.010,1.056,0.040,1,1,3.259
1777577935688,0.009,0.922,-0.520,0.033,-0.002,-0.016,116.853,2.857,1.059,0.037,1,1,3.318
1777577935701,0.010,0.916,-0.514,0.025,-0.011,-0.030,116.960,2.709,1.050,0.040,1,1,3.246
1777577935715,-0.016,0.916,-0.511,0.019,-0.011,-0.026,117.057,2.628,1.049,0.034,1,1,3.297
1777577935728,-0.021,0.922,-0.523,0.017,-0.011,-0.019,117.167,2.563,1.060,0.028,1,1,3.876
1777577935742,-0.067,0.987,-0.523,0.019,-0.006,0.003,117.200,2.601,1.119,0.020,1,1,3.249
1777577935755,-0.030,0.938,-0.519,0.022,-0.002,0.011,117.278,2.558,1.073,0.024,1,1,3.251
1777577935769,-0.014,0.916,-0.522,0.026,-0.008,0.018,117.384,2.480,1.054,0.032,1,1,3.240
1777577935782,-0.013,0.927,-0.515,0.027,0.005,0.017,117.457,2.402,1.060,0.032,1,1,3.277
1777577935796,-0.008,0.934,-0.511,0.031,0.007,0.009,117.511,2.315,1.065,0.033,1,1,4.219
1777577935810,0.006,0.940,-0.507,0.039,0.009,-0.006,117.548,2.199,1.068,0.040,1,1,3.279
1777577935823,-0.018,0.930,-0.519,0.045,0.015,-0.009,117.617,2.145,1.065,0.048,1,1,3.270
1777577935837,-0.012,0.935,-0.513,0.051,0.017,-0.010,117.667,2.080,1.067,0.055,1,1,3.274
1777577935850,-0.015,0.927,-0.521,0.059,0.024,-0.015,117.740,2.025,1.063,0.066,1,1,3.303
1777577935864,0.002,0.932,-0.512,0.063,0.024,-0.027,117.785,1.932,1.063,0.072,1,1,3.948
1777577935878,0.005,0.917,-0.525,0.063,0.026,-0.040,117.872,1.837,1.057,0.079,1,1,3.305
1777577935891,-0.016,0.929,-0.520,0.065,0.027,-0.037,117.931,1.794,1.065,0.080,1,1,3.273
1777577935904,-0.013,0.920,-0.530,0.065,0.032,-0.034,118.018,1.747,1.062,0.080,1,1,3.263
1777577935918,-0.043,0.918,-0.524,0.064,0.036,-0.014,118.093,1.773,1.058,0.075,1,1,3.283
1777577935931,-0.035,0.916,-0.520,0.064,0.052,0.001,118.158,1.779,1.053,0.082,1,1,3.931
1777577935945,-0.046,0.943,-0.523,0.080,0.061,0.028,118.196,1.808,1.079,0.105,1,1,3.280
1777577935959,0.004,0.916,-0.540,0.083,0.066,0.015,118.298,1.720,1.063,0.107,1,1,3.266
1777577935972,-0.010,0.906,-0.539,0.080,0.062,-0.002,118.404,1.667,1.054,0.101,1,1,3.265
1777577935985,0.047,0.909,-0.531,0.069,0.057,-0.050,118.487,1.483,1.054,0.102,1,1,3.261
1777577935999,0.077,0.896,-0.537,0.055,0.041,-0.117,118.593,1.233,1.047,0.136,4,4,3.975
1777577936013,0.082,0.886,-0.533,0.044,0.019,-0.194,118.699,0.981,1.037,0.200,4,4,3.281
1777577936026,0.053,0.910,-0.521,0.032,0.007,-0.256,118.747,0.812,1.050,0.258,4,4,3.254
1777577936039,0.050,0.865,-0.534,0.003,-0.015,-0.316,118.875,0.653,1.018,0.316,4,4,3.303
1777577936053,0.121,0.927,-0.507,0.002,-0.049,-0.384,118.865,0.338,1.064,0.387,4,4,3.310
1777577936066,0.081,0.935,-0.508,-0.021,-0.108,-0.420,118.849,0.132,1.067,0.434,4,4,3.928
1777577936080,0.075,0.915,-0.544,-0.034,-0.159,-0.456,118.931,-0.049,1.067,0.484,4,4,3.283
1777577936094,0.016,0.965,-0.488,0.020,-0.220,-0.463,118.840,-0.085,1.081,0.513,4,4,3.264
1777577936107,0.044,1.027,-0.484,0.118,-0.252,-0.446,118.683,-0.179,1.136,0.525,4,4,3.276
1777577936121,0.121,1.059,-0.441,0.244,-0.325,-0.376,118.418,-0.433,1.154,0.554,4,4,3.275
1777577936134,0.215,1.037,-0.429,0.293,-0.453,-0.178,118.158,-0.889,1.143,0.568,4,4,3.935
1777577936148,0.602,1.143,-0.434,0.315,-0.739,0.144,117.837,-1.996,1.363,0.816,4,4,3.321
1777577936162,0.957,1.140,-0.396,0.204,-1.262,0.777,117.458,-3.589,1.540,1.496,4,4,4.277
1777577936176,0.861,1.257,-0.169,0.326,-1.767,1.170,116.591,-4.927,1.533,2.144,4,4,3.276
1777577936189,0.865,1.489,-0.100,0.435,-2.260,1.452,115.597,-6.028,1.725,2.721,4,4,3.258
1777577936203,0.425,1.184,-0.151,0.554,-2.501,1.477,114.796,-6.622,1.267,2.957,4,4,3.878
1777577936217,0.635,1.199,0.016,0.578,-2.501,1.550,113.678,-7.554,1.357,2.999,4,4,3.253
1777577936230,0.219,1.148,-0.046,0.554,-2.501,1.606,112.744,-7.695,1.169,3.024,4,4,3.241
1777577936243,0.099,1.162,0.031,0.528,-2.501,1.680,111.683,-7.571,1.166,3.059,4,4,3.265
1777577936257,0.098,1.139,0.024,0.509,-2.501,1.705,110.682,-7.455,1.143,3.070,4,4,3.245
1777577936270,-0.112,1.162,-0.071,0.493,-2.501,1.695,109.930,-6.888,1.170,3.062,4,4,3.884
1777577936284,-0.241,1.184,-0.131,0.509,-2.501,1.588,109.335,-6.087,1.215,3.006,4,4,3.270
1777577936297,-0.425,1.062,-0.217,0.494,-2.501,1.454,108.993,-4.884,1.164,2.935,4,4,3.272
1777577936311,-0.545,0.989,-0.197,0.533,-2.501,1.298,108.655,-3.429,1.146,2.868,4,4,3.271
1777577936325,-0.336,1.059,-0.293,0.573,-2.501,1.215,108.515,-2.535,1.149,2.839,4,4,4.190
1777577936338,-0.298,1.029,-0.308,0.605,-2.501,1.084,108.434,-1.745,1.115,2.792,4,4,3.946
1777577936352,-0.212,1.070,-0.167,0.619,-2.501,1.127,108.014,-1.185,1.103,2.813,4,4,3.304
1777577936366,-0.114,1.062,-0.289,0.589,-2.501,1.163,107.892,-0.876,1.106,2.821,4,4,3.278
1777577936379,-0.195,1.141,-0.198,0.630,-2.501,1.206,107.539,-0.419,1.174,2.847,4,4,3.331
1777577936393,-0.096,1.088,-0.185,0.624,-2.501,1.207,107.193,-0.183,1.107,2.847,4,4,3.256
1777577936406,-0.016,1.066,-0.141,0.629,-2.501,1.239,106.771,-0.138,1.076,2.862,4,4,3.980
1777577936420,0.037,1.133,-0.155,0.630,-2.501,1.322,106.379,-0.212,1.144,2.899,4,4,3.261
1777577936434,0.003,1.031,-0.142,0.618,-2.501,1.410,106.005,-0.211,1.041,2.937,4,4,3.266
1777577936447,-0.070,1.122,-0.064,0.638,-2.501,1.451,105.447,-0.045,1.126,2.961,4,4,3.287
1777577936460,-0.183,1.084,-0.081,0.609,-2.501,1.527,104.958,0.374,1.102,2.993,4,4,3.260
1777577936474,-0.184,1.103,-0.056,0.603,-2.501,1.548,104.430,0.772,1.120,3.003,4,4,3.995
1777577936488,-0.281,1.141,-0.077,0.598,-2.501,1.559,103.969,1.341,1.177,3.008,4,4,3.263
1777577936501,-0.349,1.066,-0.073,0.575,-2.501,1.570,103.528,2.073,1.124,3.009,4,4,3.277
1777577936514,-0.336,1.133,-0.068,0.557,-2.501,1.599,103.087,2.704,1.184,3.021,4,4,3.262
1777577936528,-0.400,1.082,-0.068,0.545,-2.501,1.606,102.673,3.470,1.156,3.022,4,4,3.259
1777577936541,-0.473,1.090,-0.063,0.527,-2.501,1.583,102.263,4.344,1.190,3.007,4,4,3.926
1777577936555,-0.499,1.007,-0.131,0.464,-2.501,1.625,102.050,5.299,1.132,3.018,4,4,3.266
1777577936569,-0.581,0.918,-0.182,0.404,-2.464,1.635,102.013,6.459,1.102,2.984,4,4,3.275
1777577936582,-0.683,0.945,-0.196,0.349,-2.293,1.561,102.001,7.721,1.182,2.795,4,4,3.277
1777577936595,-0.640,0.917,-0.278,0.294,-2.120,1.418,102.214,8.858,1.152,2.568,4,4,3.266
1777577936609,-0.631,0.929,-0.315,0.259,-1.938,1.276,102.498,9.903,1.166,2.335,1,1,3.973
1777577936623,-0.542,0.920,-0.376,0.227,-1.772,1.154,102.924,10.720,1.131,2.126,1,1,3.252
1777577936636,-0.416,0.933,-0.392,0.188,-1.663,1.115,103.355,11.228,1.094,2.011,1,1,3.270
1777577936650,-0.326,0.878,-0.410,0.157,-1.607,1.173,103.867,11.550,1.023,1.996,1,1,3.257
1777577936663,-0.392,0.920,-0.412,0.123,-1.531,1.140,104.314,11.974,1.081,1.913,1,1,3.297
1777577936678,-0.470,0.854,-0.433,0.086,-1.393,1.014,104.864,12.594,1.066,1.725,1,1,5.209
1777577936692,-0.505,0.780,-0.491,0.020,-1.241,0.905,105.622,13.299,1.050,1.535,1,1,3.280
1777577936705,-0.510,0.804,-0.499,-0.040,-1.088,0.816,106.330,13.955,1.075,1.361,1,1,3.263
1777577936718,-0.472,0.863,-0.518,-0.071,-0.941,0.680,106.969,14.445,1.112,1.163,1,1,3.264
1777577936732,-0.379,0.928,-0.512,-0.070,-0.820,0.596,107.489,14.674,1.126,1.017,1,1,3.257
1777577936745,-0.314,0.902,-0.535,-0.080,-0.744,0.567,108.066,14.762,1.094,0.939,1,1,3.860
1777577936759,-0.324,0.869,-0.520,-0.106,-0.675,0.558,108.627,14.894,1.063,0.882,1,1,3.265
1777577936772,-0.327,0.838,-0.535,-0.145,-0.588,0.521,109.237,15.038,1.047,0.799,1,1,3.257
1777577936786,-0.373,0.844,-0.553,-0.182,-0.477,0.448,109.849,15.266,1.076,0.680,1,1,3.243
1777577936799,-0.409,0.871,-0.537,-0.198,-0.337,0.304,110.365,15.551,1.102,0.495,1,1,3.295
1777577936813,-0.423,0.890,-0.527,-0.200,-0.185,0.157,110.814,15.844,1.117,0.315,1,1,3.930
1777577936827,-0.320,0.903,-0.526,-0.201,-0.050,0.127,111.225,15.896,1.093,0.243,1,1,3.288
1777577936840,-0.086,0.982,-0.504,-0.185,-0.032,0.182,111.485,15.397,1.107,0.261,1,1,3.263
1777577936853,-0.058,0.991,-0.495,-0.149,-0.054,0.220,111.706,14.854,1.110,0.271,1,1,3.271
1777577936867,-0.074,0.989,-0.495,-0.116,-0.052,0.218,111.919,14.371,1.108,0.253,1,1,3.332
1777577936880,-0.085,0.972,-0.521,-0.089,-0.026,0.178,112.193,13.935,1.106,0.201,1,1,3.932
1777577936894,-0.088,0.962,-0.521,-0.067,0.030,0.117,112.465,13.527,1.098,0.138,1,1,3.291
1777577936908,-0.023,0.946,-0.503,-0.055,0.037,0.096,112.708,12.989,1.072,0.116,1,1,3.297
1777577936921,0.003,0.945,-0.489,-0.036,0.020,0.087,112.912,12.413,1.064,0.096,1,1,3.273
1777577936935,-0.035,0.941,-0.500,-0.031,0.023,0.070,113.134,11.952,1.066,0.080,1,1,3.274
1777577936948,0.001,0.957,-0.492,-0.019,0.018,0.051,113.314,11.427,1.076,0.058,1,1,3.935
1777577936962,-0.025,0.945,-0.501,-0.009,0.005,0.036,113.515,10.985,1.070,0.038,1,1,3.310
1777577936975,-0.016,0.925,-0.504,-0.008,-0.003,0.024,113.738,10.542,1.053,0.025,1,1,3.259
1777577936989,-0.016,0.925,-0.503,-0.008,-0.012,-0.001,113.948,10.119,1.053,0.015,1,1,3.272
1777577937002,-0.014,0.930,-0.498,-0.005,-0.016,-0.015,114.132,9.709,1.055,0.023,1,1,3.269
1777577937015,-0.017,0.944,-0.495,0.005,-0.026,-0.030,114.287,9.325,1.066,0.040,1,1,3.942
1777577937030,-0.035,0.947,-0.490,0.020,-0.030,-0.042,114.421,9.000,1.067,0.055,1,1,3.268
1777577937043,-0.035,0.938,-0.496,0.033,-0.036,-0.051,114.572,8.689,1.062,0.070,1,1,3.274
1777577937056,-0.047,0.916,-0.505,0.027,-0.037,-0.056,114.761,8.421,1.047,0.072,1,1,3.289
1777577937070,-0.058,0.915,-0.512,0.022,-0.032,-0.054,114.957,8.191,1.051,0.067,1,1,3.262
1777577937083,-0.063,0.937,-0.504,0.023,-0.031,-0.049,115.102,7.980,1.065,0.062,1,1,3.914
1777577937097,-0.066,0.935,-0.497,0.031,-0.026,-0.044,115.228,7.788,1.061,0.060,1,1,3.287
1777577937111,-0.093,0.910,-0.517,0.038,-0.019,-0.024,115.420,7.670,1.051,0.049,1,1,3.257
1777577937124,-0.109,0.885,-0.522,0.019,-0.001,0.010,115.643,7.599,1.033,0.022,1,1,3.296
1777577937137,-0.102,0.919,-0.507,0.009,0.011,0.038,115.784,7.509,1.054,0.040,1,1,3.289
1777577937151,-0.072,0.911,-0.510,0.003,0.021,0.047,115.936,7.352,1.047,0.051,1,1,3.930
1777577937165,-0.076,0.912,-0.504,-0.000,0.026,0.067,116.066,7.213,1.044,0.072,1,1,3.269
1777577937178,-0.087,0.931,-0.498,-0.001,0.031,0.090,116.158,7.104,1.059,0.095,1,1,3.321
1777577937192,-0.023,0.916,-0.499,0.005,0.027,0.080,116.264,6.849,1.043,0.084,1,1,3.313
1777577937205,-0.013,0.917,-0.516,0.003,0.020,0.067,116.400,6.580,1.052,0.071,1,1,3.384
1777577937218,-0.007,0.923,-0.505,-0.000,0.010,0.053,116.501,6.309,1.052,0.054,1,1,3.875
1777577937233,0.030,0.914,-0.508,-0.004,-0.006,0.014,116.612,5.962,1.046,0.016,1,1,3.339
1777577937246,0.030,0.919,-0.502,-0.012,-0.017,-0.014,116.701,5.629,1.048,0.025,1,1,3.242
1777577937259,-0.005,0.926,-0.512,-0.015,-0.029,-0.044,116.799,5.394,1.058,0.054,1,1,3.265
1777577937273,-0.017,0.912,-0.513,-0.020,-0.029,-0.064,116.910,5.198,1.046,0.073,1,1,3.243
1777577937286,-0.036,0.924,-0.509,-0.021,-0.035,-0.071,116.994,5.055,1.056,0.082,1,1,3.874
1777577937300,-0.057,0.928,-0.505,-0.022,-0.034,-0.066,117.062,4.970,1.059,0.077,1,1,3.253
1777577937313,-0.060,0.937,-0.502,-0.020,-0.032,-0.058,117.111,4.894,1.065,0.069,1,1,3.254
1777577937327,-0.065,0.938,-0.507,-0.017,-0.028,-0.046,117.167,4.834,1.068,0.057,1,1,3.260
1777577937340,-0.087,0.932,-0.510,-0.015,-0.020,-0.025,117.234,4.828,1.066,0.036,1,1,3.252
1777577937353,-0.078,0.916,-0.517,-0.020,-0.014,-0.005,117.330,4.801,1.055,0.025,1,1,3.893
1777577937368,-0.069,0.930,-0.500,-0.012,-0.009,0.011,117.371,4.755,1.059,0.019,1,1,3.282
1777577937382,-0.059,0.930,-0.503,-0.010,-0.007,0.024,117.416,4.687,1.059,0.026,1,1,3.255
1777577937395,-0.059,0.930,-0.501,-0.005,-0.004,0.034,117.456,4.622,1.058,0.035,1,1,3.258
1777577937408,-0.047,0.933,-0.491,-0.003,-0.004,0.035,117.470,4.532,1.055,0.035,1,1,3.245
1777577937422,-0.035,0.931,-0.501,0.005,-0.005,0.026,117.506,4.418,1.058,0.027,1,1,3.959
1777577937436,-0.041,0.931,-0.503,0.010,-0.006,0.020,117.545,4.320,1.060,0.023,1,1,3.269
1777577937449,-0.035,0.926,-0.500,0.019,-0.008,0.010,117.581,4.214,1.053,0.023,1,1,3.257
1777577937462,-0.041,0.917,-0.498,0.020,-0.011,0.005,117.622,4.127,1.044,0.024,1,1,3.255
1777577937476,-0.054,0.920,-0.504,0.023,-0.011,-0.001,117.669,4.076,1.051,0.025,1,1,3.249
1777577937489,-0.042,0.927,-0.509,0.024,-0.010,-0.005,117.716,3.997,1.058,0.027,1,1,3.940
1777577937503,-0.031,0.939,-0.504,0.031,-0.011,-0.009,117.738,3.893,1.067,0.034,1,1,3.268
1777577937517,-0.063,0.918,-0.509,0.034,-0.013,-0.014,117.794,3.873,1.052,0.039,1,1,3.280
1777577937530,-0.063,0.925,-0.512,0.038,-0.012,-0.019,117.846,3.853,1.059,0.044,1,1,3.270
1777577937543,-0.060,0.928,-0.499,0.035,-0.014,-0.024,117.865,3.827,1.055,0.045,1,1,3.259
1777577937557,-0.052,0.924,-0.501,0.037,-0.014,-0.028,117.891,3.785,1.052,0.048,2,2,3.928
1777577937571,-0.037,0.920,-0.508,0.035,-0.016,-0.029,117.936,3.707,1.052,0.049,2,2,3.269
1777577937584,-0.037,0.924,-0.507,0.033,-0.015,-0.033,117.972,3.633,1.054,0.049,2,2,3.285
1777577937598,-0.062,0.924,-0.510,0.036,-0.016,-0.028,118.012,3.620,1.057,0.048,2,2,3.346
1777577937611,-0.059,0.916,-0.514,0.035,-0.010,-0.021,118.069,3.603,1.052,0.042,2,2,3.287
1777577937624,-0.060,0.917,-0.522,0.032,-0.013,-0.019,118.138,3.587,1.057,0.039,2,2,3.959
1777577937638,-0.061,0.917,-0.515,0.033,-0.014,-0.013,118.190,3.575,1.054,0.038,2,2,3.257
1777577937652,-0.049,0.921,-0.521,0.029,-0.013,-0.015,118.247,3.535,1.059,0.036,2,2,3.284
1777577937665,-0.055,0.916,-0.508,0.031,-0.015,-0.008,118.279,3.512,1.049,0.035,2,2,3.268
1777577937679,-0.061,0.910,-0.526,0.026,-0.014,-0.007,118.355,3.503,1.053,0.031,2,2,3.286
1777577937692,-0.052,0.920,-0.512,0.029,-0.018,-0.012,118.388,3.473,1.055,0.036,1,1,3.972
1777577937706,-0.058,0.908,-0.521,0.027,-0.019,-0.012,118.451,3.461,1.049,0.035,1,1,3.277
1777577937719,-0.039,0.918,-0.513,0.029,-0.022,-0.019,118.483,3.403,1.053,0.041,1,1,3.325
1777577937733,-0.062,0.899,-0.518,0.027,-0.029,-0.027,118.548,3.405,1.040,0.048,1,1,3.262
1777577937746,-0.057,0.893,-0.523,0.020,-0.027,-0.027,118.626,3.393,1.037,0.043,1,1,3.264
1777577937760,-0.054,0.911,-0.510,0.017,-0.027,-0.035,118.652,3.376,1.045,0.047,4,4,3.885
1777577937774,-0.053,0.908,-0.515,0.017,-0.034,-0.044,118.692,3.356,1.046,0.058,4,4,3.251
1777577937787,-0.060,0.898,-0.523,0.014,-0.042,-0.052,118.758,3.352,1.041,0.068,4,4,3.251
1777577937800,-0.059,0.913,-0.517,0.011,-0.047,-0.061,118.791,3.347,1.051,0.078,4,4,3.301
1777577937814,-0.062,0.912,-0.521,0.011,-0.047,-0.065,118.832,3.347,1.053,0.081,4,4,3.275
1777577937827,-0.078,0.917,-0.527,0.012,-0.045,-0.057,118.878,3.386,1.060,0.074,4,4,3.911
1777577937841,-0.099,0.916,-0.522,0.002,-0.027,-0.033,118.914,3.474,1.059,0.042,4,4,3.262
1777577937854,-0.104,0.922,-0.522,-0.002,-0.015,-0.006,118.940,3.567,1.064,0.016,4,4,3.262
1777577937868,-0.091,0.912,-0.519,-0.007,-0.004,0.011,118.971,3.628,1.054,0.014,4,4,3.259
1777577937881,-0.072,0.926,-0.520,-0.007,0.001,0.017,118.987,3.640,1.064,0.018,4,4,3.276
1777577937894,-0.068,0.933,-0.507,-0.003,0.001,0.018,118.967,3.640,1.064,0.019,4,4,3.876
1777577937908,-0.060,0.925,-0.518,-0.001,-0.002,0.010,118.980,3.624,1.062,0.011,4,4,3.282
1777577937922,-0.079,0.920,-0.519,-0.002,-0.004,0.009,119.000,3.652,1.059,0.011,4,4,3.258
1777577937935,-0.070,0.922,-0.515,-0.003,-0.005,0.011,119.007,3.657,1.058,0.012,4,4,3.258
1777577937949,-0.073,0.909,-0.518,-0.005,-0.005,0.013,119.037,3.670,1.049,0.015,4,4,3.260
1777577937962,-0.071,0.908,-0.519,-0.009,-0.004,0.015,119.068,3.680,1.049,0.018,1,1,3.924
1777577937976,-0.074,0.914,-0.521,-0.009,0.002,0.017,119.096,3.694,1.055,0.020,1,1,3.280
1777577937989,-0.073,0.917,-0.525,-0.010,-0.000,0.017,119.126,3.705,1.059,0.020,1,1,3.279
1777577938003,-0.067,0.909,-0.515,-0.010,-0.000,0.016,119.144,3.704,1.047,0.019,1,1,3.257
1777577938016,-0.082,0.916,-0.517,-0.009,0.002,0.021,119.156,3.737,1.055,0.023,1,1,3.289
1777577938029,-0.057,0.918,-0.517,-0.005,0.002,0.016,119.166,3.710,1.055,0.017,1,1,3.961
1777577938044,-0.058,0.920,-0.513,-0.002,-0.006,0.008,119.166,3.685,1.055,0.011,1,1,3.269
1777577938057,-0.061,0.922,-0.515,-0.002,-0.007,0.005,119.167,3.669,1.058,0.008,1,1,3.262
1777577938070,-0.066,0.927,-0.511,0.001,-0.008,0.001,119.155,3.664,1.060,0.009,1,1,3.268
1777577938084,-0.062,0.916,-0.502,0.004,-0.011,-0.005,119.136,3.653,1.046,0.013,1,1,3.261
1777577938097,-0.099,0.917,-0.517,0.008,-0.007,0.011,119.148,3.727,1.058,0.015,1,1,3.989
1777577938111,-0.073,0.925,-0.515,0.005,-0.001,0.018,119.146,3.736,1.061,0.019,1,1,3.269
1777577938124,-0.072,0.919,-0.523,0.002,0.003,0.025,119.168,3.744,1.060,0.025,1,1,3.258
1777577938138,-0.068,0.920,-0.517,0.005,0.003,0.025,119.176,3.741,1.058,0.026,1,1,3.272
1777577938151,-0.065,0.923,-0.516,0.005,-0.001,0.020,119.178,3.731,1.059,0.021,1,1,3.257
1777577938165,-0.060,0.927,-0.516,0.006,0.003,0.020,119.176,3.710,1.063,0.021,2,2,3.887
1777577938179,-0.072,0.920,-0.520,0.008,0.004,0.022,119.189,3.717,1.059,0.023,2,2,3.275
1777577938192,-0.071,0.915,-0.518,0.006,0.005,0.027,119.205,3.724,1.054,0.028,2,2,3.248
1777577938205,-0.077,0.914,-0.519,0.005,0.005,0.028,119.221,3.743,1.054,0.029,2,2,3.263
1777577938219,-0.057,0.914,-0.518,0.006,0.007,0.027,119.236,3.715,1.052,0.028,2,2,3.295
1777577938232,-0.055,0.908,-0.515,0.008,0.006,0.019,119.251,3.685,1.045,0.022,2,2,4.002
1777577938246,-0.064,0.908,-0.523,0.007,0.004,0.016,119.280,3.677,1.050,0.018,2,2,3.283
1777577938260,-0.060,0.903,-0.508,0.005,0.004,0.010,119.283,3.662,1.038,0.012,2,2,3.259
1777577938273,-0.069,0.912,-0.514,0.006,0.004,0.012,119.289,3.667,1.049,0.014,2,2,3.284
1777577938286,-0.056,0.911,-0.520,0.005,0.006,0.013,119.308,3.641,1.051,0.016,2,2,3.282
1777577938300,-0.088,0.923,-0.523,0.005,0.012,0.023,119.317,3.689,1.065,0.027,2,2,3.966
1777577938314,-0.077,0.921,-0.511,0.006,0.018,0.034,119.304,3.710,1.057,0.039,2,2,3.287
1777577938327,-0.072,0.916,-0.516,0.012,0.021,0.043,119.309,3.719,1.054,0.049,2,2,3.251
1777577938341,-0.071,0.931,-0.521,0.014,0.022,0.049,119.305,3.723,1.069,0.056,2,2,3.271
1777577938354,-0.079,0.925,-0.513,0.014,0.026,0.062,119.293,3.747,1.061,0.069,2,2,3.248
1777577938367,-0.074,0.933,-0.523,0.021,0.031,0.078,119.292,3.757,1.072,0.086,2,2,3.870
1777577938381,-0.081,0.949,-0.524,0.026,0.037,0.100,119.275,3.779,1.087,0.110,2,2,3.257
1777577938395,-0.047,0.958,-0.513,0.038,0.035,0.113,119.226,3.721,1.088,0.124,2,2,3.255
1777577938408,-0.108,0.981,-0.535,0.057,0.034,0.145,119.199,3.800,1.123,0.160,2,2,3.261
1777577938421,-0.035,0.973,-0.517,0.079,0.024,0.147,119.145,3.713,1.103,0.169,2,2,3.284
1777577938435,-0.021,0.936,-0.538,0.086,0.015,0.145,119.178,3.600,1.080,0.169,3,3,4.027
1777577938449,-0.088,1.029,-0.522,0.130,0.016,0.182,119.078,3.633,1.157,0.224,3,3,3.266
1777577938462,-0.057,1.094,-0.505,0.206,0.014,0.253,118.889,3.594,1.206,0.327,3,3,3.273
1777577938476,-0.017,1.006,-0.562,0.225,0.004,0.251,118.901,3.474,1.152,0.338,3,3,3.259
1777577938489,0.025,1.094,-0.508,0.323,0.020,0.215,118.728,3.270,1.206,0.389,3,3,3.266
1777577938502,-0.050,1.081,-0.547,0.428,0.029,0.161,118.645,3.231,1.212,0.458,4,4,3.945
1777577938516,-0.017,1.078,-0.552,0.500,0.032,0.169,118.579,3.125,1.211,0.529,4,4,3.264
1777577938530,-0.046,1.174,-0.541,0.600,0.043,0.187,118.411,3.078,1.294,0.630,4,4,3.307
1777577938543,-0.020,1.228,-0.564,0.716,0.048,0.145,118.247,2.980,1.351,0.733,4,4,3.271
1777577938557,0.002,1.314,-0.557,0.839,0.040,0.060,118.017,2.847,1.427,0.842,4,4,3.278
1777577938570,-0.049,1.176,-0.567,0.982,0.043,0.053,117.918,2.817,1.306,0.984,4,4,3.948
1777577938584,-0.011,1.226,-0.567,1.095,0.033,0.034,117.783,2.714,1.351,1.096,4,4,3.271
1777577938597,-0.029,1.314,-0.582,1.255,0.041,0.015,117.612,2.645,1.437,1.256,4,4,3.274
1777577938611,-0.026,1.223,-0.601,1.397,0.034,0.025,117.549,2.577,1.363,1.397,4,4,3.261
1777577938624,-0.033,1.298,-0.601,1.567,0.030,0.014,117.430,2.523,1.431,1.567,4,4,3.264
1777577938637,0.050,1.360,-0.567,1.759,0.024,-0.013,117.220,2.327,1.475,1.760,3,3,3.919
1777577938651,0.026,1.466,-0.592,1.981,0.010,-0.077,116.990,2.185,1.581,1.983,3,3,3.274
1777577938665,0.083,1.613,-0.580,2.228,-0.023,-0.195,116.675,1.969,1.716,2.237,3,3,3.261
1777577938678,0.074,1.617,-0.613,2.501,-0.024,-0.236,116.416,1.776,1.731,2.513,3,3,3.286
1777577938692,0.073,1.659,-0.625,2.501,-0.015,-0.300,116.165,1.595,1.774,2.519,3,3,3.270
1777577938705,-0.041,1.763,-0.719,2.501,0.028,-0.343,115.990,1.579,1.904,2.525,4,4,3.919
1777577938719,0.006,1.420,-0.823,2.501,0.070,-0.182,116.170,1.501,1.641,2.509,4,4,3.287
1777577938732,-0.046,1.552,-0.909,2.501,0.049,-0.167,116.353,1.499,1.799,2.507,4,4,3.282
1777577938746,-0.183,1.473,-0.930,2.501,0.169,0.038,116.612,1.696,1.751,2.507,4,4,3.287
1777577938759,-0.059,1.520,-0.711,2.501,0.189,0.639,116.544,1.709,1.679,2.589,4,4,3.377
1777577938773,-0.349,1.883,-0.418,2.501,0.250,1.306,115.931,2.084,1.960,2.833,4,4,3.929
1777577938787,1.036,-1.260,0.212,2.501,-0.070,1.057,107.343,0.285,1.644,2.716,4,4,3.281
1777577938800,0.034,-0.454,-0.326,1.580,-0.311,1.093,97.151,0.121,0.560,1.946,4,4,3.286
1777577938813,-0.340,-0.092,-0.641,0.574,-0.313,0.726,85.387,1.326,0.732,0.977,4,4,3.264
1777577938827,-0.127,-0.374,-0.094,-0.446,-0.223,0.282,77.099,2.064,0.406,0.573,4,4,3.305
1777577938840,-0.318,0.523,-0.342,-0.806,-0.088,-0.060,79.112,3.154,0.701,0.814,4,4,3.863
1777577938854,-0.222,0.532,-0.248,-0.861,0.034,-0.230,80.682,3.922,0.628,0.892,4,4,3.260
1777577938868,-0.170,0.529,-0.247,-0.847,0.106,-0.161,82.183,4.462,0.608,0.868,4,4,3.264
1777577938881,-0.143,0.417,-0.249,-0.866,0.163,0.012,83.877,4.982,0.506,0.881,4,4,3.248
1777577938894,-0.119,0.230,-0.247,-1.028,0.161,0.138,86.202,5.612,0.358,1.050,4,4,3.297
1777577938908,-0.067,0.060,-0.240,-1.318,0.081,0.130,89.693,6.032,0.257,1.327,4,4,3.852
1777577938922,0.001,-0.010,-0.222,-1.763,-0.089,-0.007,78.006,5.760,0.222,1.766,4,4,3.262
1777577938935,-0.010,0.107,-0.211,-2.169,-0.278,-0.080,81.293,5.614,0.237,2.188,4,4,3.271
1777577938948,-0.044,0.280,-0.240,-2.463,-0.434,-0.023,83.453,5.667,0.371,2.501,4,4,3.268
1777577938962,-0.084,0.440,-0.291,-2.501,-0.547,0.109,85.202,5.814,0.534,2.563,4,4,3.254
1777577938975,-0.112,0.496,-0.350,-2.501,-0.621,0.216,86.950,6.018,0.617,2.586,4,4,3.874
1777577938989,-0.136,0.537,-0.396,-2.501,-0.663,0.238,88.676,6.257,0.681,2.599,4,4,3.299
1777577939003,-0.143,0.617,-0.464,-2.501,-0.687,0.166,90.350,6.441,0.785,2.599,4,4,3.257
1777577939016,-0.162,0.679,-0.508,-2.501,-0.685,0.058,91.945,6.632,0.863,2.594,4,4,3.258
1777577939029,-0.200,0.778,-0.569,-2.501,-0.642,-0.010,93.442,6.855,0.985,2.582,4,4,3.270
1777577939043,-0.233,0.912,-0.612,-2.501,-0.550,-0.012,94.773,7.078,1.123,2.561,5,5,3.959
1777577939057,-0.229,1.086,-0.691,-2.501,-0.422,0.009,95.983,7.210,1.307,2.537,5,5,3.296
1777577939070,-0.223,1.204,-0.750,-2.501,-0.271,-0.001,97.118,7.286,1.436,2.516,5,5,3.318
1777577939084,-0.223,1.266,-0.785,-2.501,-0.108,-0.015,98.197,7.339,1.506,2.504,5,5,3.258
1777577939097,-0.239,1.295,-0.826,-2.501,0.055,-0.037,99.262,7.405,1.554,2.502,5,5,3.263
1777577939110,-0.189,1.288,-0.850,-2.501,0.173,-0.091,100.319,7.386,1.555,2.509,5,5,3.903
1777577939124,-0.167,1.402,-0.887,-2.501,0.234,-0.109,101.281,7.315,1.667,2.515,5,5,3.313
1777577939138,-0.133,1.596,-0.983,-2.501,0.235,-0.106,102.170,7.172,1.879,2.515,5,5,3.271
1777577939151,-0.077,1.695,-1.128,-2.501,0.178,-0.157,103.109,6.954,2.037,2.513,5,5,3.266
1777577939164,-0.018,1.732,-1.293,-2.501,0.078,-0.273,104.143,6.670,2.162,2.517,5,5,3.261
1777577939178,0.057,1.634,-1.468,-2.501,-0.048,-0.348,105.358,6.313,2.197,2.526,5,5,3.880
1777577939192,0.162,1.559,-1.641,-2.131,-0.168,-0.215,106.718,5.859,2.269,2.149,5,5,3.300
1777577939205,0.243,1.423,-1.793,-1.597,-0.282,0.106,108.242,5.338,2.302,1.625,5,5,3.270
1777577939219,0.027,1.115,-1.995,-1.089,-0.358,0.631,110.103,5.074,2.285,1.309,5,5,3.265
1777577939232,-0.394,0.744,-2.031,-0.674,-0.347,0.863,112.280,5.304,2.199,1.149,5,5,3.289
1777577939245,-0.856,0.672,-2.025,-0.228,-0.191,0.445,114.439,6.028,2.299,0.535,1,1,3.928
1777577939259,-0.951,0.726,-1.972,0.296,0.070,-0.152,116.422,6.829,2.306,0.340,1,1,3.327
1777577939274,0.331,1.134,1.448,1.682,0.040,0.169,112.995,6.084,1.868,1.690,1,1,4.453
1777577939287,0.097,1.443,0.714,2.176,-0.393,-0.059,110.838,5.668,1.613,2.212,1,1,3.340
1777577939301,-0.188,0.903,-0.244,2.296,-0.282,-0.205,110.588,5.916,0.954,2.322,1,1,3.262
1777577939314,-0.286,0.822,-0.318,2.119,-0.116,-0.170,110.613,6.444,0.926,2.129,1,1,3.961
1777577939328,-0.030,0.924,-0.382,1.968,0.006,-0.211,110.693,6.236,1.001,1.979,1,1,3.282
1777577939342,-0.121,0.927,-0.581,1.741,0.058,-0.242,111.191,6.238,1.101,1.758,1,1,3.252
1777577939355,-0.242,0.912,-0.475,1.491,0.169,-0.138,111.467,6.544,1.056,1.507,1,1,3.287
1777577939368,-0.097,0.881,-0.526,1.316,0.150,-0.092,111.878,6.494,1.030,1.328,1,1,3.262
1777577939382,-0.245,0.847,-0.539,1.139,0.199,0.023,112.341,6.810,1.034,1.157,1,1,3.878
1777577939396,-0.155,0.875,-0.511,0.996,0.197,0.099,112.689,6.892,1.025,1.020,1,1,3.261
1777577939409,-0.146,0.745,-0.655,0.861,0.232,0.124,113.504,6.957,1.002,0.900,1,1,3.251
1777577939423,-0.068,0.827,-0.583,0.647,0.216,0.084,114.015,6.820,1.014,0.687,1,1,3.281
1777577939436,0.005,0.852,-0.487,0.516,0.150,0.034,114.266,6.510,0.982,0.538,1,1,3.280
1777577939449,-0.036,0.894,-0.532,0.460,0.147,-0.024,114.550,6.312,1.041,0.483,1,1,3.961
1777577939463,-0.000,0.772,-0.586,0.267,0.019,-0.044,115.103,6.037,0.970,0.271,1,1,3.315
1777577939477,0.036,0.843,-0.505,0.179,-0.014,-0.070,115.359,5.682,0.983,0.193,1,1,3.270
1777577939490,-0.086,0.903,-0.502,0.160,-0.066,-0.115,115.522,5.642,1.037,0.208,1,1,3.267
1777577939504,-0.092,0.898,-0.502,0.132,-0.114,-0.117,115.684,5.618,1.033,0.210,1,1,3.258
1777577939517,-0.083,0.948,-0.494,0.117,-0.111,-0.128,115.765,5.567,1.073,0.206,1,1,3.950
1777577939531,-0.138,0.929,-0.509,0.116,-0.094,-0.095,115.893,5.649,1.068,0.176,1,1,3.286
1777577939544,-0.175,0.933,-0.521,0.093,-0.048,-0.033,116.037,5.809,1.083,0.110,1,1,3.284
1777577939558,-0.191,0.921,-0.521,0.075,-0.001,0.042,116.188,6.003,1.075,0.086,1,1,3.284
1777577939571,-0.159,0.915,-0.524,0.052,0.032,0.087,116.346,6.116,1.067,0.107,1,1,3.279
1777577939585,-0.142,0.932,-0.510,0.045,0.057,0.116,116.448,6.182,1.072,0.137,1,1,3.957
1777577939599,-0.084,0.931,-0.506,0.044,0.062,0.111,116.538,6.110,1.063,0.134,1,1,3.268
1777577939612,-0.052,0.922,-0.510,0.047,0.052,0.077,116.643,5.965,1.055,0.104,1,1,3.275
1777577939625,-0.039,0.914,-0.513,0.053,0.030,0.037,116.760,5.798,1.049,0.071,1,1,3.269
1777577939639,-0.056,0.913,-0.505,0.053,0.009,0.010,116.855,5.678,1.045,0.054,1,1,3.263
1777577939652,-0.071,0.911,-0.517,0.048,-0.001,-0.003,116.975,5.600,1.050,0.048,1,1,3.983
1777577939666,-0.080,0.941,-0.504,0.051,-0.007,-0.012,117.029,5.541,1.070,0.052,1,1,3.262
1777577939680,-0.095,0.907,-0.534,0.051,-0.011,-0.011,117.181,5.524,1.057,0.053,1,1,3.281
1777577939693,-0.090,0.901,-0.525,0.041,-0.002,-0.006,117.315,5.499,1.047,0.041,1,1,3.269
1777577939706,-0.087,0.902,-0.521,0.038,-0.003,0.002,117.433,5.466,1.045,0.038,1,1,3.256
1777577939720,-0.074,0.903,-0.510,0.033,-0.005,-0.003,117.521,5.405,1.040,0.033,1,1,4.017
1777577939734,-0.076,0.911,-0.528,0.036,-0.013,-0.014,117.633,5.349,1.055,0.041,1,1,3.275
1777577939747,-0.089,0.906,-0.509,0.035,-0.021,-0.021,117.707,5.328,1.043,0.046,1,1,3.291
1777577939761,-0.100,0.916,-0.513,0.035,-0.024,-0.025,117.775,5.332,1.055,0.049,1,1,3.275
1777577939774,-0.105,0.915,-0.508,0.033,-0.022,-0.021,117.831,5.351,1.051,0.045,1,1,3.280
1777577939788,-0.112,0.904,-0.531,0.027,-0.010,-0.007,117.944,5.383,1.054,0.030,1,1,3.986
1777577939802,-0.103,0.913,-0.527,0.024,-0.009,-0.001,118.034,5.391,1.059,0.025,1,1,3.322
1777577939815,-0.101,0.912,-0.515,0.024,-0.004,0.005,118.096,5.395,1.053,0.025,1,1,3.312
1777577939829,-0.101,0.909,-0.530,0.019,-0.001,0.007,118.189,5.399,1.057,0.020,1,1,3.268
1777577939842,-0.097,0.919,-0.527,0.023,0.001,0.012,118.261,5.392,1.064,0.026,1,1,3.262
1777577939855,-0.101,0.911,-0.521,0.023,0.004,0.014,118.326,5.397,1.055,0.027,1,1,3.896
1777577939869,-0.096,0.911,-0.537,0.023,0.007,0.020,118.422,5.388,1.062,0.031,1,1,3.250
1777577939883,-0.101,0.914,-0.538,0.020,0.011,0.025,118.512,5.390,1.066,0.034,1,1,3.305
1777577939896,-0.102,0.913,-0.523,0.023,0.012,0.025,118.568,5.395,1.057,0.036,1,1,3.250
1777577939911,-0.091,0.923,-0.519,0.027,0.012,0.026,118.603,5.373,1.063,0.040,1,1,4.307
1777577939924,-0.092,0.906,-0.537,0.027,0.013,0.026,118.694,5.357,1.057,0.040,2,2,3.893
1777577939938,-0.073,0.942,-0.516,0.033,0.012,0.023,118.695,5.294,1.077,0.042,2,2,3.665
1777577939952,-0.099,0.926,-0.520,0.040,0.010,0.035,118.722,5.296,1.066,0.054,2,2,3.272
1777577939965,-0.121,0.907,-0.539,0.058,0.014,0.048,118.809,5.351,1.062,0.076,2,2,3.269
1777577939979,-0.112,0.930,-0.526,0.060,0.021,0.058,118.839,5.379,1.075,0.086,2,2,3.463
1777577939992,-0.103,0.919,-0.544,0.060,0.026,0.078,118.916,5.384,1.072,0.102,4,4,3.963
1777577940006,-0.103,0.914,-0.556,0.053,0.028,0.093,119.022,5.389,1.074,0.111,4,4,3.274
1777577940020,-0.091,0.927,-0.550,0.074,0.020,0.117,119.094,5.364,1.082,0.140,4,4,3.270
1777577940033,-0.123,1.034,-0.517,0.104,0.013,0.172,118.983,5.394,1.163,0.202,4,4,3.276
1777577940049,-0.239,1.207,-0.511,0.260,0.037,0.182,118.720,5.610,1.332,0.319,4,4,5.535
1777577940062,-0.037,0.981,-0.544,0.316,0.043,0.148,118.734,5.446,1.123,0.351,4,4,4.143
1777577940078,-0.071,1.047,-0.557,0.373,0.045,0.180,118.701,5.359,1.188,0.417,4,4,4.615
1777577940091,-0.110,1.063,-0.560,0.451,0.064,0.207,118.660,5.354,1.207,0.500,4,4,3.253
1777577940104,-0.069,1.165,-0.549,0.528,0.079,0.191,118.509,5.254,1.290,0.567,4,4,3.265
1777577940118,-0.091,1.204,-0.572,0.643,0.101,0.159,118.374,5.195,1.336,0.670,4,4,3.268
1777577940131,-0.135,1.224,-0.591,0.742,0.110,0.115,118.259,5.215,1.366,0.759,4,4,3.916
1777577940148,-0.122,1.164,-0.573,0.895,0.131,0.129,118.169,5.223,1.303,0.914,4,4,5.913
1777577940162,-0.146,1.171,-0.613,0.987,0.128,0.135,118.147,5.269,1.330,1.004,4,4,3.268
1777577940175,-0.082,1.221,-0.584,1.126,0.124,0.135,118.033,5.190,1.356,1.141,4,4,3.268
1777577940188,-0.012,1.236,-0.568,1.272,0.103,0.112,117.886,4.985,1.360,1.281,4,4,3.271
1777577940202,0.031,1.325,-0.570,1.441,0.068,0.088,117.685,4.712,1.443,1.445,4,4,3.931
1777577940216,0.075,1.328,-0.586,1.639,0.044,0.016,117.515,4.377,1.453,1.640,4,4,3.266
1777577940229,0.125,1.397,-0.581,1.853,0.031,-0.056,117.299,3.980,1.518,1.854,4,4,3.265
1777577940244,0.149,1.456,-0.586,2.110,-0.032,-0.172,117.065,3.569,1.576,2.118,4,4,4.540
1777577940257,0.190,1.519,-0.602,2.370,-0.073,-0.284,116.826,3.122,1.644,2.388,4,4,3.264
1777577940271,0.101,1.654,-0.663,2.501,-0.092,-0.278,116.609,2.844,1.785,2.518,4,4,4.026
1777577940285,-0.002,1.711,-0.813,2.501,-0.070,-0.175,116.557,2.723,1.894,2.508,4,4,3.289
1777577940298,-0.009,1.483,-0.781,2.501,-0.053,0.048,116.611,2.618,1.676,2.502,4,4,3.274
1777577940312,-0.060,1.341,-0.880,2.501,-0.090,0.076,116.902,2.596,1.606,2.504,4,4,3.628
1777577940325,-0.198,1.329,-0.959,2.501,-0.033,0.093,117.292,2.784,1.651,2.503,4,4,3.280
1777577940339,-0.007,1.136,-0.870,2.501,0.012,0.474,117.735,2.674,1.431,2.546,4,4,3.971
1777577940353,0.104,1.140,-0.547,2.501,-0.041,0.838,117.643,2.350,1.268,2.638,4,4,3.251
1777577940366,-0.005,1.430,-0.357,2.501,-0.156,0.990,117.047,2.257,1.474,2.695,4,4,3.658
1777577940380,-0.048,0.772,-0.070,2.501,-0.207,0.847,116.092,2.313,0.777,2.649,4,4,3.253
1777577940393,0.074,-0.825,-0.566,2.501,-0.128,0.498,105.572,2.028,1.003,2.554,4,4,3.250
1777577940406,-0.342,-0.305,-0.435,2.315,0.027,0.488,94.618,3.372,0.632,2.366,4,4,3.875
1777577940420,-0.447,0.090,-0.542,1.787,0.328,0.339,97.939,4.935,0.708,1.848,4,4,3.246
1777577940434,-0.342,-0.303,-0.372,1.160,0.557,0.139,87.499,6.270,0.589,1.295,4,4,3.262
1777577940447,-0.270,-0.375,-0.296,0.475,0.745,-0.138,78.065,7.284,0.549,0.894,4,4,3.274
1777577940461,-0.133,-0.301,-0.302,-0.156,0.831,-0.363,68.740,7.722,0.446,0.920,4,4,3.250
1777577940474,-0.035,-0.268,-0.297,-0.738,0.842,-0.510,59.699,7.602,0.402,1.230,4,4,4.100
1777577940488,0.062,-0.191,-0.315,-1.268,0.748,-0.535,50.579,6.851,0.374,1.567,4,4,3.336
1777577940502,0.153,-0.168,-0.321,-1.723,0.586,-0.539,41.704,5.552,0.393,1.898,4,4,3.288
1777577940515,0.270,-0.151,-0.327,-2.151,0.351,-0.574,33.093,3.695,0.450,2.254,4,4,3.267
1777577940528,0.281,-0.058,-0.336,-2.501,0.071,-0.566,24.199,1.808,0.441,2.566,4,4,3.257
1777577940542,0.292,0.018,-0.376,-2.501,-0.211,-0.552,30.894,0.076,0.477,2.570,4,4,3.850
1777577940556,0.314,0.102,-0.377,-2.501,-0.499,-0.548,36.751,-1.624,0.501,2.609,4,4,3.245
1777577940569,0.256,0.258,-0.376,-2.501,-0.742,-0.461,41.510,-2.834,0.522,2.649,4,4,3.288
1777577940582,0.188,0.469,-0.397,-2.501,-0.901,-0.203,45.392,-3.456,0.642,2.667,4,4,3.259
1777577940598,0.073,0.680,-0.489,-2.501,-0.962,0.118,48.905,-3.522,0.841,2.682,4,4,5.183
1777577940611,-0.063,0.761,-0.592,-2.501,-0.899,0.356,52.359,-3.205,0.966,2.682,5,5,3.844
1777577940625,-0.233,0.770,-0.706,-2.501,-0.765,0.277,55.865,-2.516,1.070,2.630,5,5,3.256
1777577940638,-0.318,0.746,-0.782,-2.501,-0.566,-0.079,59.384,-1.688,1.126,2.566,5,5,3.278
1777577940652,-0.328,0.821,-0.842,-2.501,-0.344,-0.447,62.722,-0.932,1.221,2.564,5,5,3.263
1777577940666,-0.273,0.965,-0.866,-2.501,-0.113,-0.608,65.748,-0.371,1.325,2.577,5,5,3.279
1777577940679,-0.148,1.058,-0.891,-2.501,0.075,-0.522,68.562,-0.088,1.391,2.556,5,5,3.938
1777577940693,-0.022,1.102,-0.895,-2.501,0.224,-0.330,71.209,-0.045,1.420,2.533,5,5,3.263
1777577940706,0.108,1.137,-0.899,-2.501,0.304,-0.190,73.708,-0.229,1.453,2.527,5,5,3.272
1777577940720,0.211,1.159,-0.897,-2.501,0.321,-0.116,76.071,-0.577,1.481,2.525,5,5,3.261
1777577940733,0.309,1.145,-0.898,-2.501,0.274,-0.078,78.347,-1.076,1.487,2.518,5,5,3.275
1777577940746,0.362,1.171,-0.862,-2.501,0.168,0.000,80.446,-1.641,1.499,2.507,5,5,3.926
1777577940760,0.355,1.328,-0.815,-2.402,0.052,0.187,82.243,-2.130,1.598,2.410,5,5,3.265
1777577940774,0.256,1.392,-0.812,-2.205,-0.053,0.442,83.906,-2.431,1.631,2.249,5,5,3.278
1777577940788,0.070,1.344,-0.794,-2.041,-0.096,0.616,85.510,-2.437,1.563,2.134,5,5,3.258
1777577940801,-0.109,1.286,-0.780,-1.935,-0.084,0.625,87.073,-2.149,1.508,2.035,5,5,3.266
1777577940814,-0.208,1.221,-0.751,-1.886,-0.025,0.441,88.583,-1.693,1.449,1.937,5,5,3.935
1777577940829,-0.186,1.196,-0.747,-1.850,0.036,0.139,90.044,-1.291,1.422,1.856,5,5,3.298
1777577940842,-0.002,1.206,-0.757,-1.771,0.031,-0.033,91.447,-1.231,1.424,1.771,5,5,3.276
1777577940855,0.141,1.252,-0.787,-1.615,-0.018,0.042,92.790,-1.416,1.485,1.616,5,5,3.290
1777577940869,0.169,1.240,-0.818,-1.398,-0.078,0.276,94.129,-1.638,1.495,1.427,5,5,3.274
1777577940882,0.057,1.134,-0.817,-1.183,-0.134,0.488,95.513,-1.669,1.399,1.286,1,1,3.858
1777577940896,-0.188,1.042,-0.797,-1.008,-0.164,0.480,96.907,-1.239,1.326,1.129,1,1,3.266
1777577940909,-0.385,1.009,-0.799,-0.818,-0.138,0.258,98.283,-0.456,1.344,0.868,1,1,3.259
1777577940923,-0.461,1.010,-0.801,-0.610,-0.082,-0.005,99.599,0.425,1.369,0.616,1,1,3.254
1777577940936,-0.392,0.989,-0.810,-0.392,-0.046,-0.171,100.899,1.152,1.337,0.430,1,1,3.260
1777577940949,-0.290,0.943,-0.793,-0.184,-0.059,-0.227,102.176,1.680,1.266,0.298,1,1,3.917
1777577940963,-0.233,0.940,-0.763,0.018,-0.118,-0.234,103.352,2.084,1.233,0.263,1,1,3.273
1777577940977,-0.277,0.890,-0.729,0.188,-0.183,-0.274,104.488,2.585,1.183,0.380,1,1,3.270
1777577940990,0.259,4.000,-0.638,1.455,-0.519,-1.485,104.251,2.311,4.059,2.143,1,1,3.319
1777577941004,0.899,1.497,0.578,1.814,-0.815,-0.775,102.705,0.930,1.839,2.134,1,1,3.509
1777577941017,-0.792,1.246,0.197,1.865,-0.694,-0.417,101.756,2.294,1.489,2.033,1,1,3.912
1777577941031,-0.467,0.987,-0.014,2.066,-0.282,-0.202,101.278,3.301,1.092,2.095,1,1,3.264
1777577941045,0.010,1.035,-0.082,2.138,-0.136,-0.309,100.983,3.131,1.038,2.165,1,1,3.252
1777577941058,0.007,0.902,-0.383,2.020,-0.093,-0.423,101.509,2.977,0.980,2.066,1,1,3.271
1777577941071,-0.031,0.884,-0.461,1.795,-0.079,-0.441,102.209,2.923,0.997,1.850,1,1,3.246
1777577941085,-0.207,0.825,-0.476,1.565,-0.076,-0.421,102.986,3.331,0.974,1.622,1,1,3.874
1777577941099,-0.244,0.792,-0.586,1.321,0.001,-0.345,104.015,3.793,1.015,1.365,1,1,3.251
1777577941112,-0.223,0.809,-0.536,1.087,0.115,-0.230,104.869,4.193,0.996,1.117,1,1,3.252
1777577941125,-0.207,0.890,-0.502,0.946,0.165,-0.112,105.507,4.510,1.042,0.967,1,1,3.251
1777577941139,-0.180,0.874,-0.484,0.836,0.135,-0.001,106.097,4.760,1.015,0.846,1,1,3.254
1777577941152,-0.104,0.755,-0.652,0.699,0.120,0.056,107.177,4.812,1.003,0.712,1,1,3.894
1777577941166,-0.119,0.847,-0.550,0.543,0.143,0.024,107.868,4.895,1.017,0.562,1,1,3.262
1777577941180,-0.105,0.894,-0.511,0.453,0.164,0.019,108.388,4.936,1.035,0.482,1,1,3.598
1777577941193,-0.066,0.906,-0.488,0.400,0.123,-0.007,108.823,4.880,1.031,0.419,1,1,3.253
1777577941207,-0.044,0.911,-0.481,0.367,0.099,-0.054,109.216,4.774,1.031,0.384,1,1,3.248
1777577941220,-0.042,0.891,-0.503,0.338,0.068,-0.099,109.663,4.669,1.024,0.359,1,1,3.900
1777577941234,-0.053,0.742,-0.661,0.259,-0.019,-0.104,110.626,4.599,0.995,0.280,1,1,3.253
1777577941247,-0.171,0.901,-0.535,0.151,-0.017,-0.075,111.067,4.804,1.062,0.170,1,1,3.260
1777577941261,-0.119,0.928,-0.519,0.131,-0.040,-0.060,111.422,4.873,1.070,0.150,1,1,3.263
1777577941274,-0.152,0.895,-0.540,0.090,-0.018,-0.008,111.846,5.021,1.057,0.092,1,1,3.252
1777577941287,-0.138,0.929,-0.529,0.065,0.005,0.036,112.187,5.123,1.078,0.075,1,1,3.954
1777577941301,-0.162,0.940,-0.510,0.046,0.033,0.087,112.461,5.274,1.082,0.104,1,1,3.263
1777577941315,-0.126,0.960,-0.487,0.051,0.055,0.116,112.655,5.337,1.084,0.138,1,1,3.255
1777577941328,-0.107,0.908,-0.524,0.057,0.067,0.117,112.976,5.358,1.054,0.147,1,1,3.266
1777577941341,-0.100,0.931,-0.504,0.054,0.071,0.124,113.215,5.358,1.064,0.153,1,1,3.278
1777577941355,-0.077,0.941,-0.490,0.052,0.076,0.106,113.401,5.306,1.064,0.140,1,1,4.053
1777577941369,-0.037,0.909,-0.510,0.060,0.057,0.065,113.660,5.163,1.043,0.105,1,1,3.260
1777577941383,-0.042,0.902,-0.515,0.059,0.031,0.021,113.924,5.039,1.039,0.070,1,1,3.653
1777577941396,-0.052,0.900,-0.504,0.057,0.012,-0.015,114.158,4.946,1.033,0.060,1,1,3.255
1777577941409,-0.052,0.912,-0.497,0.069,-0.004,-0.045,114.353,4.854,1.040,0.082,1,1,3.245
1777577941423,-0.065,0.909,-0.523,0.065,-0.016,-0.065,114.596,4.798,1.051,0.093,1,1,3.899
1777577941437,-0.108,0.902,-0.521,0.065,-0.027,-0.065,114.833,4.848,1.047,0.096,1,1,3.250
1777577941450,-0.093,0.911,-0.507,0.067,-0.036,-0.077,115.020,4.857,1.046,0.109,1,1,3.261
1777577941463,-0.056,0.918,-0.507,0.078,-0.053,-0.095,115.190,4.779,1.050,0.134,1,1,3.254
1777577941477,-0.075,0.913,-0.517,0.082,-0.065,-0.105,115.380,4.748,1.052,0.149,1,1,3.246
1777577941490,-0.110,0.913,-0.515,0.086,-0.069,-0.103,115.557,4.802,1.054,0.151,1,1,3.908
1777577941504,-0.094,0.913,-0.509,0.099,-0.066,-0.104,115.713,4.816,1.049,0.158,1,1,3.248
1777577941519,-0.124,0.899,-0.524,0.095,-0.063,-0.091,115.911,4.902,1.048,0.146,1,1,5.145
1777577941533,-0.146,0.905,-0.533,0.086,-0.051,-0.069,116.112,5.034,1.061,0.121,1,1,3.266
1777577941546,-0.130,0.902,-0.526,0.078,-0.043,-0.056,116.294,5.124,1.052,0.105,1,1,3.260
1777577941559,-0.125,0.900,-0.528,0.073,-0.039,-0.047,116.472,5.199,1.051,0.095,1,1,3.940
1777577941574,-0.130,0.900,-0.541,0.065,-0.026,-0.035,116.672,5.280,1.058,0.078,1,1,3.256
1777577941588,-0.126,0.893,-0.527,0.059,-0.021,-0.022,116.841,5.353,1.045,0.066,1,1,3.276
1777577941601,-0.131,0.889,-0.539,0.044,-0.011,-0.009,117.033,5.432,1.048,0.046,1,1,3.267
1777577941616,-0.131,0.893,-0.547,0.038,0.001,0.001,117.227,5.507,1.055,0.038,1,1,4.201
1777577941629,-0.115,0.900,-0.531,0.035,0.005,0.005,117.371,5.540,1.051,0.036,1,1,3.933
1777577941643,-0.126,0.902,-0.534,0.028,0.015,0.017,117.513,5.597,1.056,0.036,1,1,3.258
1777577941656,-0.119,0.896,-0.540,0.022,0.023,0.022,117.669,5.637,1.052,0.039,1,1,3.270
1777577941670,-0.131,0.899,-0.545,0.016,0.030,0.028,117.826,5.701,1.060,0.044,1,1,3.260
1777577941684,-0.136,0.912,-0.533,0.017,0.043,0.043,117.935,5.773,1.065,0.064,1,1,4.639
1777577941698,-0.130,0.898,-0.540,0.012,0.049,0.053,118.070,5.829,1.056,0.073,1,1,3.937
1777577941713,-0.137,0.915,-0.526,0.018,0.054,0.074,118.150,5.897,1.064,0.093,1,1,4.012
1777577941726,-0.113,0.938,-0.536,0.032,0.052,0.078,118.219,5.899,1.086,0.099,1,1,3.286
1777577941739,-0.118,0.903,-0.552,0.029,0.049,0.090,118.359,5.920,1.065,0.107,1,1,3.253
1777577941753,-0.084,0.948,-0.533,0.034,0.051,0.089,118.401,5.854,1.091,0.109,1,1,3.306
1777577941766,-0.086,0.986,-0.519,0.070,0.039,0.067,118.373,5.791,1.118,0.104,1,1,3.937
1777577941780,-0.129,1.048,-0.551,0.123,0.039,0.046,118.345,5.810,1.191,0.137,1,1,3.275
1777577941794,-0.330,1.314,-0.536,0.289,0.083,0.181,118.077,6.128,1.457,0.351,1,1,3.260
1777577941807,-0.066,1.095,-0.563,0.337,0.091,0.249,118.039,5.995,1.234,0.429,1,1,3.253
1777577941820,-0.101,1.171,-0.543,0.465,0.102,0.287,117.901,5.928,1.295,0.556,1,1,3.301
1777577941834,-0.125,1.225,-0.553,0.559,0.107,0.268,117.743,5.901,1.350,0.629,4,4,3.906
1777577941848,-0.151,1.339,-0.590,0.699,0.137,0.196,117.571,5.901,1.471,0.738,4,4,3.293
1777577941861,-0.126,1.301,-0.559,0.862,0.149,0.160,117.381,5.866,1.421,0.889,4,4,3.275
1777577941877,-0.093,1.294,-0.555,1.024,0.145,0.154,117.200,5.775,1.411,1.045,4,4,6.211
1777577941891,-0.079,1.283,-0.550,1.182,0.130,0.137,117.025,5.663,1.398,1.197,4,4,3.696
1777577941905,-0.025,1.243,-0.558,1.337,0.110,0.104,116.901,5.462,1.362,1.345,4,4,3.925
1777577941919,-0.028,1.210,-0.583,1.486,0.088,0.071,116.850,5.276,1.344,1.490,4,4,3.281
1777577941932,0.065,1.225,-0.578,1.633,0.045,-0.013,116.780,4.925,1.356,1.634,4,4,3.259
1777577941946,0.163,1.285,-0.594,1.796,-0.000,-0.102,116.694,4.422,1.425,1.799,4,4,3.294
1777577941959,0.128,1.266,-0.640,1.961,-0.046,-0.191,116.700,4.003,1.425,1.971,4,4,3.383
1777577941973,0.235,1.302,-0.645,2.136,-0.116,-0.330,116.686,3.426,1.472,2.165,4,4,3.863
1777577941987,0.309,1.370,-0.659,2.343,-0.202,-0.464,116.642,2.774,1.551,2.397,4,4,3.265
1777577942000,0.279,1.418,-0.709,2.501,-0.264,-0.495,116.639,2.216,1.610,2.563,4,4,3.244
1777577942013,0.164,1.391,-0.765,2.501,-0.303,-0.375,116.735,1.861,1.596,2.547,4,4,3.274
1777577942027,0.106,1.483,-0.844,2.501,-0.346,-0.371,116.862,1.623,1.709,2.552,4,4,3.257
1777577942041,-0.199,1.528,-0.980,2.501,-0.252,-0.229,117.117,1.826,1.826,2.524,4,4,4.393
1777577942055,-0.052,1.500,-0.822,2.501,-0.161,0.291,117.187,1.822,1.711,2.523,4,4,3.271
1777577942068,0.043,1.687,-0.610,2.501,-0.219,0.491,116.867,1.682,1.794,2.558,4,4,3.257
1777577942082,0.148,0.669,-0.454,2.501,-0.321,0.352,117.186,1.155,0.822,2.546,4,4,3.310
1777577942095,0.177,0.354,-0.200,2.501,-0.563,0.118,117.287,0.077,0.443,2.567,4,4,3.269
1777577942108,-0.053,1.027,-0.200,2.501,-0.610,-0.212,116.577,0.200,1.047,2.583,4,4,3.951
1777577942122,-0.156,0.043,-0.982,2.501,-0.574,-0.457,119.241,0.587,0.995,2.607,4,4,3.302
1777577942136,-0.306,-0.496,-0.584,1.690,-0.444,-0.478,107.918,1.514,0.825,1.812,4,4,3.267
1777577942149,-0.296,-0.325,-0.521,0.730,-0.302,-0.377,96.724,2.571,0.682,0.875,4,4,3.270
1777577942163,-0.371,-0.042,-0.440,0.012,-0.105,-0.089,84.863,4.206,0.577,0.138,4,4,3.252
1777577942176,-0.298,0.115,-0.353,-0.466,0.090,0.123,88.235,5.718,0.476,0.490,4,4,3.968
1777577942191,-0.292,0.153,-0.325,-0.801,0.270,0.235,91.142,7.177,0.463,0.878,4,4,3.851
1777577942204,-0.323,0.162,-0.323,-1.058,0.410,0.294,93.865,8.693,0.485,1.173,4,4,3.307
1777577942217,-0.265,0.196,-0.302,-1.213,0.499,0.248,96.189,9.904,0.447,1.335,4,4,3.272
1777577942231,-0.174,0.052,-0.289,-1.434,0.494,0.135,99.404,10.809,0.341,1.523,4,4,3.268
1777577942244,-0.003,-0.114,-0.197,-1.821,0.364,-0.009,88.496,10.374,0.227,1.857,4,4,3.966
1777577942258,0.048,-0.014,-0.122,-2.263,0.162,-0.068,77.034,8.988,0.132,2.270,4,4,3.266
1777577942272,0.047,0.189,-0.073,-2.501,-0.006,0.047,78.522,8.028,0.208,2.502,4,4,3.286
1777577942285,-0.000,0.283,-0.133,-2.501,-0.116,0.323,80.125,7.681,0.313,2.525,4,4,3.293
1777577942298,-0.024,0.330,-0.179,-2.501,-0.186,0.589,81.803,7.506,0.377,2.577,4,4,3.261
1777577942312,-0.074,0.463,-0.256,-2.501,-0.237,0.700,83.426,7.524,0.535,2.608,5,5,3.942
1777577942326,-0.156,0.531,-0.367,-2.501,-0.252,0.645,85.230,7.790,0.664,2.595,5,5,3.265
1777577942339,-0.205,0.566,-0.465,-2.501,-0.259,0.510,87.162,8.134,0.760,2.566,5,5,3.304
1777577942353,-0.259,0.673,-0.551,-2.501,-0.241,0.404,89.005,8.502,0.908,2.545,5,5,3.266
1777577942366,-0.318,0.855,-0.605,-2.501,-0.157,0.313,90.591,8.869,1.095,2.526,5,5,3.266
1777577942380,-0.372,1.201,-0.776,-2.501,-0.003,0.241,92.002,9.119,1.478,2.513,5,5,4.061
1777577942396,-0.311,1.193,-0.846,-2.501,0.170,0.070,93.460,9.245,1.496,2.508,5,5,3.407
1777577942409,-0.227,1.125,-0.882,-2.501,0.275,-0.106,94.975,9.234,1.448,2.519,5,5,3.297
1777577942423,-0.100,1.008,-0.821,-2.501,0.327,-0.123,96.470,9.022,1.304,2.526,5,5,3.273
1777577942436,0.024,1.282,-0.770,-2.501,0.334,0.040,97.542,8.587,1.496,2.524,5,5,3.287
1777577942450,0.100,1.524,-0.831,-2.501,0.312,0.250,98.463,8.067,1.738,2.533,5,5,3.951
1777577942464,0.046,1.593,-0.917,-2.501,0.285,0.417,99.401,7.652,1.838,2.552,5,5,3.251
1777577942477,-0.062,1.612,-1.006,-2.501,0.266,0.483,100.388,7.399,1.901,2.561,5,5,3.259
1777577942490,-0.175,1.625,-1.026,-2.501,0.269,0.418,101.346,7.303,1.930,2.550,5,5,3.247
1777577942504,-0.180,1.715,-1.067,-2.417,0.250,0.237,102.244,7.207,2.028,2.441,5,5,3.262
1777577942517,-0.103,1.722,-1.113,-2.131,0.197,0.003,103.146,7.017,2.053,2.140,5,5,3.855
1777577942531,0.047,1.574,-1.151,-1.862,0.105,-0.110,104.153,6.650,1.950,1.868,5,5,3.263
1777577942546,0.230,1.371,-1.191,-1.612,-0.047,-0.013,105.327,6.044,1.831,1.613,5,5,3.282
1777577942559,0.270,1.277,-1.178,-1.375,-0.207,0.255,106.524,5.394,1.759,1.414,5,5,3.265
1777577942572,0.122,1.130,-1.209,-1.121,-0.324,0.622,107.854,4.973,1.659,1.322,5,5,3.271
1777577942586,-0.113,1.092,-1.210,-0.828,-0.377,0.710,109.170,4.929,1.633,1.154,5,5,3.938
1777577942601,-0.405,0.968,-1.193,-0.480,-0.303,0.450,110.559,5.360,1.588,0.724,5,5,4.125
1777577942614,-0.459,0.924,-1.149,-0.187,-0.177,0.024,111.899,5.881,1.545,0.258,5,5,3.261
1777577942627,-0.292,0.963,-1.047,0.092,-0.100,-0.250,113.014,6.132,1.452,0.284,5,5,3.267
1777577942641,-0.063,0.939,-0.864,0.313,-0.110,-0.315,113.870,5.988,1.277,0.457,5,5,3.297
1777577942654,0.021,0.921,-0.639,0.430,-0.168,-0.260,114.347,5.679,1.121,0.530,1,1,3.950
1777577942668,0.018,0.897,-0.440,0.475,-0.222,-0.200,114.426,5.386,0.999,0.561,1,1,3.284
1777577942682,-0.045,0.910,-0.360,0.481,-0.227,-0.166,114.302,5.266,0.979,0.557,1,1,3.269
1777577942695,-0.160,0.913,-0.336,0.484,-0.157,-0.128,114.123,5.445,0.986,0.525,1,1,3.268
1777577942708,-0.220,0.885,-0.337,0.484,-0.034,-0.119,113.979,5.780,0.972,0.500,1,1,3.267
1777577942722,-0.247,0.855,-0.402,0.471,0.093,-0.151,114.032,6.168,0.977,0.503,1,1,3.926
1777577942736,-0.533,-0.812,0.656,1.078,0.212,-0.225,106.811,7.081,1.172,1.122,1,1,3.275
1777577942749,0.296,1.428,0.288,1.663,-0.108,-0.393,105.577,6.269,1.486,1.712,1,1,3.258
1777577942763,-0.127,0.962,-0.132,1.731,0.064,-0.336,105.238,6.320,0.979,1.765,1,1,3.269
1777577942776,-0.094,0.973,-0.188,1.674,0.119,-0.223,105.051,6.281,0.995,1.693,1,1,3.265
1777577942789,-0.031,0.983,-0.250,1.659,0.041,-0.241,105.018,6.085,1.015,1.677,1,1,3.934
1777577942803,-0.100,0.932,-0.358,1.594,-0.020,-0.210,105.281,6.068,1.004,1.608,1,1,3.278
1777577942817,-0.198,0.960,-0.425,1.480,0.012,-0.185,105.656,6.269,1.068,1.491,1,1,3.262
1777577942830,-0.130,0.927,-0.438,1.355,0.119,-0.119,106.076,6.311,1.034,1.366,1,1,3.259
1777577942843,-0.163,0.854,-0.534,1.191,0.149,-0.077,106.773,6.437,1.020,1.203,1,1,3.256
1777577942857,-0.148,0.919,-0.500,1.042,0.162,-0.042,107.289,6.508,1.056,1.056,1,1,3.924
1777577942871,-0.147,0.854,-0.539,0.908,0.194,0.011,107.944,6.586,1.020,0.928,1,1,3.265
1777577942884,-0.034,0.782,-0.601,0.670,0.143,-0.006,108.801,6.384,0.987,0.685,1,1,3.264
1777577942897,-0.078,0.831,-0.551,0.540,0.140,-0.035,109.447,6.300,1.000,0.559,1,1,3.281
1777577942911,-0.041,0.888,-0.500,0.475,0.100,-0.063,109.881,6.124,1.020,0.489,1,1,3.347
1777577942924,-0.077,0.884,-0.511,0.444,0.082,-0.074,110.324,6.044,1.024,0.457,1,1,3.918
1777577942938,0.057,0.461,-0.829,0.246,-0.036,-0.097,112.101,5.629,0.950,0.267,1,1,3.262
1777577942952,-0.115,0.914,-0.491,0.172,-0.005,-0.072,112.370,5.659,1.044,0.186,1,1,3.253
1777577942965,-0.075,0.947,-0.510,0.170,-0.044,-0.097,112.630,5.587,1.078,0.201,1,1,3.261
1777577942978,-0.102,0.928,-0.505,0.149,-0.036,-0.074,112.888,5.584,1.062,0.171,1,1,3.250
1777577942992,-0.111,0.955,-0.496,0.140,-0.050,-0.047,113.087,5.598,1.082,0.156,1,1,3.865
1777577943005,-0.133,0.921,-0.520,0.122,-0.001,-0.008,113.365,5.667,1.066,0.123,1,1,3.254
1777577943019,-0.166,0.936,-0.509,0.113,0.026,0.040,113.590,5.806,1.078,0.122,1,1,3.248
1777577943032,-0.163,0.922,-0.518,0.094,0.059,0.086,113.842,5.935,1.070,0.140,1,1,3.251
1777577943045,-0.105,0.914,-0.530,0.083,0.081,0.104,114.116,5.922,1.062,0.156,1,1,3.252
1777577943059,-0.033,0.895,-0.515,0.075,0.064,0.083,114.371,5.744,1.033,0.128,1,1,3.922
1777577943073,-0.023,0.907,-0.491,0.077,0.044,0.045,114.549,5.549,1.032,0.099,1,1,3.268
1777577943086,-0.043,0.893,-0.514,0.067,0.022,0.007,114.783,5.410,1.031,0.071,1,1,3.253
