timestamp,ax,ay,az,gx,gy,gz,roll,pitch_k,acc_norm,gyro_norm,classe_prevista_raw,classe_prevista,delay_ms
1778532773107,0.0221428,0.670145,-0.130252,0.000539063,-0.00534571,0.00291993,91.8257,-1.689,1.02423,0.0103912,0,0,3.315
1778532773120,0.025,0.804,-0.156,0.001,-0.007,0.005,96.175,-1.660,1.022,0.013,0,0,3.286
1778532773134,0.028,0.860,-0.167,0.001,-0.007,0.005,97.761,-1.760,1.019,0.010,0,0,3.286
1778532773149,0.030,0.892,-0.173,0.001,-0.008,0.005,98.609,-1.831,1.021,0.010,0,0,5.237
1778532773163,0.032,0.911,-0.175,0.001,-0.007,0.005,99.000,-1.926,1.015,0.007,0,0,3.306
1778532773176,0.030,0.924,-0.178,0.000,-0.008,0.005,99.364,-1.801,1.015,0.011,0,0,3.262
1778532773189,0.032,0.935,-0.180,0.000,-0.008,0.005,99.605,-1.882,1.023,0.010,0,0,3.272
1778532773205,0.033,0.943,-0.182,0.000,-0.008,0.005,99.779,-1.923,1.020,0.010,0,0,3.264
1778532773219,0.033,0.951,-0.183,0.000,-0.008,0.005,99.900,-1.946,1.031,0.010,0,0,3.284
1778532773232,0.033,0.957,-0.183,0.000,-0.008,0.006,99.982,-1.902,1.024,0.012,0,0,3.263
1778532773245,0.033,0.961,-0.184,0.000,-0.008,0.006,100.090,-1.927,1.021,0.014,0,0,3.261
1778532773262,0.033,0.964,-0.185,0.000,-0.008,0.006,100.193,-1.915,1.022,0.014,0,0,7.031
1778532773276,0.034,0.967,-0.186,-0.000,-0.008,0.007,100.278,-1.995,1.020,0.016,0,0,3.262
1778532773289,0.035,0.970,-0.187,-0.000,-0.009,0.007,100.380,-2.034,1.025,0.017,0,0,3.277
1778532773303,0.035,0.973,-0.187,-0.000,-0.009,0.008,100.453,-2.013,1.022,0.017,0,0,3.263
1778532773316,0.035,0.975,-0.188,-0.000,-0.008,0.008,100.485,-2.045,1.020,0.014,0,0,3.264
1778532773333,0.035,0.976,-0.188,-0.001,-0.008,0.008,100.544,-2.043,1.020,0.014,0,0,6.696
1778532773348,0.035,0.978,-0.189,-0.001,-0.009,0.008,100.599,-2.009,1.019,0.012,0,0,4.695
1778532773361,0.034,0.979,-0.189,-0.000,-0.009,0.008,100.636,-1.938,1.015,0.013,0,0,3.323
1778532773375,0.034,0.980,-0.189,-0.001,-0.009,0.008,100.676,-1.891,1.019,0.013,0,0,3.276
1778532773390,0.034,0.982,-0.190,-0.001,-0.009,0.008,100.740,-1.968,1.022,0.016,0,0,5.021
1778532773403,0.034,0.982,-0.191,-0.001,-0.009,0.008,100.791,-1.958,1.018,0.013,0,0,3.260
1778532773417,0.035,0.983,-0.191,-0.001,-0.009,0.008,100.840,-1.994,1.017,0.010,0,0,3.257
1778532773430,0.035,0.985,-0.191,-0.001,-0.009,0.008,100.794,-2.019,1.024,0.011,0,0,3.258
1778532773443,0.035,0.986,-0.191,-0.001,-0.009,0.008,100.812,-2.051,1.023,0.010,0,0,3.259
1778532773457,0.035,0.986,-0.191,-0.001,-0.009,0.008,100.815,-2.025,1.021,0.010,0,0,3.262
1778532773470,0.035,0.987,-0.191,-0.001,-0.009,0.008,100.846,-2.005,1.019,0.013,0,0,3.245
1778532773484,0.035,0.988,-0.192,-0.001,-0.009,0.008,100.891,-1.963,1.020,0.017,0,0,3.828
1778532773498,0.035,0.988,-0.192,-0.001,-0.009,0.008,100.872,-1.939,1.017,0.013,0,0,3.255
1778532773511,0.035,0.989,-0.192,-0.001,-0.009,0.008,100.882,-2.003,1.022,0.013,2,2,4.093
1778532773525,0.035,0.989,-0.192,-0.001,-0.009,0.009,100.899,-2.034,1.017,0.019,2,2,3.272
1778532773539,0.035,0.989,-0.192,-0.002,-0.009,0.010,100.950,-1.965,1.011,0.032,2,2,3.394
1778532773552,0.033,0.986,-0.193,-0.004,-0.008,0.011,101.170,-1.722,0.935,0.067,2,2,3.270
1778532773565,0.033,0.987,-0.193,-0.005,-0.008,0.012,101.110,-1.823,1.025,0.051,2,2,3.260
1778532773579,0.033,0.987,-0.193,-0.006,-0.008,0.014,101.123,-1.829,1.016,0.052,2,2,3.953
1778532773593,0.033,0.987,-0.194,-0.007,-0.008,0.015,101.233,-1.818,1.004,0.059,2,2,3.266
1778532773606,0.033,0.987,-0.195,-0.009,-0.007,0.017,101.280,-1.769,1.006,0.079,2,2,3.258
1778532773619,0.033,0.987,-0.195,-0.012,-0.006,0.018,101.267,-1.853,1.008,0.089,2,2,3.267
1778532773633,0.035,0.986,-0.196,-0.015,-0.006,0.020,101.386,-2.037,0.995,0.109,2,2,3.264
1778532773646,0.036,0.986,-0.195,-0.019,-0.005,0.021,101.281,-2.146,1.013,0.122,2,2,3.945
1778532773660,0.037,0.987,-0.194,-0.023,-0.006,0.023,101.173,-2.201,1.028,0.134,2,2,3.254
1778532773674,0.037,0.988,-0.193,-0.027,-0.006,0.024,101.023,-2.251,1.022,0.129,2,2,3.532
1778532773687,0.038,0.990,-0.192,-0.030,-0.006,0.025,100.907,-2.289,1.032,0.115,2,2,3.360
1778532773701,0.039,0.990,-0.192,-0.033,-0.006,0.025,100.883,-2.417,1.014,0.107,2,2,3.273
1778532773714,0.039,0.991,-0.191,-0.036,-0.005,0.025,100.796,-2.381,1.023,0.118,2,2,3.936
1778532773728,0.039,0.992,-0.189,-0.038,-0.004,0.026,100.550,-2.378,1.034,0.092,2,2,3.259
1778532773742,0.040,0.993,-0.188,-0.039,-0.004,0.026,100.340,-2.468,1.033,0.071,2,2,3.450
1778532773755,0.040,0.994,-0.186,-0.039,-0.003,0.026,100.211,-2.492,1.025,0.060,2,2,3.253
1778532773768,0.040,0.994,-0.186,-0.040,-0.003,0.026,100.205,-2.477,1.016,0.065,2,2,3.258
1778532773782,0.040,0.995,-0.185,-0.042,-0.002,0.026,100.146,-2.483,1.015,0.082,2,2,3.919
1778532773796,0.041,0.995,-0.184,-0.043,-0.001,0.026,100.064,-2.501,1.009,0.097,2,2,3.268
1778532773809,0.041,0.995,-0.183,-0.045,-0.001,0.027,99.939,-2.497,1.020,0.100,2,2,3.259
1778532773822,0.041,0.996,-0.181,-0.047,-0.000,0.027,99.706,-2.520,1.033,0.087,2,2,3.245
1778532773836,0.042,0.998,-0.179,-0.047,0.000,0.027,99.531,-2.619,1.038,0.062,2,2,3.265
1778532773849,0.043,0.999,-0.178,-0.046,0.001,0.027,99.410,-2.628,1.035,0.035,2,2,3.884
1778532773863,0.043,1.000,-0.176,-0.044,0.001,0.026,99.249,-2.703,1.032,0.020,2,2,3.290
1778532773877,0.044,1.001,-0.174,-0.042,0.001,0.026,99.091,-2.693,1.031,0.021,2,2,3.267
1778532773890,0.045,1.002,-0.172,-0.039,0.002,0.025,98.888,-2.818,1.042,0.044,2,2,3.276
1778532773903,0.046,1.003,-0.170,-0.035,0.001,0.024,98.753,-2.895,1.042,0.071,2,2,3.256
1778532773917,0.047,1.006,-0.168,-0.030,0.001,0.022,98.560,-3.008,1.063,0.107,2,2,3.835
1778532773931,0.049,1.009,-0.166,-0.023,-0.000,0.018,98.272,-3.198,1.093,0.176,2,2,3.273
1778532773944,0.053,1.016,-0.161,-0.013,-0.002,0.010,97.788,-3.575,1.166,0.299,2,2,3.289
1778532773957,0.069,1.042,-0.155,0.002,-0.002,-0.016,97.089,-4.572,1.675,0.800,2,2,3.253
1778532773971,0.088,1.097,-0.137,0.042,0.001,-0.073,95.826,-5.308,2.341,1.864,2,2,3.248
1778532773984,0.126,1.104,-0.111,0.080,-0.004,-0.116,93.435,-8.190,1.646,1.615,4,4,3.827
1778532773998,0.164,1.129,-0.063,0.115,-0.017,-0.127,90.201,-9.970,2.168,1.130,4,4,3.314
1778532774011,0.190,1.123,0.000,0.144,-0.028,-0.133,85.005,-11.280,1.863,1.001,4,4,3.254
1778532774025,0.207,1.091,0.075,0.158,-0.028,-0.131,78.215,-11.959,1.842,0.513,4,4,3.277
1778532774038,0.233,1.059,0.153,0.152,-0.026,-0.111,71.786,-12.981,2.054,0.430,4,4,3.278
1778532774052,0.256,1.030,0.229,0.136,-0.023,-0.084,66.139,-13.809,2.065,0.661,1,1,3.892
1778532774066,0.274,1.003,0.297,0.110,-0.023,-0.052,61.083,-14.433,1.940,0.939,1,1,3.287
1778532774079,0.283,0.983,0.354,0.073,-0.024,-0.019,57.050,-14.566,1.750,1.218,1,1,3.254
1778532774092,0.285,0.975,0.397,0.029,-0.026,0.014,54.558,-14.292,1.589,1.420,1,1,3.269
1778532774106,0.280,0.976,0.425,-0.022,-0.028,0.046,53.555,-13.599,1.458,1.587,1,1,3.258
1778532774119,0.269,0.985,0.440,-0.078,-0.028,0.076,53.889,-12.418,1.406,1.737,4,4,3.894
1778532774133,0.255,0.999,0.443,-0.137,-0.026,0.104,55.280,-11.022,1.402,1.868,4,4,3.262
1778532774146,0.240,1.014,0.437,-0.202,-0.020,0.130,57.361,-9.664,1.376,2.032,4,4,3.272
1778532774160,0.225,1.034,0.425,-0.268,-0.011,0.153,59.833,-8.377,1.492,2.139,4,4,3.273
1778532774173,0.209,1.059,0.408,-0.332,0.001,0.174,62.637,-7.072,1.615,2.115,4,4,3.255
1778532774187,0.194,1.083,0.385,-0.390,0.016,0.191,65.597,-5.957,1.615,2.028,4,4,3.909
1778532774200,0.184,1.102,0.359,-0.443,0.033,0.206,68.682,-5.222,1.525,1.964,4,4,3.261
1778532774214,0.174,1.118,0.328,-0.492,0.052,0.220,71.956,-4.566,1.497,1.937,4,4,3.250
1778532774227,0.165,1.133,0.292,-0.535,0.070,0.234,75.493,-4.093,1.554,1.846,4,4,3.281
1778532774241,0.158,1.146,0.248,-0.571,0.086,0.247,79.362,-3.712,1.586,1.682,4,4,3.261
1778532774254,0.149,1.151,0.199,-0.601,0.099,0.260,83.701,-3.186,1.544,1.548,4,4,3.961
1778532774268,0.138,1.154,0.143,-0.626,0.109,0.270,88.247,-2.487,1.633,1.435,4,4,3.258
1778532774281,0.124,1.161,0.081,-0.643,0.115,0.273,92.581,-1.724,1.843,1.171,4,4,3.266
1778532774295,0.112,1.171,0.013,-0.647,0.117,0.271,96.757,-1.193,2.022,0.786,4,4,3.275
1778532774308,0.101,1.178,-0.057,-0.637,0.114,0.264,100.881,-0.677,2.084,0.406,4,4,3.258
1778532774322,0.084,1.186,-0.128,-0.615,0.109,0.253,104.683,0.092,2.175,0.067,1,1,3.972
1778532774336,0.063,1.195,-0.198,-0.581,0.105,0.236,108.180,1.068,2.259,0.372,1,1,3.277
1778532774349,0.044,1.207,-0.267,-0.536,0.105,0.211,111.248,1.839,2.322,0.769,1,1,3.295
1778532774362,0.030,1.220,-0.331,-0.480,0.107,0.183,113.853,2.313,2.317,1.125,1,1,3.262
1778532774376,0.005,0.992,-0.312,-0.443,0.116,0.159,94.579,2.808,4.036,0.782,1,1,3.262
1778532774389,0.070,0.994,-0.168,-0.333,0.099,0.098,87.417,0.148,3.491,2.918,1,1,3.919
1778532774403,0.060,0.994,-0.180,-0.228,0.083,0.046,89.880,0.945,1.090,2.843,1,1,3.265
1778532774417,0.030,0.993,-0.201,-0.129,0.090,0.023,93.155,3.478,1.326,2.525,1,1,3.268
1778532774430,0.027,0.992,-0.203,-0.055,0.101,0.005,94.270,3.436,0.996,1.953,1,1,3.254
1778532774443,0.023,0.992,-0.204,0.004,0.103,-0.004,95.016,3.473,1.023,1.551,1,1,3.246
1778532774457,0.019,0.988,-0.206,0.047,0.097,-0.008,96.135,3.463,0.935,1.168,1,1,3.886
1778532774471,0.020,0.986,-0.202,0.080,0.092,-0.009,96.090,2.863,0.963,0.938,1,1,3.254
1778532774484,0.024,0.985,-0.196,0.110,0.092,-0.013,95.870,1.992,0.974,0.915,1,1,3.274
1778532774497,0.029,0.984,-0.191,0.139,0.092,-0.018,95.885,1.034,0.966,0.890,1,1,3.249
1778532774511,0.031,0.984,-0.189,0.163,0.086,-0.023,96.111,0.477,0.996,0.808,1,1,3.254
1778532774524,0.032,0.982,-0.191,0.180,0.079,-0.025,96.809,0.166,0.971,0.647,1,1,3.902
1778532774538,0.030,0.983,-0.190,0.193,0.074,-0.025,97.035,0.306,1.015,0.522,1,1,3.252
1778532774552,0.029,0.985,-0.186,0.205,0.071,-0.023,96.968,0.152,1.035,0.522,1,1,3.437
1778532774565,0.032,0.984,-0.188,0.214,0.067,-0.021,97.514,-0.398,1.000,0.463,1,1,3.504
1778532774579,0.034,0.983,-0.190,0.217,0.063,-0.019,98.104,-0.767,0.985,0.292,1,1,3.267
1778532774592,0.038,0.984,-0.187,0.217,0.058,-0.021,98.073,-1.398,1.033,0.236,1,1,3.910
1778532774606,0.040,0.987,-0.186,0.218,0.050,-0.023,98.124,-1.651,1.054,0.298,1,1,3.269
1778532774619,0.042,0.988,-0.186,0.219,0.043,-0.026,98.335,-1.892,1.030,0.286,1,1,3.268
1778532774633,0.042,0.989,-0.186,0.219,0.037,-0.029,98.502,-1.986,1.029,0.286,1,1,3.254
1778532774646,0.043,0.990,-0.186,0.220,0.029,-0.032,98.698,-2.169,1.027,0.305,1,1,3.273
1778532774660,0.044,0.990,-0.187,0.220,0.022,-0.036,98.946,-2.338,1.029,0.299,1,1,3.887
1778532774674,0.047,0.992,-0.187,0.218,0.017,-0.040,99.152,-2.603,1.044,0.280,1,1,3.255
1778532774687,0.047,0.996,-0.186,0.218,0.012,-0.045,99.089,-2.622,1.093,0.286,1,1,3.267
1778532774700,0.050,0.997,-0.187,0.217,0.008,-0.050,99.295,-2.984,1.045,0.296,1,1,3.252
1778532774714,0.055,1.005,-0.187,0.219,0.005,-0.060,99.256,-3.405,1.206,0.412,1,1,3.262
1778532774727,0.056,1.016,-0.185,0.223,0.003,-0.073,99.059,-3.438,1.273,0.514,1,1,3.895
1778532774741,0.049,1.030,-0.185,0.231,0.001,-0.084,98.911,-2.690,1.352,0.578,1,1,3.253
1778532774754,0.042,1.037,-0.186,0.243,-0.001,-0.085,99.018,-1.923,1.224,0.568,1,1,3.294
1778532774768,0.037,1.042,-0.187,0.256,-0.001,-0.084,99.080,-1.406,1.172,0.604,1,1,3.257
1778532774781,0.032,1.048,-0.189,0.270,-0.001,-0.082,99.294,-0.952,1.189,0.626,1,1,3.255
1778532774794,0.031,1.057,-0.190,0.285,0.000,-0.081,99.342,-0.919,1.272,0.673,1,1,3.884
1778532774808,0.033,1.066,-0.192,0.301,0.001,-0.080,99.442,-1.186,1.290,0.734,1,1,3.259
1778532774822,0.037,1.073,-0.194,0.319,0.001,-0.081,99.617,-1.599,1.253,0.791,1,1,3.269
1778532774835,0.040,1.080,-0.197,0.338,0.001,-0.083,99.816,-1.905,1.283,0.845,1,1,3.256
1778532774848,0.042,1.089,-0.199,0.359,-0.000,-0.086,99.947,-2.014,1.291,0.922,1,1,3.256
1778532774862,0.040,1.101,-0.200,0.382,-0.002,-0.089,99.871,-1.829,1.382,0.996,3,3,3.888
1778532774876,0.036,1.116,-0.201,0.411,-0.004,-0.090,99.710,-1.502,1.468,1.157,3,3,3.253
1778532774889,0.032,1.134,-0.199,0.445,-0.006,-0.090,99.374,-1.164,1.542,1.339,3,3,3.283
1778532774903,0.027,1.155,-0.196,0.486,-0.007,-0.087,98.906,-0.759,1.629,1.553,3,3,3.262
1778532774916,0.023,1.180,-0.189,0.536,-0.009,-0.082,98.218,-0.448,1.710,1.833,3,3,3.309
1778532774930,0.026,1.209,-0.177,0.597,-0.014,-0.076,97.192,-0.705,1.866,2.182,3,3,3.993
1778532774944,0.042,1.251,-0.161,0.668,-0.022,-0.073,96.020,-1.603,2.206,2.511,3,3,3.256
1778532774957,0.065,1.310,-0.134,0.736,-0.038,-0.073,94.478,-2.603,2.695,2.542,3,3,3.502
1778532774971,0.089,1.390,-0.099,0.801,-0.058,-0.083,92.932,-3.392,3.268,2.586,3,3,3.261
1778532774984,0.113,1.483,-0.084,0.864,-0.082,-0.100,92.259,-4.058,3.575,2.656,3,3,3.258
1778532774998,0.100,1.588,-0.096,0.925,-0.097,-0.120,92.546,-3.390,3.906,2.631,4,4,3.880
1778532775012,0.093,1.670,-0.081,0.983,-0.107,-0.142,91.919,-3.003,3.485,2.626,4,4,3.250
1778532775025,0.104,1.746,-0.038,1.040,-0.123,-0.172,90.342,-3.235,3.532,2.727,4,4,3.278
1778532775038,0.151,1.750,-0.017,1.094,-0.151,-0.203,89.013,-5.947,2.237,2.835,4,4,3.265
1778532775052,0.183,1.579,0.036,1.146,-0.183,-0.183,74.724,-7.228,2.632,2.716,4,4,3.262
1778532775065,0.198,1.335,0.204,1.115,-0.209,-0.142,63.246,-7.069,5.593,1.323,4,4,3.890
1778532775079,0.159,1.248,0.267,0.981,-0.217,-0.130,55.219,-4.347,1.909,2.545,4,4,3.361
1778532775093,0.169,1.270,0.330,0.852,-0.221,-0.156,54.314,-4.809,2.458,2.656,4,4,3.370
1778532775106,0.177,1.272,0.371,0.727,-0.226,-0.157,53.549,-5.407,1.867,2.532,4,4,3.432
1778532775119,0.182,1.240,0.407,0.608,-0.230,-0.130,50.748,-6.063,1.360,2.586,4,4,3.269
1778532775133,0.187,1.210,0.434,0.492,-0.227,-0.100,48.675,-6.785,1.194,2.595,4,4,3.914
1778532775147,0.190,1.190,0.452,0.381,-0.217,-0.080,47.982,-7.363,1.162,2.541,4,4,3.251
1778532775160,0.192,1.176,0.461,0.274,-0.203,-0.064,48.465,-7.887,1.100,2.530,4,4,3.266
1778532775174,0.199,1.159,0.464,0.171,-0.186,-0.043,49.097,-8.980,1.018,2.560,4,4,3.256
1778532775187,0.205,1.153,0.465,0.072,-0.168,-0.014,50.634,-9.670,1.189,2.631,4,4,3.255
1778532775200,0.210,1.152,0.465,-0.023,-0.147,0.023,52.264,-10.187,1.246,2.712,4,4,3.917
1778532775214,0.217,1.168,0.463,-0.115,-0.124,0.063,54.374,-10.470,1.631,2.781,4,4,3.249
1778532775228,0.229,1.196,0.458,-0.204,-0.101,0.110,56.720,-10.907,1.900,2.868,4,4,3.284
1778532775241,0.243,1.231,0.448,-0.289,-0.080,0.162,59.244,-11.308,2.090,2.956,4,4,3.277
1778532775254,0.255,1.273,0.431,-0.371,-0.064,0.217,62.043,-11.503,2.253,3.028,4,4,3.260
1778532775268,0.249,1.316,0.403,-0.450,-0.045,0.274,65.200,-10.714,2.271,3.087,4,4,3.951
1778532775282,0.228,1.379,0.361,-0.526,-0.020,0.350,68.644,-9.212,2.826,3.470,4,4,3.258
1778532775295,0.199,1.455,0.303,-0.599,0.011,0.416,72.322,-7.611,3.278,3.379,4,4,3.266
1778532775309,0.179,1.535,0.227,-0.670,0.046,0.446,76.251,-6.521,3.602,2.950,4,4,3.259
1778532775322,0.186,1.617,0.122,-0.738,0.073,0.447,80.646,-6.349,4.039,2.662,4,4,3.263
1778532775335,0.244,1.682,-0.016,-0.803,0.072,0.442,85.751,-7.564,4.621,2.519,1,1,3.961
1778532775349,0.279,1.726,-0.178,-0.841,0.030,0.472,91.323,-8.067,4.692,2.467,1,1,3.261
1778532775363,0.225,1.742,-0.341,-0.848,-0.019,0.518,97.070,-6.153,4.528,2.359,1,1,3.326
1778532775376,0.109,1.747,-0.501,-0.838,-0.038,0.517,102.578,-2.815,5.045,0.927,1,1,3.272
1778532775390,-0.010,1.846,-0.423,-0.714,-0.044,0.405,99.679,0.471,4.941,3.543,1,1,3.255
1778532775403,0.005,1.707,-0.428,-0.615,-0.009,0.297,79.510,-0.747,1.471,3.302,1,1,3.937
1778532775417,-0.059,1.725,-0.299,-0.499,0.006,0.224,75.749,1.578,3.607,3.036,1,1,3.556
1778532775431,-0.069,1.682,-0.340,-0.388,0.028,0.186,82.734,2.451,1.486,2.697,1,1,3.293
1778532775446,-0.067,1.646,-0.346,-0.281,0.026,0.165,86.184,2.434,0.975,2.529,1,1,4.920
1778532775459,-0.077,1.600,-0.364,-0.205,0.015,0.155,91.433,3.765,1.000,1.797,1,1,3.261
1778532775475,-0.081,1.562,-0.367,-0.153,0.024,0.158,94.227,4.505,0.856,1.242,1,1,5.839
1778532775489,-0.067,1.538,-0.355,-0.112,0.028,0.152,94.310,2.881,1.040,0.959,1,1,3.253
1778532775503,-0.051,1.511,-0.348,-0.078,0.020,0.137,95.066,0.837,0.998,0.868,1,1,4.030
1778532775516,-0.040,1.484,-0.342,-0.054,0.011,0.121,95.880,-0.316,0.945,0.674,1,1,3.294
1778532775529,-0.033,1.463,-0.335,-0.035,0.000,0.104,96.286,-0.997,1.034,0.633,1,1,3.248
1778532775545,-0.021,1.446,-0.327,-0.016,-0.014,0.085,96.471,-2.082,1.101,0.752,1,1,5.712
1778532775559,-0.025,1.427,-0.323,0.000,-0.024,0.072,97.064,-1.269,1.056,0.554,1,1,3.254
1778532775572,-0.024,1.410,-0.317,0.012,-0.027,0.067,97.423,-1.092,1.044,0.344,1,1,3.295
1778532775586,-0.017,1.391,-0.316,0.022,-0.029,0.062,98.198,-1.717,1.033,0.294,1,1,3.253
1778532775599,-0.011,1.379,-0.311,0.029,-0.028,0.054,98.490,-2.218,1.131,0.263,1,1,3.245
1778532775612,-0.004,1.364,-0.308,0.035,-0.028,0.044,98.941,-2.769,1.075,0.286,1,1,4.016
1778532775627,0.003,1.351,-0.304,0.041,-0.028,0.031,99.156,-3.274,1.100,0.371,1,1,3.264
1778532775640,0.008,1.339,-0.301,0.049,-0.028,0.015,99.384,-3.510,1.115,0.482,1,1,3.364
1778532775654,0.010,1.332,-0.296,0.059,-0.028,-0.004,99.389,-3.449,1.193,0.585,1,1,3.255
1778532775667,0.007,1.327,-0.292,0.071,-0.028,-0.023,99.427,-2.786,1.244,0.649,1,1,3.252
1778532775683,0.008,1.332,-0.287,0.090,-0.027,-0.030,99.219,-2.653,1.447,0.624,1,1,6.683
1778532775697,0.011,1.327,-0.286,0.109,-0.026,-0.042,99.446,-2.780,1.241,0.706,1,1,3.250
1778532775711,0.007,1.323,-0.283,0.130,-0.024,-0.053,99.494,-2.186,1.258,0.732,1,1,3.261
1778532775724,0.008,1.319,-0.281,0.151,-0.022,-0.061,99.617,-2.037,1.264,0.752,1,1,3.281
1778532775737,0.005,1.317,-0.279,0.174,-0.021,-0.069,99.770,-1.641,1.287,0.820,1,1,3.261
1778532775753,0.005,1.317,-0.278,0.200,-0.020,-0.076,99.824,-1.470,1.338,0.907,1,1,5.766
1778532775767,0.004,1.319,-0.276,0.229,-0.019,-0.082,99.799,-1.307,1.376,1.008,1,1,3.271
1778532775781,-0.002,1.322,-0.273,0.261,-0.018,-0.087,99.679,-0.644,1.412,1.126,1,1,4.230
1778532775794,-0.005,1.330,-0.270,0.298,-0.016,-0.089,99.476,-0.308,1.535,1.265,1,1,3.266
1778532775808,-0.010,1.339,-0.265,0.341,-0.014,-0.090,99.148,0.110,1.546,1.461,1,1,3.261
1778532775822,-0.015,1.351,-0.256,0.392,-0.014,-0.088,98.494,0.573,1.611,1.712,1,1,4.659
1778532775836,-0.018,1.366,-0.244,0.452,-0.016,-0.086,97.590,0.734,1.708,2.023,1,1,3.263
1778532775849,-0.018,1.387,-0.229,0.523,-0.019,-0.084,96.615,0.740,1.851,2.362,1,1,3.279
1778532775863,-0.001,1.421,-0.210,0.596,-0.026,-0.085,95.469,-0.275,2.201,2.514,1,1,3.270
1778532775876,0.028,1.465,-0.189,0.667,-0.040,-0.095,94.343,-1.694,2.523,2.556,1,1,3.576
1778532775890,0.046,1.529,-0.166,0.735,-0.061,-0.110,93.295,-2.338,2.981,2.617,3,3,3.902
1778532775904,0.063,1.612,-0.164,0.801,-0.080,-0.137,93.183,-2.780,3.446,2.707,3,3,3.260
1778532775917,0.074,1.705,-0.168,0.864,-0.099,-0.162,93.233,-2.973,3.760,2.690,3,3,3.267
1778532775930,0.085,1.790,-0.137,0.924,-0.119,-0.179,92.155,-3.167,3.702,2.665,3,3,3.277
1778532775944,0.098,1.867,-0.103,0.983,-0.144,-0.220,90.962,-3.453,3.631,2.911,3,3,3.393
1778532775958,0.178,1.839,-0.079,1.039,-0.188,-0.255,88.946,-8.420,2.337,3.072,4,4,4.114
1778532775973,0.196,1.657,0.000,1.074,-0.228,-0.241,75.406,-8.731,2.949,2.341,4,4,3.293
1778532775986,0.145,1.489,-0.034,0.987,-0.231,-0.220,57.822,-5.727,2.520,1.343,4,4,3.273
1778532776001,0.155,1.456,0.029,0.858,-0.211,-0.251,54.944,-6.441,1.627,2.728,4,4,3.271
1778532776014,0.185,1.448,0.071,0.733,-0.191,-0.242,54.690,-8.469,1.815,2.523,4,4,3.254
1778532776028,0.211,1.410,0.121,0.613,-0.176,-0.191,51.929,-10.546,1.557,2.749,4,4,3.935
1778532776042,0.227,1.375,0.167,0.498,-0.161,-0.139,49.592,-11.733,1.436,2.794,4,4,3.260
1778532776056,0.234,1.344,0.207,0.387,-0.144,-0.102,47.939,-12.280,1.329,2.657,4,4,3.254
1778532776070,0.238,1.310,0.239,0.279,-0.131,-0.070,46.338,-12.700,1.146,2.627,4,4,3.263
1778532776084,0.242,1.278,0.268,0.176,-0.124,-0.028,44.921,-13.080,1.125,2.716,4,4,3.254
1778532776098,0.240,1.263,0.296,0.077,-0.121,0.019,45.086,-12.633,1.316,2.796,4,4,4.652
1778532776112,0.232,1.262,0.318,-0.019,-0.119,0.068,46.170,-11.680,1.472,2.832,4,4,3.255
1778532776125,0.225,1.271,0.334,-0.111,-0.117,0.119,47.983,-10.759,1.617,2.896,4,4,3.288
1778532776139,0.223,1.285,0.345,-0.199,-0.117,0.175,50.081,-10.306,1.719,2.988,4,4,3.425
1778532776152,0.220,1.313,0.352,-0.285,-0.119,0.238,52.498,-9.757,1.985,3.117,4,4,3.268
1778532776166,0.208,1.352,0.351,-0.367,-0.118,0.305,55.221,-8.729,2.230,3.244,4,4,3.945
1778532776181,0.176,1.403,0.341,-0.446,-0.104,0.365,58.276,-6.771,2.580,3.165,4,4,3.332
1778532776194,0.119,1.468,0.325,-0.522,-0.065,0.423,61.358,-4.107,3.102,3.302,4,4,3.254
1778532776207,0.078,1.550,0.284,-0.596,-0.012,0.487,65.041,-2.417,3.490,3.574,4,4,3.281
1778532776221,0.056,1.640,0.218,-0.666,0.048,0.523,69.224,-1.583,3.845,3.307,4,4,3.270
1778532776238,0.073,1.731,0.108,-0.734,0.096,0.520,74.205,-1.983,4.400,2.867,4,4,8.223
1778532776253,0.133,1.789,-0.045,-0.800,0.113,0.520,80.270,-3.463,4.778,2.617,4,4,3.271
1778532776266,0.160,1.825,-0.214,-0.841,0.099,0.557,86.556,-4.011,4.759,2.458,4,4,3.261
1778532776279,0.109,1.836,-0.378,-0.854,0.085,0.590,92.815,-2.425,4.589,1.888,4,4,3.349
1778532776293,0.037,1.843,-0.536,-0.853,0.089,0.566,98.591,-0.378,4.728,0.844,4,4,3.274
1778532776311,0.067,1.937,-0.470,-0.728,0.095,0.461,96.460,-1.287,4.182,3.387,4,4,9.095
1778532776325,0.036,1.882,-0.443,-0.609,0.131,0.364,94.586,2.842,0.937,3.477,4,4,3.270
1778532776339,-0.031,1.878,-0.310,-0.493,0.145,0.326,88.914,5.009,3.493,2.634,4,4,3.258
1778532776352,-0.043,1.833,-0.378,-0.382,0.177,0.318,95.283,5.306,2.068,2.699,4,4,3.556
1778532776366,-0.037,1.779,-0.399,-0.275,0.184,0.302,100.057,4.400,1.041,2.533,4,4,3.261
1778532776379,-0.040,1.721,-0.410,-0.193,0.173,0.299,104.192,4.663,0.802,1.965,1,1,3.906
1778532776393,-0.041,1.674,-0.416,-0.140,0.183,0.297,106.665,4.551,0.842,1.330,1,1,3.268
1778532776407,-0.025,1.646,-0.401,-0.093,0.181,0.285,105.532,2.502,1.073,1.141,1,1,3.265
1778532776420,-0.009,1.613,-0.391,-0.053,0.166,0.263,105.082,0.316,0.980,1.043,1,1,3.277
1778532776433,-0.001,1.581,-0.386,-0.027,0.153,0.241,105.262,-0.760,0.924,0.754,1,1,3.264
1778532776447,0.007,1.553,-0.381,-0.010,0.137,0.217,105.426,-1.703,1.005,0.640,1,1,3.909
1778532776461,0.011,1.532,-0.370,0.003,0.115,0.196,104.529,-1.968,1.086,0.673,1,1,3.291
1778532776474,0.012,1.505,-0.365,0.015,0.097,0.177,104.609,-2.072,0.963,0.591,1,1,3.352
1778532776488,0.013,1.484,-0.359,0.026,0.084,0.164,104.418,-1.989,1.048,0.432,1,1,3.398
1778532776502,0.014,1.465,-0.353,0.035,0.075,0.152,104.198,-2.046,1.063,0.359,1,1,3.941
1778532776515,0.016,1.446,-0.347,0.041,0.069,0.141,104.024,-2.103,1.070,0.277,1,1,3.892
1778532776529,0.022,1.430,-0.341,0.046,0.064,0.127,103.751,-2.644,1.106,0.296,1,1,3.281
1778532776543,0.027,1.418,-0.335,0.052,0.061,0.110,103.357,-3.013,1.171,0.385,1,1,3.265
1778532776556,0.029,1.406,-0.329,0.060,0.057,0.090,102.986,-3.134,1.172,0.499,1,1,3.249
1778532776569,0.033,1.396,-0.324,0.070,0.054,0.068,102.804,-3.409,1.199,0.608,1,1,3.263
1778532776583,0.028,1.392,-0.319,0.084,0.053,0.044,102.411,-2.708,1.318,0.718,1,1,3.822
1778532776597,0.032,1.380,-0.317,0.099,0.050,0.028,102.567,-3.010,1.174,0.651,1,1,3.253
1778532776610,0.034,1.371,-0.314,0.116,0.048,0.012,102.488,-3.067,1.201,0.686,1,1,3.254
1778532776623,0.032,1.364,-0.310,0.133,0.046,-0.004,102.341,-2.693,1.225,0.703,1,1,3.244
1778532776637,0.028,1.356,-0.307,0.152,0.045,-0.016,102.259,-2.151,1.196,0.715,1,1,3.276
1778532776651,0.025,1.349,-0.304,0.171,0.043,-0.027,102.141,-1.765,1.237,0.741,1,1,4.528
1778532776670,0.024,1.346,-0.302,0.193,0.042,-0.037,102.083,-1.636,1.299,0.829,1,1,7.123
1778532776683,0.027,1.345,-0.301,0.218,0.039,-0.048,102.008,-1.843,1.348,0.925,1,1,3.274
1778532776697,0.027,1.343,-0.298,0.246,0.036,-0.057,101.887,-1.826,1.325,1.004,1,1,3.272
1778532776710,0.022,1.344,-0.296,0.276,0.032,-0.065,101.725,-1.265,1.391,1.096,1,1,3.485
1778532776724,0.016,1.352,-0.291,0.311,0.029,-0.072,101.256,-0.758,1.544,1.246,1,1,3.925
1778532776740,0.010,1.360,-0.283,0.354,0.026,-0.075,100.610,-0.293,1.553,1.467,1,1,5.899
1778532776757,0.002,1.375,-0.272,0.409,0.022,-0.075,99.638,0.334,1.699,1.859,1,1,6.824
1778532776771,-0.004,1.393,-0.256,0.475,0.018,-0.073,98.484,0.703,1.795,2.183,1,1,3.249
1778532776784,0.001,1.423,-0.238,0.550,0.013,-0.074,97.279,0.328,2.086,2.506,1,1,3.264
1778532776797,0.019,1.466,-0.215,0.622,0.000,-0.078,95.927,-0.594,2.467,2.530,1,1,3.889
1778532776811,0.041,1.534,-0.190,0.692,-0.018,-0.092,94.710,-1.470,3.084,2.587,1,1,3.267
1778532776827,0.064,1.615,-0.184,0.759,-0.039,-0.118,94.366,-2.251,3.439,2.687,1,1,5.782
1778532776841,0.083,1.716,-0.194,0.824,-0.059,-0.148,94.516,-2.711,3.968,2.737,1,1,3.264
1778532776854,0.117,1.792,-0.174,0.886,-0.088,-0.172,93.655,-3.763,3.578,2.758,1,1,3.276
1778532776867,0.152,1.863,-0.138,0.946,-0.126,-0.213,92.310,-4.831,3.595,3.010,4,4,3.880
1778532776881,0.224,1.789,-0.101,1.004,-0.182,-0.247,84.807,-10.831,1.943,3.200,4,4,3.263
1778532776895,0.236,1.605,0.037,1.035,-0.219,-0.224,73.083,-10.471,3.923,2.226,4,4,3.303
1778532776908,0.179,1.482,0.038,0.961,-0.228,-0.194,57.879,-5.535,1.611,1.236,4,4,3.282
1778532776922,0.162,1.426,0.096,0.839,-0.200,-0.211,53.148,-4.219,1.404,2.468,4,4,3.259
1778532776935,0.171,1.424,0.142,0.721,-0.161,-0.217,52.868,-4.907,1.829,2.536,4,4,3.930
1778532776949,0.207,1.389,0.184,0.603,-0.131,-0.189,50.731,-8.100,1.612,2.584,4,4,3.258
1778532776962,0.240,1.350,0.218,0.488,-0.114,-0.150,48.434,-11.269,1.446,2.666,4,4,3.277
1778532776976,0.263,1.308,0.248,0.377,-0.106,-0.115,46.054,-13.779,1.242,2.628,4,4,3.269
1778532776989,0.272,1.275,0.270,0.271,-0.103,-0.080,45.103,-15.016,1.040,2.634,4,4,3.274
1778532777003,0.271,1.238,0.286,0.168,-0.098,-0.042,43.992,-15.343,0.814,2.675,4,4,3.900
1778532777017,0.267,1.211,0.302,0.069,-0.089,-0.001,44.076,-14.986,0.920,2.725,4,4,3.307
1778532777030,0.264,1.203,0.315,-0.027,-0.073,0.041,45.530,-14.425,1.203,2.770,4,4,3.260
1778532777043,0.263,1.215,0.324,-0.118,-0.052,0.086,47.928,-13.929,1.576,2.841,4,4,3.269
1778532777057,0.267,1.234,0.324,-0.207,-0.027,0.135,50.891,-13.725,1.726,2.934,4,4,3.248
1778532777070,0.275,1.255,0.318,-0.292,-0.000,0.187,53.960,-13.810,1.787,3.012,4,4,3.815
1778532777084,0.287,1.283,0.310,-0.374,0.025,0.241,57.005,-13.992,1.971,3.071,4,4,3.263
1778532777097,0.296,1.318,0.299,-0.453,0.049,0.299,60.013,-13.977,2.144,3.152,4,4,3.354
1778532777111,0.299,1.363,0.283,-0.529,0.075,0.355,63.033,-13.466,2.377,3.185,4,4,3.262
1778532777124,0.276,1.417,0.259,-0.602,0.112,0.420,66.140,-11.711,2.613,3.442,4,4,3.246
1778532777138,0.269,1.482,0.214,-0.672,0.149,0.496,69.808,-10.806,3.000,3.677,4,4,3.860
1778532777152,0.265,1.555,0.151,-0.740,0.185,0.544,73.746,-10.071,3.396,3.274,4,4,3.278
1778532777165,0.275,1.633,0.069,-0.805,0.214,0.556,77.890,-9.816,3.787,2.819,4,4,3.257
1778532777180,0.318,1.700,-0.043,-0.868,0.223,0.557,82.683,-10.518,4.237,2.613,4,4,4.489
1778532777193,0.365,1.736,-0.182,-0.920,0.199,0.591,88.316,-11.306,4.311,2.728,4,4,3.277
1778532777206,0.336,1.755,-0.328,-0.943,0.162,0.657,94.044,-9.865,4.142,2.938,5,5,3.890
1778532777220,0.236,1.759,-0.489,-0.945,0.143,0.687,99.844,-6.636,4.833,1.814,5,5,3.267
1778532777234,0.122,1.773,-0.642,-0.924,0.157,0.654,104.855,-3.385,5.085,0.676,5,5,3.265
1778532777247,0.069,1.796,-0.788,-0.872,0.182,0.597,109.147,-1.781,4.717,1.312,5,5,3.256
1778532777260,0.194,1.893,-0.693,-0.933,0.268,0.482,105.522,-4.915,5.146,4.332,5,5,3.282
1778532777274,0.254,1.869,-0.491,-0.805,0.336,0.372,97.293,-6.414,4.446,4.113,5,5,3.879
1778532777288,0.182,1.833,-0.425,-0.683,0.349,0.323,92.391,-1.609,2.013,2.761,5,5,3.260
1778532777301,0.158,1.796,-0.473,-0.565,0.399,0.309,97.559,-0.398,1.834,3.009,5,5,3.302
1778532777315,0.164,1.753,-0.490,-0.451,0.395,0.291,101.296,-1.680,1.221,2.525,5,5,3.256
1778532777328,0.145,1.703,-0.497,-0.353,0.365,0.284,104.622,0.053,0.949,2.221,5,5,3.260
1778532777341,0.134,1.658,-0.501,-0.294,0.358,0.276,107.145,0.809,0.886,1.258,1,1,3.910
1778532777355,0.136,1.630,-0.482,-0.245,0.352,0.263,105.943,-0.294,1.040,1.045,1,1,3.261
1778532777369,0.149,1.602,-0.466,-0.202,0.330,0.243,105.008,-2.510,1.086,0.997,1,1,3.657
1778532777382,0.151,1.568,-0.460,-0.175,0.308,0.219,105.631,-3.416,0.918,0.717,1,1,3.262
1778532777396,0.157,1.547,-0.441,-0.155,0.284,0.192,104.262,-4.454,1.107,0.711,1,1,3.259
1778532777409,0.155,1.528,-0.428,-0.131,0.262,0.167,103.686,-4.622,1.140,0.751,1,1,3.940
1778532777423,0.145,1.500,-0.424,-0.114,0.243,0.152,104.317,-3.713,0.952,0.488,1,1,3.260
1778532777437,0.135,1.479,-0.416,-0.102,0.229,0.145,104.240,-2.923,1.054,0.230,1,1,3.253
1778532777450,0.131,1.458,-0.408,-0.093,0.218,0.141,104.130,-2.880,1.032,0.177,1,1,3.283
1778532777463,0.133,1.441,-0.401,-0.085,0.208,0.134,103.961,-3.470,1.109,0.127,1,1,3.262
1778532777477,0.134,1.426,-0.392,-0.077,0.199,0.124,103.604,-3.942,1.117,0.206,1,1,3.900
1778532777491,0.138,1.415,-0.382,-0.065,0.190,0.108,103.107,-4.565,1.216,0.382,1,1,3.292
1778532777506,0.140,1.405,-0.373,-0.051,0.180,0.088,102.637,-4.933,1.206,0.546,1,1,4.684
1778532777519,0.132,1.397,-0.366,-0.034,0.172,0.069,102.428,-4.312,1.243,0.584,1,1,3.309
1778532777532,0.123,1.385,-0.362,-0.014,0.163,0.059,102.492,-3.579,1.141,0.549,1,1,3.277
1778532777546,0.117,1.375,-0.355,0.008,0.155,0.052,102.295,-3.108,1.180,0.587,1,1,3.854
1778532777560,0.110,1.365,-0.350,0.030,0.150,0.045,102.209,-2.665,1.185,0.616,1,1,3.296
1778532777574,0.104,1.357,-0.345,0.052,0.145,0.039,102.167,-2.325,1.187,0.645,1,1,3.320
1778532777587,0.101,1.345,-0.341,0.074,0.140,0.035,102.235,-2.235,1.129,0.659,1,1,3.255
1778532777600,0.098,1.337,-0.338,0.097,0.135,0.031,102.266,-2.160,1.190,0.698,1,1,3.275
1778532777614,0.099,1.331,-0.335,0.121,0.130,0.027,102.329,-2.472,1.221,0.726,1,1,3.861
1778532777628,0.100,1.326,-0.332,0.145,0.125,0.020,102.318,-2.745,1.249,0.800,1,1,3.339
1778532777642,0.095,1.319,-0.330,0.172,0.119,0.014,102.441,-2.433,1.218,0.882,1,1,3.760
1778532777655,0.083,1.309,-0.328,0.199,0.114,0.011,102.746,-1.376,1.138,0.895,1,1,3.254
1778532777669,0.069,1.308,-0.326,0.227,0.112,0.012,102.653,-0.307,1.329,0.954,1,1,4.127
1778532777683,0.067,1.316,-0.322,0.260,0.110,0.015,102.284,-0.339,1.502,1.140,1,1,3.886
1778532777697,0.064,1.327,-0.316,0.301,0.107,0.018,101.744,-0.326,1.598,1.358,1,1,3.261
1778532777711,0.061,1.341,-0.308,0.349,0.101,0.023,101.099,-0.246,1.654,1.607,1,1,3.770
1778532777724,0.056,1.356,-0.298,0.407,0.096,0.031,100.297,-0.076,1.683,1.936,1,1,3.307
1778532777738,0.055,1.378,-0.284,0.476,0.088,0.041,99.269,-0.163,1.849,2.286,1,1,3.267
1778532777751,0.061,1.412,-0.264,0.551,0.076,0.051,97.932,-0.602,2.166,2.532,1,1,3.943
1778532777765,0.064,1.468,-0.238,0.624,0.066,0.055,96.498,-0.831,2.726,2.514,1,1,3.254
1778532777778,0.083,1.535,-0.216,0.693,0.051,0.052,95.402,-1.647,3.053,2.525,1,1,3.255
1778532777792,0.073,1.628,-0.218,0.760,0.041,0.037,95.303,-1.259,3.686,2.534,1,1,3.262
1778532777805,0.082,1.732,-0.224,0.825,0.039,0.013,95.254,-1.527,4.024,2.577,1,1,3.247
1778532777818,0.114,1.805,-0.198,0.887,0.029,-0.017,94.176,-2.641,3.507,2.633,4,4,3.898
1778532777832,0.140,1.873,-0.164,0.947,0.007,-0.037,92.848,-3.517,3.492,2.626,4,4,3.263
1778532777846,0.191,1.849,-0.127,1.005,-0.025,-0.033,89.953,-7.114,1.966,2.640,4,4,3.246
1778532777859,0.259,1.673,-0.043,1.060,-0.077,0.015,76.592,-9.498,3.308,3.154,4,4,3.260
1778532777873,0.306,1.525,-0.054,1.007,-0.167,0.061,59.880,-12.140,2.194,2.829,4,4,3.363
1778532777886,0.284,1.453,0.033,0.877,-0.252,0.067,53.847,-10.416,1.935,3.511,4,4,3.861
1778532777900,0.238,1.458,0.090,0.751,-0.306,0.047,53.418,-7.475,2.200,3.057,4,4,3.284
1778532777913,0.206,1.428,0.141,0.631,-0.332,0.047,51.409,-5.039,1.556,2.696,4,4,3.252
1778532777927,0.184,1.395,0.182,0.515,-0.333,0.066,49.515,-3.275,1.300,2.591,4,4,3.265
1778532777940,0.174,1.358,0.214,0.403,-0.318,0.084,47.747,-2.738,1.081,2.565,4,4,3.324
1778532777953,0.176,1.323,0.242,0.295,-0.293,0.099,46.294,-3.602,1.039,2.569,4,4,3.847
1778532777967,0.189,1.298,0.265,0.191,-0.269,0.120,46.173,-5.562,1.171,2.610,4,4,3.273
1778532777981,0.206,1.277,0.284,0.091,-0.252,0.149,46.528,-7.681,1.226,2.674,4,4,3.273
1778532777994,0.219,1.257,0.300,-0.005,-0.239,0.188,47.015,-9.391,1.158,2.770,4,4,3.251
1778532778008,0.227,1.247,0.315,-0.097,-0.230,0.229,48.048,-10.272,1.285,2.813,4,4,3.375
1778532778021,0.234,1.256,0.328,-0.186,-0.221,0.268,49.821,-10.580,1.619,2.814,4,4,3.879
1778532778035,0.240,1.285,0.338,-0.272,-0.215,0.312,52.140,-10.597,2.035,2.893,4,4,3.249
1778532778051,0.245,1.331,0.338,-0.355,-0.211,0.368,54.958,-10.378,2.387,3.096,4,4,3.517
1778532778064,0.244,1.386,0.329,-0.435,-0.207,0.429,58.030,-9.853,2.586,3.215,4,4,3.506
1778532778078,0.224,1.446,0.310,-0.511,-0.192,0.486,61.268,-8.536,2.782,3.181,4,4,3.311
1778532778091,0.179,1.524,0.279,-0.585,-0.156,0.555,64.678,-6.375,3.341,3.522,4,4,3.917
1778532778105,0.154,1.612,0.221,-0.656,-0.110,0.624,68.650,-5.189,3.711,3.638,4,4,3.268
1778532778119,0.144,1.691,0.142,-0.725,-0.059,0.662,73.027,-4.590,3.767,3.251,4,4,3.317
1778532778132,0.169,1.761,0.031,-0.790,-0.015,0.671,78.082,-5.106,4.138,2.893,4,4,3.260
1778532778145,0.227,1.815,-0.117,-0.854,-0.003,0.696,83.799,-6.357,4.741,2.859,4,4,3.241
1778532778159,0.231,1.845,-0.282,-0.891,-0.021,0.761,89.836,-6.139,4.637,3.091,4,4,3.840
1778532778173,0.169,1.848,-0.445,-0.899,-0.038,0.795,95.977,-4.125,4.593,2.080,4,4,3.266
1778532778186,0.077,1.846,-0.600,-0.891,-0.034,0.767,101.670,-1.468,4.792,0.668,4,4,3.256
1778532778200,0.017,1.873,-0.749,-0.844,-0.019,0.715,106.105,0.145,4.879,0.839,4,4,3.265
1778532778213,-0.008,1.884,-0.874,-0.772,-0.003,0.658,110.250,0.827,4.230,1.440,4,4,3.262
1778532778227,0.025,1.912,-0.661,-0.650,0.055,0.540,102.838,-0.102,4.792,3.864,1,1,4.246
1778532778241,-0.079,1.884,-0.545,-0.533,0.103,0.483,96.127,4.196,3.337,3.019,1,1,3.258
1778532778254,-0.095,1.857,-0.642,-0.421,0.188,0.484,101.748,4.597,3.062,3.502,1,1,3.258
1778532778268,-0.069,1.823,-0.635,-0.312,0.201,0.467,102.938,1.998,1.290,2.560,1,1,3.937
1778532778282,-0.072,1.771,-0.635,-0.211,0.179,0.460,106.025,2.589,0.914,2.475,1,1,3.270
1778532778295,-0.075,1.717,-0.639,-0.152,0.182,0.452,109.583,3.197,0.912,1.413,1,1,3.894
1778532778309,-0.059,1.683,-0.615,-0.107,0.189,0.438,108.241,1.259,0.983,1.136,1,1,3.261
1778532778323,-0.020,1.632,-0.607,-0.072,0.167,0.415,110.348,-3.770,1.082,0.944,1,1,3.283
1778532778336,-0.019,1.591,-0.600,-0.055,0.158,0.390,111.514,-3.393,0.817,0.486,1,1,3.266
1778532778349,0.000,1.565,-0.577,-0.042,0.143,0.359,109.850,-5.194,1.096,0.592,1,1,3.279
1778532778365,-0.001,1.539,-0.561,-0.028,0.129,0.332,109.165,-4.526,0.987,0.552,1,1,3.888
1778532778379,0.002,1.515,-0.547,-0.016,0.111,0.307,108.578,-4.433,1.010,0.559,1,1,3.657
1778532778394,-0.002,1.493,-0.536,-0.007,0.099,0.291,108.338,-3.592,1.069,0.339,1,1,3.302
1778532778407,-0.002,1.473,-0.521,0.001,0.090,0.280,107.628,-3.258,1.047,0.246,1,1,3.266
1778532778420,0.004,1.458,-0.507,0.008,0.082,0.268,106.882,-3.588,1.165,0.227,1,1,3.263
1778532778434,0.012,1.444,-0.493,0.015,0.075,0.252,106.182,-4.155,1.165,0.283,1,1,4.001
1778532778448,0.020,1.433,-0.479,0.025,0.069,0.231,105.402,-4.620,1.225,0.442,1,1,3.255
1778532778461,0.028,1.420,-0.466,0.037,0.062,0.206,104.919,-5.110,1.155,0.570,1,1,3.540
1778532778476,0.029,1.406,-0.456,0.051,0.056,0.181,104.568,-4.866,1.138,0.638,1,1,4.258
1778532778489,0.024,1.407,-0.442,0.070,0.050,0.164,103.682,-4.120,1.423,0.632,1,1,3.259
1778532778503,0.024,1.393,-0.432,0.087,0.044,0.150,103.519,-3.817,1.131,0.589,1,1,3.846
1778532778517,0.017,1.379,-0.425,0.104,0.040,0.140,103.589,-2.703,1.098,0.554,1,1,4.143
1778532778531,0.011,1.365,-0.419,0.120,0.039,0.130,103.687,-1.925,1.099,0.536,1,1,3.262
1778532778544,0.010,1.351,-0.413,0.134,0.038,0.122,103.818,-1.635,1.083,0.527,1,1,3.307
1778532778558,0.012,1.341,-0.407,0.149,0.037,0.114,103.829,-1.758,1.163,0.548,1,1,3.269
1778532778571,0.016,1.333,-0.401,0.165,0.036,0.104,103.813,-2.103,1.198,0.591,1,1,3.906
1778532778585,0.019,1.329,-0.397,0.182,0.034,0.093,103.748,-2.223,1.277,0.644,1,1,3.280
1778532778604,0.023,1.323,-0.392,0.200,0.033,0.081,103.786,-2.546,1.238,0.729,1,1,8.561
1778532778617,0.018,1.319,-0.388,0.221,0.031,0.069,103.731,-1.920,1.267,0.798,1,1,3.261
1778532778631,0.016,1.322,-0.382,0.246,0.030,0.060,103.421,-1.571,1.403,0.902,1,1,4.066
1778532778645,0.010,1.327,-0.377,0.275,0.028,0.053,103.129,-1.022,1.475,1.031,1,1,3.883
1778532778659,0.001,1.335,-0.370,0.309,0.028,0.051,102.672,-0.155,1.531,1.191,1,1,3.254
1778532778672,-0.007,1.345,-0.361,0.349,0.028,0.053,102.036,0.424,1.587,1.411,1,1,3.270
1778532778686,-0.015,1.359,-0.353,0.398,0.031,0.056,101.458,0.997,1.676,1.671,1,1,3.252
1778532778699,-0.010,1.385,-0.336,0.459,0.028,0.062,100.270,0.631,1.954,2.040,1,1,3.252
1778532778714,0.003,1.419,-0.314,0.534,0.019,0.069,98.895,-0.145,2.191,2.504,1,1,5.658
1778532778728,0.012,1.481,-0.280,0.607,0.007,0.075,97.168,-0.519,2.898,2.533,1,1,3.246
1778532778741,0.038,1.561,-0.242,0.677,-0.011,0.072,95.525,-1.438,3.403,2.544,1,1,3.276
1778532778760,0.049,1.656,-0.232,0.745,-0.031,0.065,95.017,-1.714,3.759,2.567,1,1,8.320
1778532778773,0.064,1.759,-0.230,0.810,-0.046,0.044,94.783,-2.093,4.024,2.584,1,1,3.272
1778532778787,0.105,1.832,-0.189,0.872,-0.066,0.016,93.213,-3.427,3.640,2.671,4,4,3.999
1778532778801,0.142,1.892,-0.149,0.933,-0.100,-0.013,91.693,-4.631,3.436,2.797,4,4,3.262
1778532778814,0.207,1.769,-0.091,0.991,-0.150,-0.023,79.268,-8.701,2.209,2.893,4,4,3.267
1778532778828,0.260,1.525,0.078,0.995,-0.199,0.031,67.427,-9.266,5.542,2.318,4,4,3.270
1778532778841,0.220,1.410,0.097,0.897,-0.266,0.062,54.826,-5.713,1.380,2.762,4,4,3.261
1778532778854,0.199,1.382,0.169,0.771,-0.309,0.043,51.905,-4.475,1.915,2.903,4,4,3.875
1778532778870,0.171,1.384,0.207,0.650,-0.321,0.023,52.048,-2.659,1.823,2.629,4,4,5.178
1778532778884,0.158,1.340,0.245,0.533,-0.317,0.031,48.971,-1.884,1.135,2.521,4,4,3.282
1778532778897,0.158,1.298,0.274,0.420,-0.301,0.050,46.488,-2.557,0.994,2.561,4,4,3.317
1778532778912,0.166,1.257,0.295,0.312,-0.281,0.067,44.449,-4.349,0.915,2.560,4,4,5.018
1778532778926,0.177,1.220,0.312,0.208,-0.265,0.085,43.261,-6.626,0.902,2.567,4,4,3.889
1778532778940,0.190,1.188,0.327,0.107,-0.256,0.111,42.498,-8.853,0.943,2.626,4,4,3.306
1778532778953,0.203,1.165,0.342,0.010,-0.252,0.144,42.843,-10.584,1.061,2.693,4,4,3.268
1778532778967,0.223,1.154,0.353,-0.083,-0.255,0.182,44.142,-12.544,1.278,2.786,4,4,3.246
1778532778981,0.247,1.160,0.361,-0.173,-0.269,0.231,46.343,-14.100,1.590,2.991,4,4,4.201
1778532778994,0.266,1.179,0.362,-0.259,-0.294,0.297,49.210,-14.900,1.764,3.339,4,4,3.846
1778532779008,0.263,1.213,0.358,-0.342,-0.320,0.373,52.373,-14.035,2.001,3.571,4,4,3.243
1778532779022,0.235,1.259,0.343,-0.422,-0.332,0.449,55.929,-11.807,2.283,3.538,4,4,3.755
1778532779035,0.189,1.314,0.323,-0.499,-0.320,0.513,59.412,-8.947,2.648,3.321,4,4,3.253
1778532779049,0.128,1.372,0.293,-0.574,-0.278,0.574,63.040,-5.787,2.925,3.398,4,4,3.250
1778532779062,0.075,1.444,0.254,-0.645,-0.219,0.646,66.691,-3.393,3.280,3.777,4,4,3.969
1778532779076,0.029,1.521,0.191,-0.714,-0.149,0.715,70.830,-1.568,3.543,3.912,4,4,3.265
1778532779090,0.014,1.602,0.104,-0.780,-0.079,0.741,75.320,-0.966,3.838,3.361,4,4,3.256
1778532779103,0.032,1.682,-0.013,-0.844,-0.025,0.735,80.239,-1.416,4.311,2.910,4,4,3.272
1778532779116,0.079,1.745,-0.158,-0.900,-0.000,0.729,85.617,-2.572,4.690,2.507,4,4,3.295
1778532779130,0.100,1.772,-0.320,-0.917,-0.002,0.751,91.589,-3.003,4.564,1.883,1,1,3.905
1778532779144,0.047,1.773,-0.480,-0.905,-0.003,0.783,97.703,-1.356,4.512,1.726,1,1,3.281
1778532779157,-0.032,1.769,-0.634,-0.877,0.015,0.777,103.373,0.868,4.677,0.806,1,1,3.241
1778532779171,-0.081,1.784,-0.773,-0.822,0.046,0.734,107.908,2.208,4.510,1.124,1,1,3.221
1778532779187,-0.087,1.788,-0.880,-0.744,0.073,0.682,111.888,2.309,3.730,1.636,1,1,6.591
1778532779201,-0.087,1.800,-0.667,-0.623,0.115,0.564,103.844,2.178,4.502,3.734,5,5,3.697
1778532779214,-0.156,1.772,-0.583,-0.508,0.132,0.512,98.086,6.205,2.388,2.704,5,5,3.238
1778532779228,-0.152,1.737,-0.677,-0.396,0.176,0.503,104.010,5.722,2.896,2.845,5,5,3.247
1778532779241,-0.140,1.723,-0.656,-0.289,0.199,0.484,103.411,4.784,1.440,2.627,5,5,3.238
1778532779254,-0.143,1.673,-0.654,-0.185,0.189,0.473,106.571,5.531,0.862,2.512,5,5,3.230
1778532779268,-0.135,1.627,-0.655,-0.105,0.192,0.462,109.617,4.798,0.916,1.987,1,1,3.716
1778532779282,-0.126,1.588,-0.646,-0.058,0.198,0.445,110.602,3.862,0.861,1.236,1,1,3.243
1778532779295,-0.106,1.561,-0.624,-0.021,0.189,0.422,109.432,1.771,1.039,0.936,1,1,3.233
1778532779308,-0.088,1.530,-0.610,0.000,0.173,0.394,109.559,-0.129,0.949,0.701,1,1,3.238
1778532779322,-0.064,1.510,-0.589,0.016,0.160,0.360,108.369,-2.320,1.187,0.704,1,1,3.243
1778532779337,-0.060,1.489,-0.571,0.030,0.142,0.327,107.510,-2.255,1.027,0.719,1,1,5.692
1778532779351,-0.055,1.470,-0.552,0.041,0.126,0.298,106.519,-2.362,1.071,0.643,1,1,3.230
1778532779365,-0.047,1.448,-0.536,0.054,0.109,0.272,105.988,-2.821,0.996,0.659,1,1,3.252
1778532779378,-0.045,1.421,-0.527,0.063,0.095,0.249,106.553,-2.466,0.903,0.535,1,1,3.229
1778532779392,-0.045,1.402,-0.515,0.068,0.087,0.231,106.381,-2.039,1.016,0.319,1,1,3.220
1778532779405,-0.046,1.383,-0.504,0.069,0.081,0.218,106.194,-1.505,1.004,0.169,1,1,3.810
1778532779419,-0.042,1.368,-0.491,0.070,0.077,0.205,105.764,-1.590,1.056,0.162,1,1,3.226
1778532779433,-0.041,1.351,-0.480,0.070,0.073,0.194,105.516,-1.346,1.013,0.123,1,1,4.331
1778532779448,-0.036,1.338,-0.468,0.071,0.070,0.182,105.172,-1.570,1.066,0.168,1,1,4.819
1778532779462,-0.028,1.326,-0.457,0.073,0.066,0.166,104.771,-2.121,1.103,0.275,1,1,3.235
1778532779475,-0.025,1.312,-0.447,0.076,0.063,0.148,104.591,-2.205,1.031,0.339,1,1,3.770
1778532779490,-0.021,1.298,-0.438,0.078,0.059,0.130,104.473,-2.256,1.027,0.376,1,1,3.234
1778532779503,-0.020,1.285,-0.429,0.081,0.056,0.112,104.395,-2.040,1.024,0.386,1,1,3.226
1778532779517,-0.021,1.273,-0.421,0.083,0.053,0.095,104.272,-1.721,1.032,0.368,1,1,3.242
1778532779530,-0.018,1.262,-0.413,0.086,0.050,0.078,104.153,-1.697,1.057,0.397,1,1,3.228
1778532779544,-0.016,1.253,-0.406,0.088,0.047,0.060,104.092,-1.711,1.073,0.435,1,1,3.715
1778532779557,-0.018,1.242,-0.399,0.091,0.044,0.044,104.092,-1.194,1.032,0.403,1,1,3.241
1778532779571,-0.020,1.233,-0.393,0.093,0.040,0.036,104.082,-0.764,1.079,0.248,1,1,3.229
1778532779584,-0.025,1.226,-0.386,0.098,0.038,0.027,103.981,-0.115,1.109,0.300,1,1,3.237
1778532779599,-0.027,1.222,-0.380,0.105,0.037,0.019,103.785,0.299,1.160,0.329,1,1,4.737
1778532779612,-0.029,1.221,-0.374,0.113,0.036,0.012,103.533,0.569,1.225,0.393,1,1,3.692
1778532779626,-0.033,1.219,-0.368,0.124,0.035,0.004,103.388,1.013,1.215,0.445,1,1,3.289
1778532779640,-0.038,1.218,-0.363,0.137,0.036,-0.003,103.257,1.603,1.225,0.501,1,1,3.288
1778532779653,-0.047,1.219,-0.358,0.151,0.038,-0.007,103.015,2.492,1.294,0.554,1,1,3.238
1778532779667,-0.057,1.221,-0.352,0.169,0.043,-0.009,102.792,3.431,1.307,0.652,1,1,4.043
1778532779681,-0.069,1.225,-0.346,0.190,0.048,-0.004,102.440,4.423,1.364,0.778,1,1,3.702
1778532779695,-0.077,1.233,-0.341,0.216,0.056,0.005,102.088,4.975,1.455,0.940,1,1,3.221
1778532779708,-0.086,1.244,-0.334,0.246,0.063,0.023,101.621,5.491,1.512,1.166,1,1,3.243
1778532779721,-0.091,1.267,-0.324,0.284,0.072,0.045,100.864,5.595,1.799,1.445,1,1,3.230
1778532779736,-0.092,1.298,-0.312,0.334,0.078,0.073,99.947,5.383,1.978,1.835,1,1,4.766
1778532779751,-0.090,1.353,-0.290,0.405,0.078,0.104,98.622,4.987,2.563,2.428,4,4,5.493
1778532779765,-0.080,1.413,-0.265,0.483,0.074,0.119,97.203,4.223,2.744,2.551,4,4,3.229
1778532779779,-0.078,1.458,-0.245,0.557,0.071,0.119,96.113,3.891,2.454,2.504,4,4,3.245
1778532779792,-0.080,1.500,-0.246,0.630,0.077,0.098,96.109,3.782,2.435,2.547,4,4,3.262
1778532779805,-0.060,1.522,-0.258,0.699,0.080,0.067,96.914,2.453,2.104,2.619,4,4,3.267
1778532779820,-0.030,1.503,-0.263,0.766,0.079,0.024,98.143,-0.529,1.317,2.722,3,3,4.610
1778532779833,-0.003,1.362,-0.200,0.809,0.081,-0.009,83.533,-1.967,2.169,2.113,3,3,3.241
1778532779847,0.036,1.296,-0.108,0.795,0.080,-0.004,75.126,-4.130,2.113,0.450,3,3,3.230
1778532779860,0.050,1.248,-0.046,0.771,0.078,0.008,68.847,-5.153,1.360,0.352,3,3,3.250
1778532779874,0.056,1.201,0.015,0.734,0.086,0.007,62.962,-5.409,1.381,0.380,3,3,3.232
1778532779887,0.051,1.146,0.064,0.674,0.105,-0.004,56.714,-4.676,1.130,1.091,4,4,3.730
1778532779902,0.048,1.101,0.104,0.597,0.135,-0.017,51.936,-4.019,0.981,1.705,4,4,4.754
1778532779916,0.046,1.063,0.134,0.507,0.171,-0.039,48.611,-3.750,0.826,2.217,4,4,3.232
1778532779929,0.050,1.033,0.155,0.409,0.210,-0.067,47.026,-4.346,0.738,2.593,4,4,3.238
1778532779943,0.058,1.013,0.167,0.306,0.248,-0.098,47.575,-5.756,0.746,2.830,4,4,3.245
1778532779956,0.069,1.002,0.169,0.202,0.284,-0.129,50.146,-7.171,0.851,2.934,4,4,3.874
1778532779970,0.077,0.999,0.164,0.101,0.319,-0.156,53.571,-7.879,0.978,2.917,4,4,3.227
1778532779983,0.078,1.003,0.155,0.005,0.358,-0.180,57.221,-7.615,1.092,2.967,4,4,3.233
1778532779996,0.079,1.014,0.144,-0.088,0.404,-0.206,60.811,-7.370,1.257,3.099,4,4,3.235
1778532780010,0.091,1.032,0.129,-0.178,0.454,-0.230,64.269,-7.968,1.486,3.158,4,4,3.230
1778532780023,0.116,1.057,0.111,-0.264,0.500,-0.249,67.722,-9.334,1.761,3.114,5,5,3.695
1778532780037,0.149,1.085,0.086,-0.344,0.538,-0.269,71.269,-10.947,1.964,2.978,5,5,3.235
1778532780050,0.182,1.112,0.055,-0.419,0.573,-0.292,74.955,-12.458,2.015,2.914,5,5,3.222
1778532780064,0.216,1.140,0.022,-0.487,0.607,-0.315,78.460,-13.802,2.123,2.867,5,5,3.237
1778532780077,0.245,1.165,-0.018,-0.552,0.645,-0.336,82.206,-14.842,2.125,2.900,5,5,3.228
1778532780090,0.273,1.193,-0.061,-0.610,0.692,-0.349,85.709,-15.594,2.244,2.932,5,5,3.689
1778532780104,0.301,1.217,-0.108,-0.659,0.750,-0.347,89.225,-16.372,2.267,2.977,5,5,3.244
1778532780117,0.332,1.241,-0.153,-0.697,0.815,-0.332,92.430,-17.263,2.318,3.017,5,5,3.225
1778532780131,0.361,1.259,-0.196,-0.723,0.877,-0.312,95.483,-18.143,2.263,2.881,5,5,3.227
1778532780147,0.386,1.271,-0.233,-0.739,0.937,-0.291,98.226,-18.984,2.062,2.767,5,5,3.234
1778532780160,0.411,1.274,-0.265,-0.751,0.995,-0.272,100.819,-19.993,1.906,2.729,5,5,3.718
1778532780174,0.436,1.279,-0.295,-0.759,1.051,-0.251,103.068,-20.975,1.947,2.698,5,5,3.366
1778532780187,0.458,1.287,-0.325,-0.760,1.105,-0.226,105.073,-21.667,1.992,2.651,5,5,3.226
1778532780200,0.477,1.292,-0.354,-0.751,1.157,-0.200,106.968,-22.224,1.951,2.600,5,5,3.247
1778532780214,0.493,1.293,-0.381,-0.734,1.207,-0.174,108.836,-22.666,1.831,2.567,5,5,3.216
1778532780228,0.499,1.291,-0.405,-0.712,1.250,-0.148,110.530,-22.645,1.686,2.445,5,5,4.440
1778532780242,0.492,1.286,-0.425,-0.685,1.290,-0.124,112.007,-21.750,1.487,2.379,5,5,3.234
1778532780255,0.478,1.279,-0.437,-0.655,1.331,-0.107,112.926,-20.347,1.337,2.406,5,5,3.214
1778532780269,0.460,1.270,-0.443,-0.622,1.374,-0.091,113.430,-18.684,1.221,2.519,5,5,3.241
1778532780282,0.440,1.258,-0.443,-0.589,1.415,-0.074,113.522,-16.933,1.093,2.544,5,5,3.220
1778532780295,0.417,1.246,-0.439,-0.556,1.456,-0.057,113.149,-14.911,1.048,2.547,5,5,3.783
1778532780309,0.394,1.238,-0.432,-0.523,1.494,-0.041,112.330,-12.950,1.090,2.550,5,5,3.229
1778532780324,0.372,1.231,-0.421,-0.487,1.532,-0.030,111.170,-11.175,1.101,2.554,5,5,4.457
1778532780337,0.353,1.222,-0.408,-0.451,1.568,-0.021,109.697,-9.835,1.045,2.555,5,5,3.247
1778532780351,0.337,1.213,-0.391,-0.416,1.602,-0.014,108.015,-8.832,1.015,2.557,5,5,3.220
1778532780366,0.325,1.205,-0.373,-0.381,1.636,-0.007,106.144,-8.225,1.038,2.564,1,1,5.504
1778532780380,0.316,1.192,-0.354,-0.348,1.668,-0.000,104.212,-8.183,0.910,2.557,1,1,3.240
1778532780393,0.311,1.177,-0.336,-0.320,1.699,0.007,102.537,-8.688,0.863,2.541,1,1,3.246
1778532780406,0.311,1.164,-0.318,-0.296,1.729,0.015,100.875,-9.755,0.954,2.532,1,1,3.233
1778532780420,0.314,1.154,-0.300,-0.274,1.757,0.018,99.366,-10.914,1.007,2.523,1,1,3.223
1778532780433,0.317,1.141,-0.285,-0.254,1.782,0.020,98.099,-12.116,0.937,2.437,1,1,3.712
1778532780447,0.320,1.127,-0.272,-0.241,1.802,0.020,97.340,-13.350,0.898,2.327,1,1,3.224
1778532780461,0.322,1.116,-0.265,-0.232,1.821,0.023,97.263,-14.300,0.961,2.304,1,1,3.742
1778532780474,0.328,1.107,-0.262,-0.223,1.838,0.028,97.763,-15.414,1.034,2.308,1,1,3.681
1778532780488,0.337,1.096,-0.263,-0.215,1.854,0.037,98.778,-16.879,1.052,2.266,1,1,3.242
1778532780501,0.347,1.085,-0.267,-0.209,1.864,0.049,100.007,-18.270,1.087,2.174,1,1,3.696
1778532780515,0.357,1.079,-0.272,-0.204,1.869,0.063,101.252,-19.280,1.157,2.042,1,1,3.225
1778532780528,0.319,1.189,-0.295,-0.194,1.878,0.040,101.367,-16.710,3.732,2.176,1,1,3.266
1778532780542,0.328,1.179,-0.313,-0.175,1.881,0.021,103.778,-17.390,1.284,2.050,1,1,3.224
1778532780555,0.324,1.165,-0.316,-0.169,1.868,0.012,104.684,-17.083,0.985,1.530,1,1,3.231
1778532780568,0.316,1.158,-0.312,-0.166,1.837,0.009,104.520,-16.243,1.032,1.046,1,1,3.705
1778532780582,0.309,1.153,-0.301,-0.162,1.790,0.009,103.486,-15.512,1.067,0.579,1,1,3.232
1778532780595,0.301,1.148,-0.294,-0.156,1.733,0.014,102.896,-14.689,1.034,0.294,1,1,3.237
1778532780609,0.292,1.140,-0.289,-0.153,1.673,0.020,102.635,-13.729,0.993,0.220,1,1,3.240
1778532780622,0.281,1.133,-0.283,-0.151,1.615,0.026,102.312,-12.739,1.004,0.229,1,1,3.236
1778532780635,0.272,1.127,-0.277,-0.150,1.562,0.030,101.868,-11.866,1.009,0.266,1,1,3.694
1778532780649,0.265,1.122,-0.270,-0.150,1.512,0.032,101.483,-11.415,1.010,0.246,1,1,3.251
1778532780663,0.259,1.117,-0.264,-0.149,1.462,0.031,101.008,-10.908,1.033,0.218,1,1,3.239
1778532780676,0.250,1.113,-0.257,-0.148,1.415,0.030,100.608,-10.214,1.025,0.231,1,1,3.265
1778532780691,0.239,1.109,-0.252,-0.147,1.374,0.028,100.331,-9.232,1.027,0.328,1,1,3.278
1778532780704,0.227,1.105,-0.247,-0.145,1.341,0.027,100.092,-8.134,1.032,0.486,1,1,3.698
1778532780718,0.216,1.101,-0.243,-0.142,1.314,0.027,99.948,-7.270,1.034,0.640,1,1,3.238
1778532780731,0.205,1.098,-0.239,-0.139,1.294,0.027,99.800,-6.414,1.034,0.765,1,1,3.233
1778532780745,0.195,1.093,-0.235,-0.136,1.280,0.027,99.669,-5.670,1.010,0.921,1,1,4.159
1778532780759,0.190,1.090,-0.229,-0.132,1.270,0.027,99.289,-5.562,1.029,1.007,1,1,3.229
1778532780772,0.185,1.087,-0.223,-0.129,1.258,0.026,98.845,-5.450,1.022,0.963,1,1,3.855
1778532780786,0.183,1.084,-0.216,-0.125,1.244,0.026,98.395,-5.618,1.020,0.867,1,1,3.246
1778532780799,0.179,1.080,-0.210,-0.120,1.227,0.026,98.013,-5.655,1.004,0.778,1,1,3.227
1778532780813,0.176,1.077,-0.204,-0.116,1.207,0.026,97.666,-5.628,1.017,0.693,1,1,3.240
1778532780826,0.174,1.074,-0.197,-0.111,1.182,0.027,97.091,-5.842,1.031,0.547,1,1,3.229
1778532780843,0.180,1.072,-0.186,-0.108,1.136,0.028,96.144,-6.881,1.073,0.085,1,1,4.106
1778532780857,0.176,1.071,-0.180,-0.102,1.093,0.031,95.815,-6.647,1.049,0.121,1,1,3.237
1778532780870,0.175,1.065,-0.179,-0.097,1.052,0.032,96.209,-6.846,0.962,0.066,1,1,3.289
1778532780883,0.172,1.064,-0.173,-0.093,1.008,0.032,95.772,-6.844,1.053,0.147,1,1,3.252
1778532780897,0.169,1.063,-0.168,-0.085,0.965,0.033,95.516,-6.681,1.049,0.184,1,1,3.236
1778532780910,0.164,1.060,-0.166,-0.077,0.927,0.032,95.770,-6.348,0.991,0.143,1,1,3.814
1778532780924,0.160,1.056,-0.165,-0.072,0.893,0.032,95.938,-6.143,0.999,0.087,1,1,3.227
1778532780937,0.156,1.055,-0.162,-0.066,0.858,0.033,95.872,-5.925,1.031,0.111,1,1,3.221
1778532780950,0.152,1.052,-0.161,-0.060,0.825,0.035,96.111,-5.699,0.996,0.123,1,1,3.229
1778532780964,0.148,1.049,-0.161,-0.056,0.793,0.037,96.384,-5.453,0.994,0.117,1,1,3.226
1778532780977,0.145,1.046,-0.159,-0.052,0.763,0.040,96.498,-5.447,0.999,0.115,1,1,3.791
1778532780991,0.143,1.044,-0.158,-0.050,0.733,0.042,96.537,-5.458,1.016,0.112,1,1,3.232
1778532781006,0.141,1.042,-0.156,-0.046,0.705,0.043,96.591,-5.376,1.014,0.094,1,1,4.693
1778532781019,0.139,1.040,-0.155,-0.044,0.678,0.044,96.628,-5.437,1.008,0.069,1,1,3.229
1778532781032,0.137,1.039,-0.153,-0.040,0.653,0.045,96.622,-5.430,1.023,0.071,1,1,3.221
1778532781046,0.135,1.038,-0.151,-0.037,0.629,0.045,96.599,-5.374,1.023,0.075,2,2,3.688
1778532781060,0.133,1.038,-0.149,-0.032,0.605,0.045,96.444,-5.312,1.038,0.115,2,2,3.218
1778532781073,0.130,1.037,-0.147,-0.025,0.582,0.045,96.469,-5.201,1.024,0.159,2,2,3.261
1778532781086,0.129,1.035,-0.147,-0.019,0.559,0.045,96.566,-5.292,1.006,0.161,2,2,3.226
1778532781100,0.129,1.033,-0.147,-0.013,0.536,0.044,96.716,-5.417,1.020,0.148,2,2,3.230
1778532781113,0.128,1.032,-0.147,-0.007,0.514,0.043,96.882,-5.481,1.015,0.139,1,1,3.684
1778532781127,0.126,1.030,-0.148,-0.002,0.494,0.041,97.137,-5.477,1.012,0.136,1,1,3.229
1778532781140,0.126,1.028,-0.148,0.002,0.474,0.038,97.344,-5.551,1.008,0.116,1,1,3.236
1778532781153,0.124,1.026,-0.149,0.004,0.456,0.036,97.627,-5.491,0.996,0.073,1,1,3.231
1778532781167,0.122,1.025,-0.150,0.005,0.438,0.035,97.767,-5.397,1.021,0.051,1,1,3.229
1778532781181,0.120,1.024,-0.150,0.007,0.420,0.034,97.844,-5.318,1.026,0.052,2,2,4.526
1778532781195,0.119,1.024,-0.150,0.008,0.404,0.034,97.900,-5.316,1.018,0.059,2,2,3.597
1778532781210,0.118,1.023,-0.150,0.009,0.387,0.033,97.945,-5.368,1.018,0.057,2,2,4.931
1778532781223,0.118,1.021,-0.150,0.011,0.372,0.032,98.059,-5.424,1.014,0.052,2,2,3.217
1778532781237,0.118,1.020,-0.151,0.011,0.357,0.030,98.162,-5.512,1.007,0.037,2,2,3.247
1778532781250,0.117,1.019,-0.151,0.012,0.343,0.029,98.206,-5.526,1.025,0.039,2,2,3.695
1778532781264,0.116,1.018,-0.152,0.012,0.329,0.027,98.335,-5.527,1.015,0.034,2,2,3.232
1778532781277,0.115,1.018,-0.152,0.012,0.316,0.025,98.410,-5.473,1.023,0.026,2,2,3.233
1778532781290,0.114,1.017,-0.152,0.011,0.304,0.025,98.431,-5.423,1.020,0.020,2,2,3.222
1778532781306,0.113,1.017,-0.152,0.011,0.292,0.024,98.467,-5.401,1.028,0.026,2,2,4.960
1778532781319,0.112,1.016,-0.152,0.011,0.280,0.024,98.479,-5.433,1.017,0.024,2,2,3.687
1778532781333,0.112,1.015,-0.152,0.010,0.269,0.023,98.539,-5.476,1.007,0.020,2,2,3.242
1778532781346,0.110,1.014,-0.153,0.009,0.259,0.023,98.586,-5.352,1.012,0.022,2,2,3.260
1778532781360,0.109,1.014,-0.153,0.008,0.249,0.023,98.655,-5.294,1.016,0.038,2,2,3.253
1778532781373,0.108,1.014,-0.153,0.007,0.240,0.023,98.621,-5.303,1.032,0.039,2,2,3.259
1778532781386,0.108,1.013,-0.153,0.006,0.231,0.024,98.659,-5.311,1.020,0.034,2,2,3.685
1778532781401,0.108,1.013,-0.153,0.005,0.222,0.023,98.635,-5.339,1.022,0.026,2,2,4.591
1778532781415,0.107,1.012,-0.153,0.004,0.213,0.023,98.638,-5.395,1.015,0.024,2,2,3.236
1778532781429,0.107,1.012,-0.153,0.003,0.205,0.021,98.621,-5.429,1.016,0.029,2,2,3.854
1778532781442,0.107,1.011,-0.153,0.002,0.197,0.020,98.632,-5.471,1.021,0.033,2,2,3.227
1778532781455,0.107,1.011,-0.153,0.001,0.189,0.018,98.588,-5.521,1.022,0.046,2,2,3.684
1778532781469,0.107,1.011,-0.152,0.000,0.181,0.016,98.575,-5.534,1.023,0.050,2,2,3.236
1778532781483,0.107,1.011,-0.152,-0.000,0.173,0.013,98.532,-5.604,1.025,0.055,2,2,3.226
1778532781496,0.106,1.011,-0.152,-0.000,0.165,0.011,98.475,-5.456,1.029,0.059,2,2,3.238
1778532781509,0.105,1.011,-0.151,0.001,0.157,0.009,98.398,-5.448,1.027,0.073,2,2,3.233
1778532781523,0.104,1.011,-0.150,0.002,0.149,0.008,98.326,-5.343,1.027,0.074,2,2,3.710
1778532781537,0.103,1.011,-0.151,0.003,0.142,0.006,98.376,-5.307,1.015,0.062,2,2,3.234
1778532781551,0.102,1.010,-0.151,0.004,0.136,0.005,98.434,-5.258,1.004,0.051,2,2,3.217
1778532781564,0.102,1.009,-0.151,0.004,0.129,0.004,98.491,-5.322,1.009,0.044,2,2,3.264
1778532781577,0.102,1.008,-0.152,0.004,0.123,0.003,98.578,-5.282,1.013,0.047,2,2,3.222
1778532781591,0.101,1.009,-0.152,0.003,0.117,0.002,98.593,-5.278,1.026,0.059,2,2,3.741
1778532781604,0.101,1.010,-0.151,0.002,0.110,0.001,98.514,-5.212,1.044,0.067,2,2,3.233
1778532781618,0.101,1.013,-0.149,0.002,0.103,-0.000,98.233,-5.279,1.105,0.088,2,2,3.217
1778532781631,0.103,1.018,-0.145,0.005,0.095,-0.003,97.737,-5.451,1.130,0.158,2,2,3.261
1778532781644,0.127,1.062,-0.131,0.019,0.088,-0.024,96.526,-6.625,2.126,0.681,2,2,3.223
1778532781658,0.150,1.100,-0.116,0.058,0.075,-0.037,95.306,-7.743,2.052,1.181,3,3,3.779
1778532781672,0.173,1.115,-0.085,0.105,0.055,-0.045,92.676,-9.274,1.718,1.406,3,3,3.235
1778532781685,0.184,1.102,-0.036,0.138,0.040,-0.047,87.482,-10.033,1.387,1.078,3,3,3.244
1778532781698,0.183,1.088,0.025,0.158,0.037,-0.057,82.006,-9.692,1.572,0.737,3,3,3.257
1778532781712,0.189,1.068,0.091,0.167,0.044,-0.060,76.343,-9.749,1.699,0.489,3,3,3.492
1778532781725,0.199,1.046,0.159,0.167,0.056,-0.047,70.841,-10.160,1.773,0.485,4,4,3.832
1778532781741,0.206,1.022,0.222,0.155,0.070,-0.027,65.776,-10.326,1.710,0.671,4,4,3.240
1778532781754,0.212,1.003,0.276,0.132,0.085,-0.008,61.551,-10.495,1.618,0.832,4,4,3.263
1778532781767,0.220,0.991,0.321,0.099,0.098,0.011,58.534,-10.957,1.540,0.985,4,4,3.231
1778532781781,0.230,0.987,0.353,0.061,0.107,0.028,56.766,-11.570,1.458,1.098,4,4,3.221
1778532781794,0.238,0.990,0.374,0.020,0.112,0.043,56.304,-12.113,1.424,1.164,4,4,3.739
1778532781808,0.242,0.996,0.387,-0.022,0.113,0.057,56.596,-12.266,1.331,1.198,4,4,3.243
1778532781821,0.240,0.997,0.392,-0.069,0.112,0.068,57.291,-12.039,1.170,1.331,4,4,3.230
1778532781834,0.237,1.001,0.392,-0.121,0.112,0.076,58.550,-11.724,1.170,1.498,4,4,3.247
1778532781848,0.234,1.010,0.387,-0.174,0.112,0.084,60.279,-11.308,1.240,1.586,4,4,3.236
1778532781861,0.230,1.019,0.378,-0.226,0.111,0.092,62.318,-10.864,1.244,1.622,4,4,3.696
1778532781875,0.226,1.028,0.365,-0.278,0.112,0.100,64.583,-10.452,1.217,1.646,4,4,3.317
1778532781888,0.224,1.036,0.349,-0.328,0.112,0.106,67.049,-10.288,1.228,1.665,4,4,3.247
1778532781902,0.225,1.045,0.329,-0.376,0.113,0.112,69.611,-10.318,1.282,1.640,4,4,3.254
1778532781915,0.224,1.055,0.307,-0.419,0.113,0.119,72.379,-10.199,1.295,1.585,4,4,3.244
1778532781929,0.220,1.061,0.280,-0.459,0.115,0.128,75.380,-9.871,1.249,1.543,4,4,4.481
1778532781943,0.214,1.066,0.251,-0.497,0.119,0.136,78.507,-9.250,1.227,1.531,4,4,3.234
1778532781956,0.208,1.072,0.218,-0.531,0.125,0.144,81.762,-8.683,1.299,1.487,4,4,3.243
1778532781970,0.201,1.080,0.180,-0.558,0.132,0.152,85.183,-8.089,1.433,1.360,4,4,3.225
1778532781983,0.193,1.086,0.136,-0.579,0.140,0.159,88.844,-7.397,1.470,1.206,4,4,3.237
1778532781996,0.183,1.093,0.088,-0.592,0.148,0.162,92.557,-6.546,1.582,1.042,4,4,3.690
1778532782010,0.174,1.105,0.031,-0.597,0.155,0.160,96.302,-5.829,1.819,0.802,4,4,3.227
1778532782023,0.163,1.121,-0.037,-0.590,0.160,0.153,100.092,-5.062,2.116,0.499,4,4,3.239
1778532782037,0.145,1.137,-0.113,-0.570,0.163,0.141,103.868,-4.043,2.324,0.314,4,4,3.236
1778532782050,0.122,1.156,-0.193,-0.537,0.170,0.125,107.411,-2.792,2.529,0.564,4,4,3.248
1778532782064,0.097,1.178,-0.273,-0.489,0.182,0.101,110.562,-1.611,2.647,1.028,1,1,3.688
1778532782077,0.268,1.301,-0.163,-0.378,0.153,0.079,105.829,-5.370,6.082,2.616,1,1,3.241
1778532782091,0.258,1.281,-0.097,-0.298,0.155,0.048,98.804,-5.004,1.578,1.956,1,1,3.224
1778532782104,0.250,1.289,-0.047,-0.194,0.147,0.016,94.537,-4.802,1.810,2.623,1,1,3.225
1778532782117,0.233,1.275,-0.068,-0.094,0.148,-0.001,96.858,-3.672,1.136,2.547,1,1,3.241
1778532782131,0.220,1.264,-0.080,-0.006,0.159,-0.011,97.948,-2.993,1.063,2.342,4,4,3.680
1778532782144,0.217,1.256,-0.086,0.066,0.161,-0.016,98.271,-3.441,1.110,1.943,4,4,3.241
1778532782158,0.210,1.241,-0.094,0.124,0.153,-0.017,99.096,-3.448,0.965,1.628,4,4,3.246
1778532782171,0.203,1.225,-0.105,0.167,0.143,-0.016,100.218,-3.351,0.933,1.301,4,4,3.221
1778532782184,0.195,1.211,-0.111,0.199,0.139,-0.014,100.634,-3.185,0.945,1.022,4,4,3.291
1778532782198,0.192,1.197,-0.117,0.219,0.137,-0.014,101.100,-3.636,0.921,0.741,1,1,3.707
1778532782212,0.191,1.186,-0.118,0.233,0.131,-0.017,100.925,-4.183,0.970,0.609,1,1,3.255
1778532782225,0.187,1.177,-0.121,0.244,0.124,-0.022,100.828,-4.315,1.017,0.547,1,1,3.432
1778532782239,0.181,1.171,-0.121,0.252,0.116,-0.025,100.534,-4.215,1.035,0.482,1,1,3.361
1778532782252,0.180,1.160,-0.126,0.256,0.107,-0.029,100.856,-4.731,0.965,0.408,1,1,3.232
1778532782265,0.177,1.152,-0.129,0.257,0.098,-0.032,100.818,-4.809,1.011,0.341,1,1,3.700
1778532782279,0.170,1.147,-0.129,0.258,0.091,-0.032,100.568,-4.448,1.042,0.289,1,1,3.250
1778532782293,0.165,1.142,-0.131,0.258,0.085,-0.030,100.444,-4.329,1.038,0.262,1,1,3.233
1778532782306,0.162,1.135,-0.134,0.257,0.079,-0.029,100.542,-4.400,1.023,0.245,1,1,3.248
1778532782319,0.158,1.131,-0.137,0.254,0.072,-0.027,100.521,-4.445,1.045,0.210,1,1,3.257
1778532782333,0.157,1.127,-0.137,0.253,0.065,-0.026,100.305,-4.654,1.077,0.243,1,1,3.690
1778532782346,0.155,1.124,-0.139,0.251,0.058,-0.026,100.213,-4.757,1.058,0.243,1,1,3.265
1778532782360,0.154,1.118,-0.142,0.250,0.052,-0.028,100.418,-5.075,1.029,0.271,1,1,3.242
1778532782373,0.152,1.114,-0.146,0.249,0.045,-0.032,100.553,-5.156,1.064,0.279,1,1,3.250
1778532782386,0.155,1.113,-0.148,0.249,0.039,-0.041,100.567,-5.711,1.127,0.384,1,1,3.228
1778532782400,0.156,1.116,-0.149,0.252,0.032,-0.051,100.365,-5.935,1.200,0.481,1,1,3.741
1778532782415,0.143,1.126,-0.152,0.257,0.027,-0.059,100.256,-4.823,1.365,0.474,1,1,3.236
1778532782428,0.139,1.125,-0.155,0.263,0.023,-0.066,100.341,-4.597,1.125,0.500,1,1,3.230
1778532782441,0.135,1.124,-0.158,0.271,0.019,-0.071,100.415,-4.377,1.122,0.518,1,1,3.240
1778532782455,0.129,1.121,-0.161,0.278,0.016,-0.075,100.640,-4.026,1.090,0.515,1,1,3.222
1778532782468,0.122,1.119,-0.165,0.286,0.013,-0.079,100.794,-3.418,1.112,0.510,1,1,3.830
1778532782482,0.113,1.120,-0.169,0.293,0.012,-0.080,100.979,-2.747,1.162,0.496,1,1,3.230
1778532782495,0.107,1.123,-0.172,0.302,0.012,-0.079,101.004,-2.323,1.210,0.536,1,1,3.224
1778532782508,0.102,1.126,-0.175,0.312,0.012,-0.077,101.126,-2.127,1.215,0.573,1,1,3.242
1778532782522,0.098,1.129,-0.179,0.323,0.012,-0.073,101.207,-1.972,1.234,0.619,1,1,3.231
1778532782535,0.095,1.133,-0.183,0.337,0.012,-0.069,101.327,-1.901,1.245,0.689,1,1,3.776
1778532782549,0.093,1.134,-0.187,0.352,0.012,-0.064,101.511,-1.917,1.186,0.750,1,1,3.721
1778532782563,0.084,1.139,-0.189,0.370,0.012,-0.058,101.477,-1.306,1.283,0.834,1,1,3.231
1778532782576,0.078,1.148,-0.192,0.391,0.013,-0.050,101.372,-0.932,1.356,0.958,1,1,3.240
1778532782589,0.076,1.161,-0.193,0.418,0.013,-0.041,101.066,-0.952,1.479,1.122,1,1,3.225
1778532782603,0.078,1.178,-0.192,0.450,0.012,-0.033,100.605,-1.317,1.558,1.308,3,3,3.774
1778532782617,0.082,1.191,-0.192,0.489,0.007,-0.023,100.335,-1.841,1.494,1.529,3,3,3.229
1778532782630,0.074,1.212,-0.186,0.537,0.003,-0.014,99.568,-1.270,1.676,1.803,3,3,3.230
1778532782643,0.079,1.239,-0.178,0.595,-0.004,-0.003,98.608,-1.772,1.836,2.134,3,3,3.227
1778532782656,0.086,1.275,-0.163,0.666,-0.016,0.011,97.367,-2.176,2.090,2.551,3,3,3.226
1778532782670,0.089,1.332,-0.137,0.734,-0.029,0.023,95.757,-2.332,2.623,2.547,4,4,3.729
1778532782684,0.114,1.397,-0.106,0.800,-0.047,0.027,94.138,-3.308,2.940,2.556,4,4,3.232
1778532782697,0.101,1.484,-0.089,0.863,-0.061,0.015,93.280,-2.724,3.405,2.552,4,4,3.230
1778532782710,0.083,1.581,-0.103,0.924,-0.054,-0.016,93.567,-2.002,3.737,2.632,4,4,3.235
1778532782724,0.107,1.644,-0.115,0.982,-0.053,-0.049,93.923,-2.922,3.110,2.663,4,4,3.226
1778532782737,0.128,1.706,-0.091,1.039,-0.065,-0.070,92.788,-3.664,3.155,2.603,4,4,3.816
1778532782752,0.158,1.735,-0.070,1.093,-0.085,-0.085,91.609,-5.097,2.520,2.614,4,4,4.427
1778532782766,0.209,1.622,-0.024,1.145,-0.120,-0.063,79.046,-8.970,1.858,2.747,4,4,3.248
1778532782779,0.365,1.376,0.060,1.136,-0.184,-0.005,65.382,-11.967,5.821,2.541,4,4,3.230
1778532782792,0.329,1.252,0.105,1.017,-0.255,0.009,54.102,-9.493,1.874,2.961,4,4,3.234
1778532782806,0.309,1.228,0.178,0.887,-0.310,-0.016,51.025,-8.185,1.907,3.125,4,4,3.907
1778532782819,0.272,1.236,0.228,0.761,-0.345,-0.034,50.598,-5.945,2.009,2.843,4,4,3.220
1778532782833,0.246,1.215,0.275,0.640,-0.362,-0.033,48.678,-4.198,1.534,2.626,4,4,3.241
1778532782846,0.230,1.200,0.312,0.523,-0.363,-0.025,47.635,-3.416,1.425,2.538,4,4,3.228
1778532782859,0.227,1.184,0.339,0.411,-0.354,-0.020,47.064,-3.715,1.252,2.507,4,4,3.233
1778532782873,0.231,1.164,0.357,0.303,-0.342,-0.012,46.760,-4.964,1.100,2.509,4,4,3.680
1778532782887,0.241,1.140,0.371,0.199,-0.334,0.008,46.446,-7.044,1.022,2.558,4,4,3.228
1778532782900,0.249,1.122,0.383,0.099,-0.329,0.037,46.647,-8.668,1.056,2.630,4,4,3.241
1778532782913,0.253,1.124,0.392,0.003,-0.325,0.068,48.139,-9.229,1.344,2.662,4,4,3.260
1778532782927,0.261,1.140,0.400,-0.090,-0.322,0.106,50.155,-9.812,1.652,2.738,4,4,3.251
1778532782940,0.270,1.168,0.400,-0.180,-0.319,0.155,52.720,-10.249,1.903,2.892,4,4,3.695
1778532782954,0.283,1.206,0.396,-0.266,-0.318,0.213,55.455,-10.721,2.136,3.047,4,4,3.235
1778532782967,0.296,1.255,0.386,-0.349,-0.320,0.276,58.360,-11.047,2.407,3.173,4,4,3.242
1778532782980,0.297,1.312,0.365,-0.429,-0.320,0.341,61.558,-10.630,2.575,3.240,4,4,3.226
1778532782994,0.275,1.375,0.324,-0.505,-0.305,0.406,65.410,-9.250,2.808,3.251,4,4,3.243
1778532783007,0.227,1.453,0.266,-0.580,-0.272,0.483,69.400,-7.042,3.407,3.585,4,4,3.759
1778532783021,0.182,1.538,0.181,-0.651,-0.223,0.558,73.858,-5.228,3.878,3.694,4,4,3.238
1778532783034,0.141,1.614,0.077,-0.719,-0.161,0.594,78.614,-3.711,4.006,3.270,4,4,3.239
1778532783048,0.136,1.679,-0.061,-0.786,-0.101,0.594,83.964,-3.371,4.376,2.946,4,4,3.226
1778532783061,0.180,1.731,-0.224,-0.833,-0.067,0.585,89.564,-4.338,4.893,2.237,4,4,3.240
1778532783074,0.192,1.753,-0.389,-0.838,-0.064,0.614,95.394,-4.467,4.603,1.690,1,1,3.691
1778532783088,0.146,1.747,-0.547,-0.823,-0.066,0.648,101.338,-2.970,4.402,1.593,1,1,3.258
1778532783102,0.063,1.754,-0.698,-0.789,-0.053,0.643,106.391,-0.640,4.766,0.597,1,1,3.883
1778532783115,-0.007,1.776,-0.836,-0.727,-0.015,0.594,110.518,1.226,4.698,1.466,1,1,3.227
1778532783129,0.057,1.692,-0.745,-0.625,0.024,0.479,99.369,-3.544,1.906,3.397,1,1,3.234
1778532783142,-0.001,1.689,-0.596,-0.509,0.045,0.406,92.936,-1.108,3.354,2.973,1,1,3.764
1778532783156,-0.025,1.690,-0.626,-0.397,0.099,0.379,96.124,0.386,2.205,2.927,1,1,3.247
1778532783169,-0.014,1.670,-0.612,-0.289,0.116,0.351,96.916,-0.670,1.283,2.587,1,1,3.233
1778532783183,-0.016,1.627,-0.622,-0.186,0.106,0.333,101.058,-0.231,1.080,2.510,1,1,3.240
1778532783196,-0.020,1.578,-0.626,-0.122,0.104,0.325,105.206,0.469,0.884,1.556,1,1,3.229
1778532783209,-0.022,1.546,-0.615,-0.081,0.111,0.315,106.042,0.780,0.930,1.014,1,1,3.722
1778532783223,-0.010,1.521,-0.595,-0.049,0.104,0.303,105.411,-0.616,1.029,0.785,1,1,3.234
1778532783236,-0.002,1.485,-0.584,-0.029,0.093,0.290,106.393,-1.777,0.777,0.519,1,1,3.229
1778532783251,0.004,1.460,-0.568,-0.019,0.086,0.271,106.135,-2.437,0.971,0.344,1,1,4.029
1778532783264,0.013,1.442,-0.549,-0.008,0.074,0.249,105.256,-3.233,1.060,0.495,1,1,3.279
1778532783277,0.016,1.423,-0.532,0.003,0.063,0.228,104.694,-3.360,1.031,0.476,1,1,3.737
1778532783293,0.016,1.408,-0.516,0.014,0.053,0.211,104.103,-3.184,1.086,0.435,1,1,4.520
1778532783306,0.018,1.390,-0.503,0.024,0.045,0.196,104.017,-3.230,1.021,0.369,1,1,3.226
1778532783321,0.019,1.369,-0.492,0.029,0.040,0.186,104.168,-3.167,0.954,0.207,1,1,4.866
1778532783335,0.025,1.357,-0.479,0.034,0.035,0.174,103.758,-3.617,1.129,0.228,1,1,3.243
1778532783349,0.035,1.345,-0.467,0.040,0.031,0.157,103.435,-4.436,1.125,0.352,1,1,4.574
1778532783363,0.043,1.339,-0.453,0.050,0.026,0.134,102.845,-5.053,1.236,0.564,1,1,3.229
1778532783376,0.054,1.331,-0.442,0.062,0.020,0.107,102.537,-5.873,1.194,0.727,1,1,3.231
1778532783391,0.056,1.323,-0.432,0.074,0.013,0.081,102.340,-5.795,1.190,0.737,1,1,3.239
1778532783404,0.043,1.331,-0.420,0.091,0.007,0.062,101.712,-4.415,1.532,0.678,1,1,3.806
1778532783418,0.043,1.323,-0.412,0.109,0.002,0.048,101.748,-4.166,1.162,0.685,1,1,3.803
1778532783432,0.035,1.314,-0.404,0.128,-0.002,0.035,101.760,-3.098,1.166,0.677,1,1,3.236
1778532783446,0.027,1.310,-0.397,0.146,-0.003,0.025,101.670,-2.116,1.254,0.673,1,1,3.244
1778532783459,0.021,1.309,-0.390,0.166,-0.003,0.017,101.573,-1.500,1.299,0.702,1,1,3.225
1778532783473,0.019,1.309,-0.384,0.188,-0.002,0.011,101.482,-1.284,1.333,0.774,1,1,3.224
1778532783486,0.017,1.306,-0.378,0.211,-0.003,0.005,101.434,-1.046,1.275,0.836,1,1,3.708
1778532783500,0.010,1.304,-0.372,0.236,-0.002,0.001,101.423,-0.312,1.291,0.893,1,1,3.227
1778532783514,0.003,1.308,-0.365,0.265,-0.001,-0.002,101.139,0.299,1.426,1.008,1,1,3.786
1778532783527,0.003,1.317,-0.358,0.298,0.000,-0.003,100.806,0.249,1.511,1.173,1,1,3.224
1778532783540,-0.000,1.327,-0.349,0.338,0.000,-0.002,100.308,0.483,1.568,1.367,1,1,3.232
1778532783554,-0.004,1.340,-0.338,0.385,-0.001,0.002,99.643,0.737,1.628,1.609,1,1,3.689
1778532783567,-0.012,1.354,-0.324,0.440,-0.002,0.008,98.854,1.255,1.659,1.885,1,1,3.222
1778532783581,-0.014,1.376,-0.307,0.506,-0.004,0.016,97.786,1.325,1.859,2.208,1,1,3.273
1778532783594,-0.005,1.406,-0.284,0.580,-0.011,0.025,96.475,0.679,2.097,2.522,1,1,3.231
1778532783607,-0.002,1.458,-0.254,0.651,-0.018,0.030,95.037,0.485,2.607,2.515,1,1,3.244
1778532783621,0.029,1.522,-0.225,0.720,-0.031,0.028,93.777,-0.821,3.032,2.531,1,1,3.686
1778532783634,0.047,1.610,-0.210,0.786,-0.050,0.017,93.237,-1.426,3.566,2.572,1,1,3.232
1778532783648,0.048,1.710,-0.218,0.849,-0.062,-0.004,93.490,-1.406,3.924,2.589,1,1,3.243
1778532783661,0.101,1.779,-0.209,0.911,-0.083,-0.028,93.169,-3.246,3.507,2.666,1,1,3.220
1778532783675,0.110,1.857,-0.162,0.970,-0.107,-0.045,91.582,-3.394,3.694,2.646,1,1,3.232
1778532783688,0.154,1.878,-0.129,1.026,-0.144,-0.052,90.058,-5.455,2.660,2.739,4,4,3.688
1778532783702,0.198,1.701,-0.066,1.081,-0.196,-0.024,75.900,-7.258,2.790,3.032,4,4,3.878
1778532783716,0.288,1.509,-0.018,1.052,-0.260,0.020,62.100,-10.201,3.648,2.265,4,4,3.647
1778532783729,0.255,1.432,0.057,0.924,-0.290,0.032,55.403,-7.774,1.793,2.654,4,4,3.220
1778532783744,0.228,1.454,0.110,0.797,-0.290,0.027,55.520,-6.179,2.337,2.521,4,4,3.243
1778532783758,0.223,1.423,0.156,0.675,-0.278,0.047,53.366,-6.036,1.391,2.554,4,4,3.689
1778532783771,0.222,1.374,0.198,0.557,-0.259,0.078,49.713,-6.473,1.172,2.663,4,4,3.263
1778532783785,0.224,1.332,0.234,0.444,-0.237,0.102,47.016,-7.192,1.129,2.630,4,4,3.258
1778532783798,0.228,1.303,0.265,0.334,-0.215,0.122,45.986,-7.879,1.203,2.607,4,4,3.391
1778532783812,0.230,1.283,0.288,0.229,-0.196,0.148,46.103,-8.397,1.183,2.647,4,4,3.234
1778532783825,0.229,1.261,0.306,0.128,-0.179,0.181,46.281,-8.669,1.069,2.719,4,4,3.796
1778532783840,0.227,1.251,0.322,0.030,-0.162,0.216,47.279,-8.650,1.236,2.761,4,4,4.666
1778532783854,0.224,1.255,0.331,-0.063,-0.144,0.252,49.265,-8.457,1.461,2.784,4,4,3.227
1778532783867,0.223,1.266,0.335,-0.154,-0.126,0.290,51.680,-8.333,1.570,2.832,4,4,3.234
1778532783881,0.227,1.283,0.338,-0.241,-0.110,0.332,53.986,-8.558,1.740,2.895,4,4,3.229
1778532783895,0.236,1.319,0.338,-0.325,-0.096,0.378,56.569,-8.788,2.181,2.961,4,4,5.172
1778532783909,0.233,1.367,0.323,-0.405,-0.083,0.423,59.742,-8.356,2.407,2.985,4,4,3.244
1778532783922,0.211,1.426,0.295,-0.483,-0.061,0.472,63.248,-7.024,2.760,3.088,4,4,3.225
1778532783937,0.188,1.491,0.251,-0.558,-0.035,0.528,67.127,-5.799,3.018,3.250,4,4,4.852
1778532783951,0.163,1.562,0.189,-0.630,-0.001,0.571,71.240,-4.616,3.350,3.144,4,4,3.253
1778532783964,0.154,1.649,0.108,-0.700,0.033,0.587,75.424,-4.101,3.925,2.847,4,4,3.736
1778532783978,0.170,1.727,-0.008,-0.766,0.056,0.587,80.298,-4.375,4.288,2.651,4,4,3.232
1778532783992,0.196,1.773,-0.143,-0.831,0.059,0.594,85.792,-4.968,4.243,2.617,4,4,3.330
1778532784005,0.183,1.795,-0.288,-0.868,0.050,0.626,91.585,-4.354,4.130,2.371,4,4,3.244
1778532784018,0.123,1.803,-0.441,-0.885,0.050,0.652,97.366,-2.462,4.428,1.872,4,4,3.240
1778532784032,0.049,1.814,-0.596,-0.882,0.070,0.637,102.630,-0.386,4.771,1.008,1,1,3.782
1778532784046,0.014,1.840,-0.741,-0.842,0.095,0.596,106.977,0.527,4.657,0.915,1,1,3.228
1778532784060,0.014,1.852,-0.854,-0.776,0.111,0.552,110.854,0.466,3.933,1.212,1,1,3.841
1778532784073,-0.009,1.946,-0.736,-0.655,0.121,0.439,106.516,1.036,4.433,3.558,1,1,3.233
1778532784086,0.021,1.901,-0.529,-0.538,0.142,0.345,97.613,0.046,4.159,3.339,1,1,3.218
1778532784099,-0.027,1.853,-0.500,-0.425,0.150,0.293,95.892,5.028,1.364,2.735,1,1,3.725
1778532784113,-0.049,1.816,-0.524,-0.316,0.188,0.293,99.791,6.460,1.558,2.775,1,1,3.227
1778532784127,-0.026,1.786,-0.531,-0.212,0.198,0.283,101.791,3.950,1.387,2.545,1,1,3.246
1778532784140,-0.029,1.743,-0.525,-0.111,0.184,0.280,103.195,4.041,0.899,2.516,1,1,3.223
1778532784153,-0.024,1.690,-0.537,-0.039,0.186,0.272,107.276,3.290,0.975,1.849,1,1,3.245
1778532784167,-0.028,1.651,-0.535,0.001,0.186,0.261,108.591,3.528,0.943,1.068,1,1,3.956
1778532784181,-0.017,1.623,-0.518,0.032,0.178,0.249,107.606,2.021,1.048,0.831,1,1,3.264
1778532784194,-0.004,1.580,-0.511,0.050,0.164,0.235,108.746,-0.136,0.768,0.566,1,1,3.273
1778532784207,0.002,1.548,-0.500,0.060,0.152,0.218,108.620,-0.957,0.910,0.412,1,1,3.256
1778532784221,0.010,1.524,-0.485,0.069,0.136,0.198,107.710,-1.801,1.027,0.523,1,1,3.657
1778532784235,0.010,1.501,-0.473,0.075,0.125,0.182,107.083,-1.734,1.007,0.380,1,1,3.934
1778532784249,0.011,1.478,-0.462,0.081,0.114,0.169,106.664,-1.744,1.016,0.338,1,1,3.269
1778532784262,0.011,1.457,-0.452,0.085,0.105,0.161,106.305,-1.624,1.024,0.235,1,1,3.258
1778532784275,0.013,1.441,-0.441,0.089,0.097,0.156,105.819,-1.783,1.102,0.208,1,1,3.256
1778532784289,0.016,1.424,-0.429,0.092,0.090,0.152,105.183,-1.998,1.083,0.215,1,1,3.256
1778532784302,0.025,1.411,-0.419,0.097,0.082,0.145,104.648,-2.872,1.164,0.236,1,1,4.074
1778532784320,0.037,1.400,-0.409,0.104,0.075,0.126,104.174,-3.902,1.198,0.475,1,1,3.345
1778532784333,0.044,1.387,-0.400,0.114,0.066,0.104,103.822,-4.540,1.140,0.621,1,1,3.290
1778532784347,0.048,1.373,-0.394,0.126,0.057,0.085,103.808,-4.761,1.098,0.642,1,1,3.264
1778532784360,0.049,1.360,-0.387,0.143,0.050,0.068,103.694,-4.642,1.112,0.701,1,1,3.269
1778532784373,0.045,1.346,-0.381,0.158,0.043,0.054,103.643,-3.955,1.083,0.641,1,1,3.886
1778532784387,0.043,1.338,-0.375,0.173,0.038,0.042,103.440,-3.650,1.166,0.618,1,1,3.256
1778532784404,0.038,1.329,-0.369,0.188,0.034,0.032,103.291,-2.889,1.164,0.613,1,1,6.464
1778532784417,0.035,1.323,-0.363,0.203,0.033,0.023,103.129,-2.504,1.232,0.656,1,1,3.244
1778532784431,0.029,1.326,-0.358,0.221,0.031,0.016,102.786,-1.861,1.404,0.700,1,1,3.269
1778532784444,0.028,1.320,-0.354,0.241,0.030,0.010,102.836,-1.756,1.216,0.770,1,1,3.847
1778532784458,0.020,1.316,-0.350,0.262,0.030,0.006,102.742,-0.909,1.264,0.815,1,1,3.635
1778532784474,0.018,1.323,-0.345,0.288,0.031,0.005,102.374,-0.686,1.509,0.973,1,1,3.279
1778532784487,0.013,1.335,-0.337,0.321,0.032,0.006,101.801,-0.350,1.593,1.161,1,1,3.273
1778532784501,0.008,1.347,-0.329,0.359,0.032,0.010,101.142,0.080,1.635,1.375,1,1,3.296
1778532784514,0.001,1.362,-0.323,0.408,0.037,0.017,100.694,0.508,1.704,1.681,1,1,3.941
1778532784528,-0.000,1.381,-0.308,0.465,0.034,0.029,99.644,0.575,1.802,1.989,1,1,3.374
1778532784542,0.005,1.410,-0.289,0.535,0.029,0.044,98.398,0.204,2.039,2.396,1,1,3.279
1778532784555,0.021,1.449,-0.261,0.608,0.019,0.059,96.738,-0.712,2.366,2.553,1,1,3.258
1778532784569,0.031,1.511,-0.222,0.679,0.005,0.070,94.952,-1.099,2.950,2.554,1,1,3.592
1778532784582,0.053,1.586,-0.182,0.746,-0.011,0.070,93.321,-1.860,3.345,2.538,1,1,3.883
1778532784596,0.029,1.683,-0.178,0.811,-0.019,0.053,93.142,-0.980,3.839,2.537,1,1,3.272
1778532784609,0.035,1.784,-0.182,0.874,-0.018,0.025,93.206,-1.112,4.006,2.601,1,1,3.267
1778532784623,0.064,1.849,-0.143,0.934,-0.024,-0.000,91.723,-2.122,3.411,2.591,1,1,3.261
1778532784636,0.097,1.924,-0.092,0.992,-0.042,-0.021,90.030,-3.102,3.792,2.618,1,1,3.315
1778532784650,0.144,1.874,-0.050,1.048,-0.073,-0.008,85.460,-7.152,1.655,2.668,4,4,3.877
1778532784664,0.211,1.696,0.038,1.102,-0.121,0.058,72.745,-9.268,3.383,3.353,4,4,3.287
1778532784678,0.244,1.472,0.034,1.042,-0.197,0.092,57.177,-9.898,3.560,2.419,4,4,3.314
1778532784691,0.219,1.382,0.116,0.910,-0.242,0.076,50.129,-8.069,2.017,2.902,4,4,3.265
1778532784706,0.186,1.393,0.176,0.784,-0.265,0.052,49.860,-6.020,2.284,2.701,4,4,3.294
1778532784719,0.173,1.366,0.232,0.662,-0.273,0.055,47.794,-5.044,1.637,2.551,4,4,3.917
1778532784733,0.169,1.344,0.277,0.545,-0.268,0.079,46.541,-4.838,1.535,2.601,4,4,3.390
1778532784747,0.177,1.321,0.311,0.432,-0.257,0.100,45.718,-5.825,1.386,2.586,4,4,3.260
1778532784760,0.189,1.298,0.337,0.323,-0.243,0.121,45.314,-7.171,1.282,2.589,4,4,3.264
1778532784774,0.199,1.275,0.355,0.218,-0.231,0.148,45.371,-8.560,1.158,2.646,4,4,3.265
1778532784787,0.208,1.257,0.373,0.117,-0.218,0.182,45.586,-9.591,1.233,2.715,4,4,3.889
1778532784802,0.216,1.259,0.390,0.020,-0.204,0.219,46.983,-10.015,1.546,2.777,4,4,4.051
1778532784815,0.225,1.272,0.402,-0.073,-0.190,0.261,48.863,-10.413,1.746,2.839,4,4,3.245
1778532784829,0.244,1.301,0.408,-0.163,-0.180,0.306,51.281,-11.161,2.111,2.910,4,4,3.286
1778532784842,0.268,1.342,0.408,-0.250,-0.177,0.358,53.960,-11.896,2.415,3.032,4,4,3.309
1778532784861,0.276,1.404,0.388,-0.334,-0.179,0.410,57.519,-11.662,2.795,3.062,4,4,6.649
1778532784876,0.236,1.490,0.350,-0.414,-0.165,0.480,61.372,-9.554,3.453,3.406,4,4,3.558
1778532784892,0.200,1.582,0.277,-0.491,-0.142,0.555,66.013,-7.805,3.884,3.566,4,4,5.731
1778532784905,0.138,1.666,0.186,-0.566,-0.098,0.617,70.877,-5.415,4.119,3.505,4,4,3.515
1778532784919,0.100,1.741,0.074,-0.638,-0.040,0.619,76.048,-3.965,4.206,2.975,4,4,3.430
1778532784933,0.131,1.800,-0.075,-0.707,0.002,0.590,81.862,-4.552,4.615,2.732,4,4,4.085
1778532784947,0.180,1.824,-0.244,-0.745,0.001,0.596,88.249,-5.572,4.746,1.903,4,4,3.410
1778532784963,0.140,1.828,-0.408,-0.751,-0.017,0.638,94.542,-4.137,4.497,1.995,4,4,3.404
1778532784976,0.035,1.832,-0.565,-0.735,-0.012,0.633,100.239,-1.183,4.973,0.611,4,4,3.416
1778532784995,-0.056,1.852,-0.715,-0.680,0.030,0.570,104.992,1.216,5.047,1.712,4,4,8.151
1778532785008,-0.056,1.596,-0.734,-0.680,0.102,0.473,84.914,1.161,4.163,2.917,1,1,3.773
1778532785026,-0.052,1.623,-0.544,-0.562,0.111,0.396,79.818,1.020,4.236,2.997,1,1,7.315
1778532785042,-0.079,1.602,-0.586,-0.448,0.141,0.361,85.778,2.748,2.012,2.720,1,1,5.552
1778532785056,-0.075,1.576,-0.583,-0.339,0.150,0.336,88.817,2.457,1.121,2.550,1,1,3.232
1778532785069,-0.077,1.536,-0.588,-0.241,0.138,0.321,93.292,2.862,0.955,2.305,1,1,3.249
1778532785082,-0.075,1.492,-0.591,-0.183,0.140,0.311,97.857,2.857,0.845,1.336,1,1,3.710
1778532785097,-0.067,1.468,-0.570,-0.142,0.141,0.296,97.801,1.891,0.970,0.956,1,1,4.604
1778532785111,-0.054,1.446,-0.554,-0.103,0.129,0.282,98.226,0.546,1.008,0.923,1,1,3.230
1778532785124,-0.052,1.417,-0.548,-0.085,0.121,0.270,100.107,0.436,0.881,0.411,1,1,3.223
1778532785140,-0.036,1.400,-0.528,-0.070,0.112,0.251,99.565,-1.139,1.082,0.401,1,1,5.500
1778532785153,-0.029,1.383,-0.513,-0.054,0.101,0.231,99.648,-1.671,1.036,0.484,1,1,3.703
1778532785167,-0.024,1.364,-0.502,-0.043,0.090,0.212,100.232,-1.960,0.982,0.441,1,1,3.238
1778532785180,-0.025,1.349,-0.490,-0.033,0.079,0.200,100.409,-1.634,1.052,0.319,1,1,3.234
1778532785194,-0.024,1.333,-0.479,-0.025,0.071,0.191,100.762,-1.409,1.015,0.226,1,1,3.244
1778532785207,-0.019,1.319,-0.468,-0.018,0.065,0.184,100.896,-1.807,1.043,0.198,1,1,3.236
1778532785220,-0.009,1.310,-0.457,-0.011,0.059,0.172,100.982,-2.616,1.147,0.244,1,1,3.686
1778532785234,0.001,1.302,-0.446,-0.002,0.053,0.154,100.886,-3.388,1.172,0.410,1,1,3.257
1778532785247,0.008,1.296,-0.435,0.011,0.047,0.132,100.774,-3.820,1.180,0.549,1,1,3.232
1778532785261,0.011,1.288,-0.426,0.025,0.042,0.111,100.844,-3.743,1.147,0.585,1,1,3.855
1778532785275,0.006,1.285,-0.419,0.040,0.037,0.097,100.970,-3.014,1.237,0.529,1,1,3.229
1778532785288,0.005,1.277,-0.410,0.059,0.033,0.088,100.996,-2.615,1.135,0.575,1,1,3.688
1778532785303,0.003,1.269,-0.403,0.079,0.030,0.079,101.085,-2.202,1.128,0.607,1,1,3.244
1778532785316,-0.000,1.263,-0.396,0.098,0.029,0.071,101.278,-1.624,1.143,0.608,1,1,3.234
1778532785329,0.001,1.258,-0.390,0.117,0.029,0.063,101.408,-1.541,1.187,0.633,1,1,3.247
1778532785343,-0.000,1.252,-0.385,0.136,0.029,0.056,101.628,-1.305,1.143,0.641,1,1,3.289
1778532785356,0.001,1.247,-0.380,0.155,0.029,0.050,101.744,-1.297,1.189,0.669,1,1,3.786
1778532785370,0.005,1.244,-0.376,0.175,0.028,0.045,101.939,-1.575,1.198,0.706,1,1,3.338
1778532785383,0.003,1.244,-0.371,0.198,0.028,0.040,101.944,-1.282,1.285,0.782,1,1,3.231
1778532785397,0.004,1.240,-0.368,0.221,0.028,0.037,102.221,-1.277,1.177,0.823,1,1,3.246
1778532785410,-0.003,1.245,-0.363,0.248,0.029,0.034,102.058,-0.571,1.400,0.942,1,1,3.237
1778532785424,0.002,1.255,-0.358,0.278,0.028,0.033,101.863,-0.935,1.495,1.060,1,1,4.133
1778532785437,0.001,1.269,-0.350,0.315,0.026,0.034,101.342,-0.762,1.593,1.279,1,1,3.240
1778532785451,-0.003,1.287,-0.341,0.360,0.023,0.038,100.713,-0.381,1.680,1.539,1,1,3.230
1778532785464,-0.009,1.306,-0.329,0.414,0.021,0.046,99.877,0.107,1.736,1.843,1,1,3.244
1778532785478,-0.011,1.337,-0.311,0.481,0.018,0.058,98.724,0.261,2.018,2.239,1,1,3.225
1778532785491,-0.002,1.379,-0.287,0.556,0.010,0.073,97.321,-0.260,2.305,2.547,3,3,3.779
1778532785505,0.008,1.444,-0.249,0.628,-0.001,0.083,95.555,-0.633,2.930,2.544,3,3,3.231
1778532785518,0.035,1.521,-0.213,0.697,-0.015,0.083,94.064,-1.626,3.334,2.531,3,3,3.300
1778532785531,0.012,1.625,-0.203,0.764,-0.022,0.061,93.656,-0.770,3.928,2.559,3,3,3.255
1778532785545,0.009,1.729,-0.217,0.829,-0.014,0.027,94.016,-0.626,4.034,2.655,3,3,3.279
1778532785558,0.057,1.808,-0.189,0.891,-0.018,-0.012,92.961,-2.209,3.725,2.699,4,4,3.818
1778532785572,0.091,1.885,-0.144,0.950,-0.037,-0.046,91.444,-3.229,3.755,2.724,4,4,3.294
1778532785585,0.139,1.848,-0.106,1.008,-0.062,-0.052,87.982,-6.995,1.756,2.614,4,4,3.239
1778532785599,0.204,1.680,-0.013,1.063,-0.104,-0.005,75.374,-9.147,3.266,3.014,4,4,3.231
1778532785612,0.260,1.515,-0.008,1.044,-0.183,0.040,59.897,-11.615,2.572,2.624,4,4,3.225
1778532785625,0.228,1.394,0.062,0.913,-0.237,0.036,50.599,-9.268,2.080,2.985,4,4,3.753
1778532785639,0.191,1.383,0.120,0.786,-0.266,-0.001,49.531,-6.606,1.877,2.864,4,4,3.241
1778532785653,0.171,1.362,0.170,0.664,-0.277,-0.022,48.202,-5.041,1.581,2.628,4,4,3.578
1778532785666,0.161,1.338,0.211,0.547,-0.275,-0.014,47.057,-4.346,1.376,2.520,4,4,3.224
1778532785680,0.163,1.311,0.240,0.434,-0.263,0.005,46.351,-4.825,1.156,2.549,4,4,3.235
1778532785693,0.171,1.280,0.263,0.325,-0.245,0.018,45.571,-6.256,1.035,2.536,4,4,3.830
1778532785707,0.180,1.244,0.281,0.220,-0.224,0.028,44.539,-8.077,0.905,2.537,4,4,3.223
1778532785720,0.194,1.215,0.298,0.119,-0.205,0.044,44.107,-10.068,1.000,2.560,4,4,3.234
1778532785733,0.208,1.198,0.315,0.022,-0.189,0.070,44.670,-11.546,1.200,2.620,4,4,3.230
1778532785747,0.221,1.191,0.331,-0.072,-0.174,0.103,45.879,-12.595,1.333,2.688,4,4,3.231
1778532785760,0.235,1.195,0.345,-0.162,-0.161,0.141,47.488,-13.348,1.558,2.751,4,4,3.704
1778532785774,0.253,1.220,0.356,-0.248,-0.152,0.181,49.756,-13.907,1.951,2.789,4,4,3.231
1778532785787,0.274,1.257,0.361,-0.332,-0.148,0.226,52.347,-14.398,2.248,2.859,4,4,3.242
1778532785801,0.295,1.313,0.358,-0.412,-0.151,0.277,55.334,-14.579,2.676,2.982,4,4,3.227
1778532785814,0.306,1.382,0.344,-0.490,-0.156,0.331,58.567,-14.200,2.940,3.046,4,4,3.237
1778532785827,0.298,1.457,0.309,-0.565,-0.151,0.384,62.354,-13.073,3.134,3.062,4,4,3.696
1778532785841,0.266,1.540,0.252,-0.636,-0.135,0.462,66.549,-11.155,3.508,3.549,4,4,3.225
1778532785855,0.223,1.633,0.175,-0.706,-0.106,0.537,70.908,-9.109,4.027,3.581,4,4,3.841
1778532785868,0.184,1.719,0.072,-0.772,-0.064,0.569,75.688,-7.398,4.276,3.046,4,4,3.303
1778532785883,0.214,1.784,-0.075,-0.836,-0.036,0.561,81.418,-7.703,4.666,2.616,4,4,4.018
1778532785896,0.254,1.830,-0.246,-0.875,-0.049,0.579,87.413,-8.206,5.027,2.186,1,1,3.703
1778532785910,0.221,1.842,-0.410,-0.878,-0.082,0.626,93.583,-6.843,4.545,2.275,1,1,3.258
1778532785923,0.117,1.836,-0.567,-0.866,-0.099,0.634,99.614,-3.661,4.861,1.147,1,1,3.234
1778532785937,0.008,1.859,-0.718,-0.825,-0.086,0.590,104.353,-0.756,5.208,0.650,1,1,3.234
1778532785950,-0.165,1.952,-0.511,-0.702,-0.068,0.475,98.707,2.645,6.905,3.560,1,1,3.247
1778532785963,-0.125,1.927,-0.316,-0.583,-0.030,0.365,91.138,1.435,4.240,3.662,5,5,3.698
1778532785977,-0.223,1.931,-0.259,-0.469,-0.002,0.320,88.530,5.723,3.264,2.731,5,5,3.241
1778532785991,-0.226,1.891,-0.319,-0.359,0.045,0.315,94.162,5.995,1.953,2.814,5,5,3.230
1778532786004,-0.210,1.844,-0.332,-0.253,0.045,0.305,97.317,4.598,1.028,2.502,5,5,3.225
1778532786017,-0.219,1.791,-0.351,-0.161,0.044,0.304,101.436,6.387,1.072,2.243,5,5,3.238
1778532786031,-0.205,1.741,-0.361,-0.107,0.055,0.298,104.309,5.129,0.870,1.332,1,1,3.687
1778532786045,-0.180,1.707,-0.351,-0.064,0.061,0.285,103.674,2.746,1.052,1.090,1,1,3.263
1778532786059,-0.159,1.672,-0.343,-0.029,0.055,0.267,103.436,0.665,0.964,0.895,1,1,3.495
1778532786073,-0.142,1.637,-0.345,-0.010,0.049,0.247,104.432,-0.638,0.975,0.573,1,1,3.895
1778532786086,-0.126,1.610,-0.335,0.001,0.039,0.224,103.701,-1.760,1.061,0.508,1,1,3.231
1778532786099,-0.119,1.586,-0.326,0.014,0.030,0.203,102.987,-1.731,1.076,0.535,1,1,3.705
1778532786116,-0.108,1.559,-0.324,0.025,0.021,0.184,103.317,-2.345,0.999,0.490,1,1,6.281
1778532786129,-0.109,1.534,-0.321,0.031,0.015,0.175,103.527,-1.464,1.037,0.226,1,1,3.228
1778532786143,-0.104,1.511,-0.317,0.035,0.011,0.170,103.390,-1.326,1.039,0.188,1,1,3.234
1778532786156,-0.094,1.490,-0.312,0.039,0.008,0.165,103.212,-1.867,1.053,0.166,1,1,3.229
1778532786169,-0.081,1.473,-0.308,0.044,0.005,0.155,102.958,-2.622,1.142,0.199,1,1,3.747
1778532786184,-0.068,1.458,-0.302,0.049,0.002,0.141,102.607,-3.342,1.167,0.310,1,1,3.237
1778532786197,-0.058,1.444,-0.298,0.056,-0.001,0.123,102.348,-3.869,1.164,0.412,1,1,3.232
1778532786212,-0.050,1.430,-0.293,0.066,-0.004,0.104,102.091,-4.059,1.156,0.524,1,1,4.858
1778532786226,-0.047,1.419,-0.289,0.078,-0.006,0.081,101.904,-3.775,1.199,0.640,1,1,3.226
1778532786239,-0.045,1.409,-0.289,0.092,-0.009,0.071,102.056,-3.385,1.207,0.490,1,1,3.795
1778532786253,-0.043,1.396,-0.287,0.107,-0.011,0.060,102.047,-3.050,1.140,0.560,1,1,3.228
1778532786266,-0.043,1.383,-0.285,0.123,-0.012,0.051,102.153,-2.558,1.127,0.563,1,1,3.253
1778532786280,-0.043,1.370,-0.284,0.138,-0.012,0.042,102.258,-2.162,1.126,0.554,1,1,3.236
1778532786293,-0.041,1.362,-0.283,0.153,-0.011,0.034,102.211,-1.925,1.212,0.585,1,1,3.221
1778532786308,-0.035,1.355,-0.282,0.171,-0.011,0.026,102.221,-2.154,1.240,0.645,1,1,5.046
1778532786325,-0.034,1.355,-0.281,0.190,-0.011,0.017,102.149,-1.941,1.367,0.722,1,1,3.233
1778532786338,-0.027,1.345,-0.282,0.211,-0.011,0.007,102.389,-2.342,1.187,0.804,1,1,3.237
1778532786351,-0.033,1.337,-0.282,0.233,-0.012,-0.002,102.489,-1.308,1.191,0.832,1,1,3.233
1778532786365,-0.034,1.336,-0.281,0.257,-0.011,-0.010,102.391,-0.943,1.358,0.914,1,1,3.235
1778532786378,-0.031,1.340,-0.280,0.285,-0.011,-0.016,102.176,-0.977,1.447,1.024,1,1,3.710
1778532786395,-0.037,1.348,-0.277,0.320,-0.010,-0.019,101.797,-0.302,1.548,1.221,1,1,3.234
1778532786410,-0.040,1.362,-0.272,0.363,-0.009,-0.018,101.189,0.031,1.664,1.486,1,1,3.265
1778532786423,-0.040,1.383,-0.263,0.416,-0.010,-0.016,100.293,0.193,1.857,1.799,1,1,3.223
1778532786438,-0.032,1.418,-0.247,0.482,-0.014,-0.011,99.061,-0.214,2.192,2.209,1,1,4.885
1778532786451,-0.018,1.474,-0.222,0.557,-0.023,-0.005,97.545,-0.747,2.731,2.520,3,3,3.700
1778532786466,0.011,1.555,-0.182,0.629,-0.042,-0.005,95.698,-1.727,3.455,2.558,3,3,3.906
1778532786479,0.043,1.654,-0.146,0.699,-0.070,-0.010,94.245,-2.580,3.933,2.625,3,3,3.231
1778532786492,0.045,1.756,-0.148,0.766,-0.094,-0.018,94.118,-2.463,4.006,2.611,3,3,3.227
1778532786506,0.065,1.836,-0.141,0.830,-0.114,-0.045,93.712,-2.985,3.623,2.687,3,3,3.241
1778532786519,0.098,1.893,-0.091,0.892,-0.145,-0.064,91.671,-4.021,3.385,2.733,3,3,3.682
1778532786533,0.137,1.922,-0.043,0.952,-0.184,-0.083,89.448,-5.516,2.935,2.833,3,3,3.238
1778532786546,0.191,1.768,0.014,1.009,-0.238,-0.066,75.964,-8.217,2.453,3.008,3,3,3.238
1778532786560,0.265,1.516,0.086,1.012,-0.294,-0.020,62.321,-9.689,4.730,2.370,3,3,3.234
1778532786575,0.200,1.379,0.140,0.891,-0.305,-0.016,51.606,-5.851,2.416,2.327,3,3,3.282
1778532786588,0.161,1.364,0.194,0.766,-0.284,-0.050,50.221,-3.172,1.848,2.687,4,4,3.686
1778532786603,0.158,1.358,0.236,0.644,-0.251,-0.071,49.861,-3.210,1.686,2.646,4,4,4.788
1778532786616,0.173,1.332,0.270,0.528,-0.222,-0.060,48.609,-4.901,1.369,2.572,4,4,3.219
1778532786630,0.193,1.295,0.296,0.415,-0.198,-0.037,46.889,-7.591,1.177,2.592,4,4,3.246
1778532786643,0.207,1.251,0.318,0.307,-0.182,-0.019,44.208,-9.825,0.995,2.555,4,4,3.229
1778532786656,0.215,1.214,0.337,0.203,-0.170,-0.003,42.686,-11.251,0.937,2.539,4,4,3.708
1778532786670,0.221,1.191,0.354,0.103,-0.161,0.018,42.846,-11.917,1.063,2.565,4,4,3.242
1778532786684,0.225,1.180,0.368,0.006,-0.154,0.046,43.846,-12.312,1.203,2.617,4,4,3.219
1778532786699,0.229,1.179,0.379,-0.087,-0.146,0.080,45.576,-12.402,1.346,2.675,4,4,4.829
1778532786712,0.233,1.192,0.385,-0.176,-0.138,0.115,48.028,-12.337,1.604,2.707,4,4,3.225
1778532786726,0.239,1.215,0.386,-0.263,-0.130,0.153,50.710,-12.247,1.797,2.746,4,4,4.445
1778532786740,0.248,1.252,0.383,-0.346,-0.124,0.196,53.633,-12.263,2.140,2.832,4,4,3.238
1778532786753,0.262,1.305,0.374,-0.426,-0.121,0.247,56.698,-12.297,2.522,2.955,4,4,3.228
1778532786770,0.265,1.367,0.354,-0.503,-0.119,0.302,60.047,-11.790,2.737,3.043,4,4,6.570
1778532786783,0.246,1.434,0.319,-0.577,-0.106,0.361,63.723,-10.383,2.938,3.147,4,4,3.220
1778532786800,0.224,1.507,0.261,-0.648,-0.086,0.441,67.914,-8.975,3.278,3.566,4,4,6.875
1778532786813,0.191,1.590,0.180,-0.717,-0.051,0.501,72.394,-7.326,3.801,3.345,4,4,3.228
1778532786827,0.171,1.669,0.071,-0.783,-0.008,0.521,77.339,-6.278,4.125,2.932,4,4,3.230
1778532786840,0.201,1.731,-0.077,-0.847,0.021,0.526,83.011,-6.707,4.593,2.699,4,4,3.234
1778532786853,0.217,1.760,-0.241,-0.878,0.023,0.563,89.181,-6.746,4.555,2.283,4,4,3.236
1778532786867,0.177,1.762,-0.405,-0.884,0.015,0.608,95.509,-5.269,4.441,2.047,1,1,3.713
1778532786880,0.089,1.758,-0.562,-0.874,0.022,0.609,101.386,-2.567,4.715,0.903,1,1,3.232
1778532786896,0.010,1.790,-0.713,-0.828,0.045,0.561,105.841,-0.429,5.005,1.009,1,1,5.326
1778532786909,0.185,1.887,-0.509,-0.704,0.114,0.448,100.099,-3.764,6.890,4.019,1,1,3.242
1778532786924,0.188,1.880,-0.312,-0.585,0.140,0.338,92.811,-3.736,4.369,3.627,1,1,4.660
1778532786937,0.145,1.856,-0.288,-0.471,0.146,0.283,91.576,-0.470,1.579,2.776,1,1,3.711
1778532786952,0.111,1.814,-0.327,-0.361,0.171,0.265,96.418,1.796,1.603,2.641,1,1,3.585
1778532786965,0.111,1.775,-0.349,-0.254,0.170,0.246,99.860,1.079,1.262,2.517,1,1,3.246
1778532786978,0.086,1.731,-0.359,-0.157,0.165,0.241,102.397,3.501,1.065,2.377,1,1,3.227
1778532786995,0.084,1.680,-0.375,-0.106,0.169,0.230,106.203,2.886,0.918,1.260,1,1,6.263
1778532787008,0.092,1.648,-0.366,-0.070,0.168,0.217,105.653,1.163,1.000,0.881,1,1,3.695
1778532787022,0.095,1.618,-0.359,-0.042,0.159,0.205,105.248,0.124,0.990,0.680,1,1,3.243
1778532787035,0.098,1.586,-0.357,-0.026,0.150,0.190,105.699,-0.830,0.958,0.459,1,1,3.231
1778532787049,0.102,1.560,-0.350,-0.014,0.140,0.173,105.228,-1.722,1.042,0.409,1,1,3.233
1778532787062,0.100,1.536,-0.343,-0.004,0.127,0.157,104.810,-1.808,1.024,0.418,1,1,3.237
1778532787075,0.096,1.512,-0.337,0.004,0.118,0.144,104.504,-1.692,1.002,0.329,1,1,3.699
1778532787091,0.091,1.486,-0.334,0.010,0.110,0.135,104.694,-1.519,0.964,0.211,1,1,5.339
1778532787105,0.087,1.465,-0.329,0.014,0.104,0.132,104.441,-1.308,1.034,0.133,1,1,3.235
1778532787118,0.085,1.445,-0.323,0.017,0.098,0.131,104.190,-1.435,1.012,0.138,1,1,3.247
1778532787131,0.088,1.427,-0.317,0.020,0.092,0.127,103.757,-2.025,1.058,0.127,1,1,3.235
1778532787145,0.091,1.409,-0.311,0.023,0.084,0.120,103.435,-2.746,1.043,0.175,1,1,3.713
1778532787159,0.093,1.391,-0.307,0.028,0.076,0.111,103.246,-3.108,1.039,0.241,1,1,3.236
1778532787172,0.096,1.378,-0.302,0.033,0.069,0.098,102.991,-3.653,1.120,0.304,1,1,3.238
1778532787187,0.098,1.364,-0.299,0.039,0.062,0.082,102.864,-4.023,1.101,0.406,1,1,4.933
1778532787200,0.102,1.354,-0.293,0.047,0.055,0.063,102.498,-4.511,1.159,0.524,1,1,3.224
1778532787214,0.102,1.344,-0.289,0.056,0.049,0.042,102.281,-4.627,1.141,0.600,1,1,4.391
1778532787228,0.098,1.331,-0.288,0.066,0.043,0.022,102.406,-4.211,1.070,0.593,1,1,3.236
1778532787241,0.093,1.318,-0.286,0.075,0.039,0.005,102.471,-3.691,1.075,0.535,1,1,3.237
1778532787255,0.091,1.311,-0.285,0.084,0.033,-0.006,102.570,-3.602,1.193,0.440,1,1,3.242
1778532787269,0.088,1.303,-0.284,0.097,0.030,-0.013,102.596,-3.294,1.145,0.491,1,1,3.253
1778532787282,0.083,1.297,-0.282,0.111,0.027,-0.021,102.523,-2.940,1.206,0.533,1,1,3.787
1778532787296,0.074,1.296,-0.280,0.128,0.026,-0.027,102.297,-2.112,1.296,0.584,1,1,3.237
1778532787310,0.066,1.290,-0.279,0.145,0.026,-0.032,102.319,-1.407,1.194,0.614,1,1,3.944
1778532787323,0.053,1.284,-0.278,0.163,0.027,-0.033,102.326,-0.253,1.199,0.641,1,1,3.231
1778532787336,0.047,1.286,-0.277,0.184,0.030,-0.034,102.154,0.173,1.363,0.723,1,1,3.224
1778532787351,0.045,1.291,-0.275,0.208,0.032,-0.034,101.948,0.119,1.415,0.840,1,1,5.153
1778532787365,0.041,1.300,-0.272,0.236,0.033,-0.035,101.568,0.254,1.522,0.977,1,1,3.225
1778532787378,0.036,1.312,-0.269,0.271,0.035,-0.033,101.130,0.537,1.573,1.176,1,1,3.245
1778532787392,0.028,1.329,-0.262,0.312,0.037,-0.028,100.451,0.949,1.722,1.388,1,1,3.235
1778532787405,0.025,1.356,-0.251,0.364,0.039,-0.021,99.452,0.965,1.953,1.718,1,1,3.232
1778532787418,0.031,1.400,-0.234,0.429,0.035,-0.010,98.249,0.480,2.371,2.145,3,3,3.732
1778532787432,0.047,1.464,-0.205,0.506,0.024,0.001,96.669,-0.286,2.916,2.532,3,3,3.239
1778532787447,0.078,1.549,-0.164,0.580,0.003,0.007,94.852,-1.445,3.571,2.563,3,3,4.882
1778532787461,0.103,1.649,-0.121,0.651,-0.027,0.002,93.243,-2.186,3.967,2.634,3,3,3.245
1778532787475,0.108,1.736,-0.114,0.720,-0.053,-0.015,92.880,-2.325,3.653,2.641,3,3,3.867
1778532787488,0.117,1.793,-0.106,0.786,-0.072,-0.046,92.478,-2.649,3.047,2.704,3,3,3.693
1778532787502,0.137,1.836,-0.066,0.850,-0.098,-0.077,90.698,-3.455,2.963,2.763,3,3,3.229
1778532787515,0.180,1.837,-0.039,0.911,-0.130,-0.101,89.043,-6.002,2.223,2.777,3,3,3.250
1778532787529,0.211,1.712,0.001,0.970,-0.173,-0.076,75.851,-8.638,1.605,2.866,3,3,3.222
1778532787542,0.264,1.471,0.120,1.002,-0.223,-0.010,63.457,-9.438,4.883,2.945,3,3,3.235
1778532787555,0.220,1.318,0.137,0.935,-0.259,0.020,50.222,-6.649,2.210,1.647,4,4,3.691
1778532787570,0.178,1.250,0.193,0.807,-0.258,0.005,44.529,-3.439,1.618,2.541,4,4,3.817
1778532787583,0.153,1.240,0.233,0.684,-0.235,-0.012,44.346,-1.716,1.568,2.569,4,4,3.293
1778532787596,0.150,1.218,0.267,0.566,-0.204,-0.007,43.511,-1.894,1.235,2.575,4,4,3.235
1778532787610,0.157,1.193,0.291,0.453,-0.172,0.012,43.011,-3.324,1.090,2.640,4,4,3.254
1778532787623,0.169,1.157,0.309,0.343,-0.143,0.032,41.654,-5.710,0.905,2.625,4,4,3.706
1778532787637,0.177,1.117,0.324,0.237,-0.121,0.047,39.596,-7.664,0.781,2.583,4,4,3.240
1778532787650,0.183,1.083,0.338,0.136,-0.104,0.063,38.575,-9.282,0.798,2.568,4,4,3.248
1778532787665,0.187,1.057,0.345,0.038,-0.093,0.084,39.066,-10.344,0.739,2.587,4,4,5.057
1778532787679,0.189,1.038,0.354,-0.056,-0.084,0.110,39.923,-10.951,0.862,2.625,4,4,3.260
1778532787692,0.193,1.030,0.365,-0.147,-0.078,0.140,41.421,-11.305,1.089,2.668,4,4,3.700
1778532787706,0.196,1.047,0.372,-0.234,-0.072,0.175,44.061,-11.136,1.539,2.724,4,4,3.249
1778532787719,0.197,1.088,0.369,-0.318,-0.066,0.218,47.585,-10.675,2.016,2.832,4,4,3.227
1778532787735,0.193,1.149,0.347,-0.399,-0.056,0.270,51.949,-9.883,2.497,2.991,4,4,3.243
1778532787748,0.192,1.200,0.318,-0.477,-0.042,0.320,56.285,-9.324,2.338,3.005,4,4,3.227
1778532787761,0.186,1.256,0.287,-0.552,-0.025,0.366,60.346,-8.597,2.514,2.964,4,4,3.703
1778532787775,0.161,1.302,0.251,-0.625,0.004,0.405,64.421,-6.857,2.397,2.972,4,4,3.239
1778532787788,0.132,1.364,0.202,-0.694,0.043,0.445,68.521,-5.290,2.891,3.110,4,4,3.231
1778532787802,0.117,1.441,0.138,-0.761,0.091,0.465,72.683,-4.423,3.382,3.003,4,4,3.235
1778532787815,0.134,1.510,0.052,-0.826,0.136,0.455,77.293,-4.802,3.567,2.828,4,4,3.224
1778532787828,0.186,1.569,-0.054,-0.888,0.164,0.445,82.268,-6.193,3.934,2.659,5,5,3.707
1778532787842,0.227,1.604,-0.174,-0.932,0.166,0.476,87.743,-7.225,3.844,2.438,5,5,3.234
1778532787855,0.216,1.616,-0.302,-0.950,0.160,0.532,93.541,-6.510,3.618,2.449,5,5,3.224
1778532787869,0.150,1.609,-0.446,-0.953,0.167,0.563,99.661,-4.144,4.095,1.748,5,5,3.231
1778532787882,0.076,1.617,-0.584,-0.936,0.193,0.546,104.809,-1.734,4.305,1.005,5,5,3.229
1778532787895,0.045,1.621,-0.702,-0.893,0.223,0.498,109.335,-0.666,3.755,1.264,1,1,3.771
1778532787909,0.026,1.387,-0.610,-0.793,0.257,0.407,92.338,-0.048,3.994,2.901,1,1,3.233
1778532787922,0.022,1.435,-0.442,-0.671,0.251,0.334,87.111,0.037,4.072,2.949,1,1,3.224
1778532787936,-0.010,1.431,-0.440,-0.554,0.253,0.303,88.984,2.570,1.576,2.565,1,1,3.779
1778532787950,-0.006,1.420,-0.450,-0.440,0.256,0.293,91.828,1.983,1.348,2.527,1,1,3.229
1778532787963,-0.005,1.403,-0.457,-0.331,0.256,0.288,94.609,1.777,1.202,2.517,1,1,3.870
1778532787977,-0.012,1.377,-0.455,-0.233,0.257,0.291,96.672,2.596,0.919,2.352,1,1,3.282
1778532787992,-0.010,1.354,-0.449,-0.163,0.256,0.279,98.003,2.108,0.908,1.683,1,1,5.106
1778532788006,0.007,1.338,-0.435,-0.104,0.249,0.259,97.974,-0.138,1.062,1.442,1,1,3.242
1778532788019,0.019,1.316,-0.427,-0.070,0.228,0.236,98.822,-1.839,0.917,0.958,1,1,3.217
1778532788032,0.030,1.298,-0.416,-0.047,0.208,0.210,98.970,-3.182,0.967,0.779,1,1,3.767
1778532788046,0.040,1.285,-0.406,-0.026,0.191,0.181,99.190,-4.201,1.045,0.832,1,1,3.229
1778532788060,0.057,1.270,-0.399,-0.007,0.171,0.149,99.717,-6.034,1.067,0.894,1,1,3.630
1778532788073,0.053,1.259,-0.394,0.007,0.153,0.126,100.220,-5.329,1.047,0.673,1,1,3.222
1778532788087,0.058,1.250,-0.388,0.020,0.139,0.104,100.537,-5.648,1.106,0.637,1,1,3.994
1778532788102,0.054,1.239,-0.382,0.028,0.130,0.089,100.962,-4.906,1.030,0.385,1,1,3.713
1778532788115,0.056,1.234,-0.374,0.037,0.122,0.076,100.874,-4.913,1.140,0.400,1,1,3.231
1778532788129,0.057,1.230,-0.367,0.048,0.113,0.061,100.866,-4.839,1.163,0.470,1,1,3.571
1778532788143,0.052,1.222,-0.361,0.059,0.106,0.050,100.980,-4.094,1.074,0.421,1,1,3.231
1778532788156,0.049,1.212,-0.359,0.072,0.100,0.046,101.557,-3.648,1.042,0.430,1,1,3.546
1778532788170,0.048,1.202,-0.355,0.084,0.093,0.042,101.951,-3.386,1.028,0.398,1,1,3.699
1778532788184,0.046,1.192,-0.352,0.094,0.088,0.040,102.385,-3.119,1.009,0.363,1,1,3.249
1778532788197,0.048,1.182,-0.350,0.104,0.082,0.035,102.789,-3.225,1.021,0.364,1,1,3.233
1778532788210,0.046,1.171,-0.347,0.112,0.077,0.030,103.266,-3.019,0.980,0.353,1,1,3.300
1778532788224,0.044,1.159,-0.345,0.119,0.072,0.026,103.786,-2.705,0.943,0.313,1,1,3.238
1778532788237,0.040,1.147,-0.344,0.124,0.068,0.022,104.349,-2.147,0.934,0.269,1,1,3.705
1778532788251,0.039,1.136,-0.343,0.128,0.064,0.019,104.887,-2.039,0.952,0.238,1,1,3.226
1778532788264,0.038,1.123,-0.343,0.130,0.061,0.016,105.617,-1.935,0.906,0.192,1,1,3.253
1778532788277,0.036,1.113,-0.343,0.130,0.058,0.013,106.029,-1.755,0.957,0.156,1,1,3.235
1778532788291,0.036,1.104,-0.342,0.130,0.054,0.010,106.375,-1.747,0.973,0.147,1,1,3.864
1778532788305,0.037,1.096,-0.341,0.129,0.050,0.005,106.701,-1.923,0.971,0.150,1,1,3.695
1778532788319,0.036,1.087,-0.342,0.126,0.047,0.001,107.153,-1.799,0.956,0.131,1,1,3.228
1778532788332,0.031,1.078,-0.342,0.122,0.043,-0.001,107.541,-1.176,0.957,0.087,1,1,3.242
1778532788345,0.023,1.073,-0.341,0.118,0.041,-0.002,107.672,-0.322,1.014,0.023,1,1,3.226
1778532788359,0.020,1.068,-0.341,0.113,0.040,-0.002,107.802,0.015,1.032,0.009,1,1,3.250
1778532788372,0.018,1.065,-0.341,0.109,0.039,-0.001,107.883,0.163,1.035,0.019,5,5,3.692
1778532788386,0.019,1.062,-0.340,0.105,0.038,-0.002,107.915,-0.054,1.052,0.013,5,5,3.244
1778532788399,0.023,1.054,-0.340,0.101,0.036,-0.004,108.263,-0.668,0.950,0.067,5,5,3.229
1778532788412,0.020,1.043,-0.340,0.094,0.034,-0.007,108.676,-0.455,0.875,0.120,5,5,3.222
1778532788426,0.021,1.036,-0.340,0.086,0.032,-0.011,108.903,-0.610,0.947,0.153,5,5,3.250
1778532788439,0.021,1.031,-0.340,0.078,0.030,-0.015,108.959,-0.652,0.991,0.180,1,1,3.692
1778532788453,0.021,1.026,-0.339,0.069,0.028,-0.019,109.042,-0.730,0.958,0.204,1,1,3.255
1778532788466,0.016,1.025,-0.338,0.060,0.026,-0.021,108.855,-0.202,1.053,0.196,1,1,3.240
1778532788480,0.014,1.026,-0.336,0.052,0.024,-0.022,108.547,0.015,1.095,0.166,1,1,3.248
1778532788493,0.009,1.027,-0.334,0.046,0.022,-0.023,108.239,0.480,1.094,0.126,1,1,3.293
1778532788506,0.006,1.027,-0.332,0.040,0.021,-0.021,108.046,0.764,1.069,0.103,1,1,3.689
1778532788520,0.003,1.027,-0.330,0.036,0.021,-0.019,107.839,0.959,1.071,0.096,1,1,3.256
1778532788534,0.000,1.028,-0.329,0.032,0.021,-0.017,107.587,1.221,1.099,0.085,1,1,3.233
1778532788547,0.001,1.029,-0.327,0.029,0.020,-0.014,107.429,0.958,1.089,0.064,1,1,3.246
1778532788560,0.002,1.029,-0.326,0.027,0.020,-0.013,107.289,0.782,1.061,0.037,1,1,3.231
1778532788574,0.002,1.026,-0.324,0.026,0.019,-0.012,107.257,0.702,1.018,0.025,4,4,3.688
1778532788587,0.003,1.022,-0.323,0.023,0.018,-0.011,107.312,0.546,0.969,0.031,4,4,3.251
1778532788601,0.003,1.015,-0.323,0.020,0.016,-0.011,107.528,0.469,0.929,0.067,4,4,3.230
1778532788614,0.002,1.011,-0.322,0.016,0.015,-0.011,107.672,0.471,0.972,0.107,4,4,3.259
1778532788627,0.001,1.011,-0.321,0.011,0.013,-0.011,107.474,0.576,1.042,0.106,4,4,3.236
1778532788641,0.002,1.012,-0.319,0.008,0.012,-0.012,107.267,0.422,1.066,0.091,2,2,3.723
1778532788655,-0.001,1.012,-0.318,0.005,0.011,-0.012,107.135,0.733,1.066,0.071,2,2,3.239
1778532788668,-0.003,1.012,-0.316,0.003,0.010,-0.011,106.936,0.885,1.055,0.056,2,2,3.226
1778532788681,-0.005,1.012,-0.314,0.001,0.009,-0.010,106.785,1.058,1.046,0.044,2,2,3.245
1778532788695,-0.006,1.011,-0.313,-0.000,0.008,-0.009,106.702,1.068,1.031,0.039,2,2,3.239
1778532788708,-0.006,1.010,-0.311,-0.002,0.008,-0.008,106.601,0.952,1.016,0.046,2,2,3.723
1778532788722,-0.007,1.009,-0.310,-0.004,0.007,-0.008,106.513,1.057,1.031,0.055,2,2,3.243
1778532788735,-0.003,1.010,-0.308,-0.006,0.006,-0.008,106.357,0.588,1.067,0.069,2,2,3.231
1778532788748,-0.004,1.010,-0.306,-0.007,0.005,-0.008,106.248,0.579,1.049,0.056,2,2,3.243
1778532788762,-0.006,1.011,-0.305,-0.008,0.004,-0.008,106.138,0.802,1.076,0.037,2,2,3.233
1778532788775,-0.007,1.012,-0.304,-0.009,0.004,-0.008,105.982,0.886,1.060,0.022,2,2,3.821
1778532788789,-0.009,1.011,-0.302,-0.009,0.003,-0.007,105.883,1.096,1.023,0.023,2,2,3.237
1778532788802,-0.010,1.009,-0.301,-0.009,0.003,-0.006,105.958,1.167,1.009,0.041,2,2,3.230
1778532788816,-0.012,1.006,-0.300,-0.010,0.003,-0.004,106.037,1.355,0.978,0.065,2,2,3.257
1778532788829,-0.012,1.004,-0.299,-0.011,0.003,-0.001,106.024,1.249,0.997,0.080,2,2,3.226
1778532788842,-0.012,1.003,-0.298,-0.013,0.003,0.001,105.986,1.283,1.024,0.085,2,2,3.791
1778532788856,-0.011,1.003,-0.297,-0.014,0.003,0.003,105.897,1.001,1.046,0.059,2,2,3.238
1778532788870,-0.008,1.003,-0.296,-0.015,0.002,0.003,105.812,0.702,1.050,0.037,2,2,3.230
