timestamp,ax,ay,az,gx,gy,gz,roll,pitch_k,acc_norm,gyro_norm,classe_prevista_raw,classe_prevista,delay_ms
1777578527496,-0.0952148,0.92334,-0.497314,0.0121374,-0.0176336,-0.0299237,59.1831,2.59509,1.05306,0.0367925,0,0,3.609
1777578527509,-0.097,0.930,-0.483,0.015,-0.023,-0.043,78.643,3.493,1.053,0.051,0,0,3.292
1777578527523,-0.073,0.935,-0.487,0.024,-0.038,-0.057,88.392,3.614,1.057,0.072,0,0,3.292
1777578527536,-0.098,0.923,-0.482,0.031,-0.054,-0.062,94.265,3.965,1.045,0.088,0,0,3.293
1777578527550,-0.076,0.924,-0.491,0.035,-0.065,-0.069,98.252,4.001,1.049,0.101,0,0,3.281
1777578527563,-0.080,0.927,-0.492,0.036,-0.087,-0.069,101.106,4.049,1.053,0.117,0,0,3.269
1777578527576,-0.063,0.927,-0.502,0.048,-0.133,-0.052,103.313,3.973,1.056,0.150,0,0,3.312
1777578527590,-0.083,0.933,-0.507,0.052,-0.202,-0.021,105.039,4.031,1.065,0.209,0,0,3.274
1777578527603,-0.095,0.919,-0.495,0.054,-0.265,0.035,106.405,4.152,1.048,0.273,0,0,3.306
1777578527617,-0.136,0.907,-0.505,0.053,-0.325,0.095,107.599,4.463,1.047,0.343,0,0,3.256
1777578527630,-0.164,0.899,-0.498,0.045,-0.371,0.143,108.585,4.865,1.040,0.400,0,0,3.243
1777578527643,-0.195,0.915,-0.500,0.037,-0.360,0.180,109.397,5.326,1.060,0.404,0,0,3.267
1777578527657,-0.241,0.892,-0.474,0.022,-0.279,0.162,110.045,5.936,1.038,0.323,0,0,3.251
1777578527670,-0.230,0.908,-0.477,0.003,-0.148,0.116,110.590,6.415,1.051,0.188,0,0,3.283
1777578527683,-0.199,0.918,-0.485,-0.012,-0.029,0.064,111.079,6.714,1.058,0.071,0,0,3.264
1777578527697,-0.103,0.932,-0.486,-0.012,-0.012,0.035,111.493,6.642,1.056,0.039,0,0,3.259
1777578527713,-0.127,0.925,-0.489,-0.010,-0.007,0.035,111.880,6.660,1.054,0.037,0,0,6.336
1777578527727,-0.138,0.923,-0.492,-0.004,-0.009,0.042,112.241,6.709,1.055,0.043,0,0,3.463
1777578527740,-0.141,0.908,-0.494,-0.004,-0.011,0.060,112.594,6.769,1.043,0.061,0,0,3.263
1777578527754,-0.131,0.910,-0.488,-0.010,-0.012,0.073,112.896,6.793,1.041,0.075,0,0,3.264
1777578527767,-0.121,0.917,-0.489,-0.008,-0.015,0.078,113.164,6.785,1.046,0.080,0,0,3.278
1777578527780,-0.108,0.929,-0.483,-0.005,-0.020,0.074,113.380,6.740,1.053,0.076,0,0,3.246
1777578527794,-0.111,0.918,-0.490,0.001,-0.024,0.073,113.610,6.708,1.046,0.077,0,0,3.256
1777578527807,-0.100,0.928,-0.485,0.006,-0.027,0.069,113.799,6.649,1.052,0.074,0,0,3.258
1777578527820,-0.110,0.926,-0.492,0.009,-0.030,0.062,113.994,6.619,1.054,0.069,0,0,3.238
1777578527834,-0.102,0.929,-0.491,0.013,-0.032,0.058,114.169,6.571,1.056,0.067,0,0,3.247
1777578527847,-0.101,0.927,-0.487,0.013,-0.034,0.047,114.325,6.524,1.052,0.059,0,0,3.244
1777578527860,-0.105,0.926,-0.492,0.018,-0.034,0.039,114.483,6.490,1.054,0.054,0,0,3.250
1777578527874,-0.100,0.926,-0.484,0.019,-0.031,0.033,114.614,6.447,1.050,0.049,0,0,3.239
1777578527887,-0.106,0.928,-0.485,0.019,-0.031,0.025,114.738,6.418,1.052,0.044,4,4,4.128
1777578527901,-0.111,0.920,-0.489,0.020,-0.030,0.024,114.870,6.404,1.047,0.043,4,4,3.289
1777578527915,-0.110,0.929,-0.501,0.017,-0.027,0.022,115.010,6.386,1.061,0.039,4,4,3.255
1777578527928,-0.094,0.924,-0.486,0.021,-0.024,0.019,115.117,6.337,1.048,0.037,4,4,3.261
1777578527941,-0.102,0.921,-0.494,0.021,-0.024,0.020,115.238,6.307,1.050,0.038,4,4,3.257
1777578527955,-0.109,0.915,-0.491,0.019,-0.021,0.021,115.353,6.296,1.044,0.036,1,1,3.905
1777578527969,-0.102,0.924,-0.488,0.020,-0.021,0.022,115.447,6.268,1.050,0.036,1,1,3.250
1777578527982,-0.102,0.919,-0.489,0.021,-0.021,0.021,115.543,6.243,1.046,0.036,1,1,3.264
1777578527995,-0.108,0.923,-0.491,0.022,-0.023,0.022,115.634,6.230,1.051,0.039,1,1,3.259
1777578528009,-0.103,0.919,-0.496,0.024,-0.022,0.017,115.734,6.207,1.050,0.037,1,1,3.251
1777578528022,-0.102,0.918,-0.490,0.025,-0.028,0.013,115.820,6.184,1.045,0.039,1,1,3.902
1777578528036,-0.100,0.920,-0.492,0.024,-0.024,0.010,115.903,6.158,1.048,0.036,1,1,3.250
1777578528050,-0.103,0.918,-0.487,0.026,-0.028,0.006,115.975,6.141,1.044,0.038,1,1,3.492
1777578528063,-0.103,0.929,-0.488,0.025,-0.031,0.004,116.037,6.121,1.055,0.040,1,1,3.253
1777578528076,-0.120,0.912,-0.493,0.025,-0.026,0.005,116.120,6.137,1.044,0.036,1,1,3.276
1777578528090,-0.106,0.914,-0.500,0.024,-0.023,0.007,116.209,6.127,1.047,0.034,2,2,3.899
1777578528104,-0.112,0.920,-0.486,0.022,-0.022,0.009,116.265,6.127,1.047,0.033,2,2,3.291
1777578528117,-0.107,0.922,-0.506,0.023,-0.022,0.008,116.351,6.116,1.057,0.033,2,2,3.265
1777578528131,-0.109,0.910,-0.500,0.020,-0.021,0.007,116.433,6.112,1.044,0.030,2,2,3.252
1777578528144,-0.101,0.926,-0.487,0.020,-0.023,-0.001,116.476,6.093,1.051,0.031,2,2,3.276
1777578528157,-0.116,0.912,-0.495,0.019,-0.023,0.000,116.544,6.103,1.044,0.030,4,4,3.882
1777578528171,-0.090,0.920,-0.494,0.022,-0.014,-0.018,116.601,6.064,1.048,0.031,4,4,3.266
1777578528185,-0.065,0.906,-0.497,0.020,-0.025,0.005,116.672,5.982,1.036,0.032,4,4,3.260
1777578528198,-0.135,0.910,-0.507,0.018,-0.014,0.016,116.754,6.029,1.050,0.028,4,4,3.248
1777578528211,-0.092,0.917,-0.492,0.020,-0.014,0.010,116.803,5.997,1.045,0.026,4,4,3.274
1777578528225,-0.102,0.919,-0.489,0.023,-0.020,0.004,116.842,5.983,1.046,0.031,2,2,3.891
1777578528239,-0.104,0.918,-0.498,0.022,-0.027,-0.003,116.895,5.973,1.049,0.035,2,2,3.276
1777578528252,-0.094,0.914,-0.504,0.020,-0.030,-0.007,116.961,5.946,1.048,0.037,2,2,3.364
1777578528266,-0.116,0.912,-0.501,0.018,-0.031,-0.008,117.019,5.960,1.047,0.037,2,2,3.268
1777578528279,-0.102,0.917,-0.506,0.011,-0.027,-0.006,117.080,5.947,1.052,0.030,2,2,3.260
1777578528292,-0.106,0.917,-0.508,0.006,-0.021,-0.002,117.142,5.942,1.053,0.022,2,2,3.893
1777578528308,-0.111,0.925,-0.517,0.002,-0.017,0.005,117.208,5.944,1.065,0.018,2,2,3.339
1777578528322,-0.117,0.922,-0.510,-0.001,-0.010,0.011,117.265,5.956,1.060,0.015,2,2,3.244
1777578528335,-0.110,0.927,-0.507,-0.001,-0.005,0.014,117.310,5.955,1.062,0.015,2,2,3.276
1777578528348,-0.110,0.926,-0.504,-0.003,-0.006,0.014,117.350,5.955,1.060,0.015,2,2,3.248
1777578528362,-0.105,0.917,-0.501,-0.005,-0.007,0.013,117.393,5.948,1.050,0.015,4,4,3.912
1777578528376,-0.122,0.928,-0.501,-0.002,-0.006,0.011,117.425,5.969,1.062,0.013,4,4,3.266
1777578528389,-0.112,0.927,-0.504,-0.003,-0.004,0.016,117.460,5.972,1.061,0.016,4,4,3.247
1777578528404,-0.111,0.919,-0.504,-0.002,-0.001,0.013,117.502,5.975,1.054,0.013,4,4,3.267
1777578528418,-0.112,0.917,-0.509,-0.002,-0.003,0.014,117.550,5.978,1.054,0.014,4,4,3.393
1777578528431,-0.102,0.922,-0.503,-0.004,-0.002,0.016,117.584,5.965,1.055,0.017,2,2,3.974
1777578528446,-0.107,0.925,-0.503,-0.001,-0.001,0.013,117.614,5.960,1.058,0.013,2,2,3.284
1777578528459,-0.102,0.916,-0.503,0.001,-0.002,0.013,117.651,5.948,1.050,0.013,2,2,3.278
1777578528473,-0.111,0.910,-0.503,0.002,0.001,0.015,117.691,5.952,1.045,0.015,2,2,3.263
1777578528486,-0.103,0.913,-0.493,0.002,-0.002,0.013,117.713,5.943,1.043,0.013,2,2,3.268
1777578528502,-0.102,0.925,-0.501,0.003,-0.002,0.012,117.737,5.930,1.057,0.012,2,2,3.954
1777578528516,-0.098,0.914,-0.497,0.002,-0.005,0.006,117.762,5.913,1.045,0.009,2,2,3.263
1777578528529,-0.112,0.925,-0.495,-0.001,-0.002,0.004,117.775,5.919,1.055,0.004,2,2,3.268
1777578528542,-0.102,0.922,-0.503,-0.001,-0.003,0.004,117.801,5.908,1.055,0.005,2,2,3.266
1777578528556,-0.095,0.912,-0.510,-0.008,-0.003,-0.007,117.846,5.885,1.049,0.011,2,2,3.263
1777578528569,-0.109,0.904,-0.501,-0.012,-0.008,-0.010,117.883,5.889,1.039,0.017,2,2,4.223
1777578528583,-0.119,0.907,-0.507,-0.019,-0.002,-0.007,117.924,5.910,1.046,0.020,2,2,3.255
1777578528597,-0.098,0.907,-0.502,-0.024,-0.003,-0.009,117.956,5.894,1.041,0.025,2,2,3.272
1777578528611,-0.116,0.917,-0.502,-0.028,-0.007,-0.011,117.979,5.908,1.051,0.031,2,2,3.782
1777578528624,-0.140,0.924,-0.507,-0.036,0.008,0.009,118.004,5.961,1.063,0.038,2,2,3.270
1777578528637,-0.133,0.932,-0.500,-0.039,0.017,0.030,118.011,5.999,1.066,0.051,2,2,3.931
1777578528652,-0.114,0.927,-0.496,-0.042,0.026,0.039,118.015,6.006,1.057,0.063,2,2,3.270
1777578528665,-0.110,0.924,-0.492,-0.038,0.026,0.040,118.016,6.005,1.052,0.061,2,2,3.261
1777578528678,-0.109,0.922,-0.492,-0.035,0.028,0.040,118.017,6.004,1.051,0.060,2,2,3.258
1777578528692,-0.098,0.917,-0.490,-0.032,0.024,0.037,118.020,5.984,1.044,0.054,2,2,3.334
1777578528705,-0.094,0.915,-0.500,-0.031,0.020,0.030,118.039,5.957,1.047,0.048,2,2,3.925
1777578528719,-0.087,0.916,-0.490,-0.029,0.013,0.018,118.042,5.920,1.042,0.037,2,2,3.277
1777578528733,-0.082,0.915,-0.492,-0.022,0.000,-0.003,118.049,5.876,1.042,0.022,2,2,3.264
1777578528746,-0.086,0.919,-0.483,-0.015,-0.009,-0.017,118.038,5.839,1.041,0.024,2,2,3.265
1777578528763,-0.084,0.919,-0.477,-0.004,-0.017,-0.033,118.018,5.802,1.039,0.037,2,2,7.196
1777578528777,-0.120,0.922,-0.486,0.007,-0.022,-0.029,118.011,5.826,1.049,0.037,2,2,3.946
1777578528794,-0.126,0.937,-0.482,0.021,-0.017,-0.011,117.987,5.857,1.061,0.030,2,2,3.275
1777578528807,-0.132,0.955,-0.481,0.036,-0.014,0.013,117.948,5.893,1.077,0.040,2,2,3.275
1777578528820,-0.107,0.939,-0.491,0.042,-0.013,0.022,117.937,5.890,1.065,0.049,2,2,3.309
1777578528836,-0.125,0.980,-0.478,0.059,-0.008,0.033,117.876,5.909,1.098,0.068,2,2,3.250
1777578528849,-0.102,0.943,-0.489,0.075,-0.009,0.029,117.862,5.895,1.067,0.081,2,2,3.923
1777578528863,-0.104,0.964,-0.486,0.093,-0.005,0.034,117.828,5.884,1.085,0.099,2,2,3.264
1777578528876,-0.104,0.963,-0.512,0.103,-0.005,0.035,117.833,5.871,1.096,0.109,2,2,3.240
1777578528891,-0.055,0.921,-0.514,0.115,-0.016,0.061,117.875,5.781,1.056,0.131,2,2,3.261
1777578528904,0.004,0.951,-0.508,0.148,-0.055,0.147,117.882,5.594,1.078,0.216,2,2,3.245
1777578528917,-0.091,1.131,-0.482,0.175,-0.074,0.128,117.733,5.551,1.233,0.229,3,3,3.961
1777578528935,-0.242,1.200,-0.569,0.286,-0.059,0.107,117.659,5.700,1.350,0.311,3,3,3.269
1777578528948,-0.135,1.121,-0.537,0.523,0.012,0.219,117.595,5.716,1.250,0.567,3,3,3.271
1777578528961,-0.066,1.341,-0.530,0.641,-0.006,0.202,117.407,5.619,1.443,0.672,3,3,3.274
1777578528975,-0.241,1.396,-0.521,0.781,0.047,0.070,117.191,5.731,1.509,0.785,3,3,3.253
1777578528990,-0.142,1.291,-0.562,0.936,0.070,0.106,117.076,5.732,1.415,0.945,4,4,3.961
1777578529004,-0.178,1.325,-0.536,1.099,0.095,0.119,116.918,5.775,1.440,1.109,4,4,3.268
1777578529018,-0.174,1.306,-0.531,1.239,0.111,0.160,116.768,5.814,1.420,1.254,4,4,4.560
1777578529032,-0.203,1.246,-0.541,1.382,0.136,0.197,116.665,5.898,1.373,1.403,4,4,3.273
1777578529045,-0.235,1.192,-0.542,1.495,0.184,0.232,116.596,6.031,1.330,1.524,4,4,3.248
1777578529058,-0.257,1.104,-0.562,1.569,0.226,0.305,116.609,6.208,1.266,1.614,4,4,3.928
1777578529073,-0.286,1.020,-0.615,1.616,0.301,0.342,116.748,6.434,1.225,1.679,4,4,3.256
1777578529089,-0.292,0.844,-0.646,1.578,0.374,0.551,117.080,6.713,1.102,1.712,4,4,6.223
1777578529102,-0.262,0.713,-0.661,1.493,0.430,0.736,117.572,6.974,1.007,1.719,4,4,3.261
1777578529118,-0.218,0.438,-0.630,1.274,0.453,0.694,118.432,7.250,0.798,1.520,4,4,6.094
1777578529132,-0.133,0.247,-0.272,0.758,0.352,0.871,119.035,7.646,0.391,1.207,4,4,3.951
1777578529147,0.098,0.529,-0.010,0.387,-0.171,0.862,118.165,7.079,0.538,0.960,4,4,4.089
1777578529160,0.072,0.473,-0.167,0.222,-0.861,0.609,117.894,6.606,0.506,1.078,4,4,3.267
1777578529173,-0.302,0.296,-0.005,-0.233,-1.207,0.344,117.054,7.818,0.423,1.276,4,4,3.254
1777578529188,-0.539,0.587,-0.004,-0.480,-1.355,0.241,116.225,8.900,0.797,1.457,4,4,3.290
1777578529201,-0.627,0.664,0.003,-0.570,-1.336,0.225,115.399,9.973,0.913,1.469,4,4,3.924
1777578529215,-0.726,0.662,0.031,-0.671,-1.197,0.120,114.526,11.145,0.982,1.377,4,4,3.278
1777578529229,-0.720,0.601,-0.050,-0.777,-1.007,0.035,113.909,12.357,0.939,1.273,4,4,3.270
1777578529242,-0.674,0.664,-0.084,-0.895,-0.803,-0.094,113.390,13.380,0.950,1.206,4,4,3.264
1777578529255,-0.551,0.697,-0.153,-0.993,-0.668,-0.177,113.046,14.137,0.901,1.210,4,4,3.278
1777578529269,-0.421,0.753,-0.196,-1.083,-0.601,-0.208,112.782,14.582,0.884,1.255,4,4,3.946
1777578529283,-0.305,0.801,-0.262,-1.192,-0.604,-0.175,112.638,14.748,0.896,1.347,4,4,3.284
1777578529296,-0.239,0.842,-0.334,-1.323,-0.646,-0.097,112.607,14.748,0.936,1.476,4,4,3.274
1777578529310,-0.193,0.869,-0.399,-1.498,-0.707,-0.052,112.672,14.643,0.975,1.657,4,4,3.272
1777578529323,-0.188,0.954,-0.480,-1.666,-0.771,-0.071,112.798,14.499,1.084,1.837,4,4,3.276
1777578529337,-0.199,1.062,-0.559,-1.780,-0.814,-0.104,112.952,14.340,1.217,1.960,5,5,3.843
1777578529353,-0.209,1.158,-0.645,-1.836,-0.842,-0.110,113.144,14.172,1.342,2.023,5,5,5.784
1777578529366,-0.199,1.259,-0.744,-1.815,-0.835,-0.083,113.376,13.973,1.476,2.000,5,5,3.246
1777578529380,-0.199,1.288,-0.829,-1.741,-0.805,-0.053,113.668,13.769,1.545,1.919,5,5,3.256
1777578529393,-0.158,1.266,-0.882,-1.652,-0.774,-0.054,114.016,13.522,1.551,1.825,5,5,3.253
1777578529406,-0.110,1.281,-0.950,-1.528,-0.746,-0.069,114.407,13.224,1.599,1.702,5,5,3.855
1777578529420,-0.031,1.249,-1.000,-1.357,-0.733,-0.057,114.852,12.847,1.600,1.543,5,5,3.327
1777578529434,0.049,1.177,-1.039,-1.170,-0.741,0.027,115.368,12.392,1.571,1.385,5,5,3.319
1777578529448,0.074,1.101,-1.052,-1.006,-0.760,0.201,115.939,11.919,1.525,1.277,5,5,3.262
1777578529462,0.101,1.042,-1.052,-0.802,-0.800,0.404,116.540,11.427,1.484,1.203,5,5,4.412
1777578529476,0.049,0.990,-1.032,-0.603,-0.837,0.529,117.152,11.011,1.431,1.160,5,5,3.936
1777578529490,-0.027,0.944,-1.030,-0.381,-0.857,0.559,117.786,10.702,1.397,1.092,5,5,3.284
1777578529503,-0.091,0.857,-1.009,-0.180,-0.827,0.497,118.467,10.492,1.327,0.981,5,5,3.259
1777578529516,-0.120,0.785,-1.008,-0.012,-0.751,0.357,119.202,10.332,1.283,0.831,5,5,3.275
1777578529530,-0.103,0.737,-0.989,0.127,-0.644,0.210,119.952,10.159,1.238,0.689,5,5,3.263
1777578529543,-0.044,0.753,-0.963,0.267,-0.532,0.099,120.638,9.907,1.223,0.603,5,5,3.931
1777578529557,0.017,0.789,-0.948,0.379,-0.478,0.387,121.248,9.574,1.234,0.722,5,5,3.271
1777578529570,-0.722,1.144,-0.649,1.527,0.149,0.999,121.196,10.172,1.500,1.830,5,5,3.261
1777578529584,0.095,1.236,-0.123,1.457,0.195,0.862,120.402,9.719,1.245,1.704,5,5,3.258
1777578529597,0.330,1.350,-0.096,1.683,0.037,0.334,119.582,8.990,1.393,1.716,5,5,3.265
1777578529611,0.004,1.158,-0.331,1.815,-0.028,0.102,119.157,8.703,1.204,1.818,1,1,3.965
1777578529625,-0.209,0.993,-0.484,1.754,0.179,0.081,119.058,8.766,1.124,1.765,1,1,3.291
1777578529638,0.329,-0.055,-1.328,1.061,0.095,-0.019,109.823,8.060,1.370,1.066,1,1,3.260
1777578529651,0.026,0.458,-1.023,0.560,0.083,-0.318,111.256,7.768,1.121,0.649,1,1,3.263
1777578529665,-0.158,0.919,-0.533,0.217,-0.108,-0.241,111.531,7.789,1.074,0.342,1,1,3.256
1777578529678,-0.191,1.124,-0.421,0.146,-0.097,-0.186,111.500,7.828,1.215,0.256,1,1,3.936
1777578529692,-0.446,0.822,-0.530,0.134,-0.002,0.096,111.852,8.347,1.075,0.165,1,1,3.278
1777578529705,-0.187,0.879,-0.484,0.081,0.040,0.213,112.069,8.416,1.021,0.231,1,1,3.261
1777578529719,-0.093,0.935,-0.488,0.101,0.053,0.216,112.239,8.310,1.059,0.244,1,1,3.280
1777578529732,-0.069,0.936,-0.517,0.115,0.062,0.164,112.448,8.166,1.072,0.209,1,1,3.264
1777578529745,-0.011,0.940,-0.520,0.106,0.052,0.119,112.650,7.930,1.075,0.168,1,1,3.908
1777578529760,0.035,0.921,-0.511,0.091,0.011,0.040,112.849,7.624,1.054,0.100,1,1,3.275
1777578529773,-0.038,0.884,-0.510,0.071,-0.022,-0.004,113.070,7.453,1.021,0.074,1,1,3.261
1777578529786,-0.036,0.901,-0.502,0.058,-0.055,-0.036,113.258,7.283,1.032,0.088,1,1,3.272
1777578529800,-0.025,0.909,-0.498,0.047,-0.085,-0.081,113.428,7.099,1.037,0.127,1,1,3.305
1777578529814,-0.075,0.927,-0.502,0.043,-0.105,-0.090,113.585,7.005,1.057,0.145,1,1,3.957
1777578529830,-0.127,0.938,-0.518,0.032,-0.078,-0.062,113.751,6.997,1.079,0.105,1,1,3.518
1777578529843,-0.153,0.937,-0.502,0.020,-0.040,-0.020,113.889,7.035,1.074,0.049,1,1,3.247
1777578529857,-0.153,0.945,-0.506,0.012,0.003,0.023,114.022,7.069,1.082,0.026,1,1,3.276
1777578529870,-0.132,0.943,-0.508,0.009,0.034,0.059,114.156,7.067,1.079,0.069,1,1,3.253
1777578529883,-0.112,0.928,-0.498,0.008,0.051,0.076,114.282,7.037,1.059,0.092,1,1,3.865
1777578529898,-0.084,0.937,-0.501,0.016,0.051,0.079,114.403,6.959,1.066,0.095,1,1,3.257
1777578529911,-0.054,0.922,-0.502,0.016,0.043,0.062,114.533,6.833,1.051,0.077,1,1,3.248
1777578529924,-0.063,0.912,-0.509,0.018,0.032,0.044,114.677,6.728,1.046,0.057,1,1,3.266
1777578529938,-0.071,0.911,-0.505,0.017,0.029,0.038,114.811,6.639,1.044,0.050,1,1,3.267
1777578529951,-0.083,0.918,-0.507,0.021,0.028,0.034,114.939,6.574,1.052,0.049,1,1,3.934
1777578529965,-0.095,0.910,-0.499,0.023,0.030,0.038,115.057,6.532,1.043,0.054,1,1,3.279
1777578529978,-0.087,0.906,-0.502,0.023,0.032,0.044,115.180,6.478,1.039,0.059,1,1,3.284
1777578529993,-0.070,0.922,-0.496,0.028,0.028,0.037,115.277,6.396,1.050,0.054,1,1,3.279
1777578530006,-0.054,0.914,-0.497,0.032,0.022,0.023,115.378,6.290,1.042,0.045,1,1,3.266
1777578530020,-0.069,0.913,-0.508,0.030,0.017,0.014,115.494,6.212,1.047,0.037,2,2,3.936
1777578530034,-0.073,0.925,-0.503,0.032,0.008,0.006,115.589,6.141,1.055,0.034,2,2,3.529
1777578530048,-0.065,0.920,-0.510,0.036,-0.001,-0.006,115.695,6.060,1.054,0.036,2,2,3.255
1777578530061,-0.067,0.913,-0.508,0.035,-0.014,-0.015,115.801,5.985,1.046,0.040,2,2,3.263
1777578530074,-0.069,0.911,-0.517,0.034,-0.019,-0.025,115.918,5.916,1.049,0.046,2,2,3.260
1777578530088,-0.073,0.905,-0.504,0.031,-0.022,-0.026,116.018,5.858,1.038,0.046,1,1,3.934
1777578530103,-0.085,0.924,-0.516,0.033,-0.022,-0.023,116.116,5.818,1.062,0.045,1,1,3.272
1777578530116,-0.088,0.914,-0.509,0.035,-0.019,-0.018,116.209,5.787,1.050,0.044,1,1,3.266
1777578530130,-0.089,0.910,-0.520,0.034,-0.020,-0.015,116.319,5.758,1.052,0.043,1,1,3.262
1777578530143,-0.083,0.926,-0.515,0.036,-0.019,-0.009,116.405,5.719,1.063,0.042,1,1,3.275
1777578530156,-0.084,0.920,-0.517,0.038,-0.018,0.000,116.497,5.683,1.059,0.042,2,2,3.922
1777578530173,-0.099,0.924,-0.509,0.053,-0.018,0.011,116.570,5.672,1.060,0.057,2,2,3.281
1777578530186,-0.078,0.921,-0.516,0.057,-0.018,0.013,116.654,5.627,1.058,0.061,2,2,3.260
1777578530199,-0.094,0.919,-0.509,0.066,-0.017,0.021,116.727,5.610,1.055,0.071,2,2,3.265
1777578530213,-0.081,0.934,-0.513,0.070,-0.013,0.040,116.791,5.571,1.069,0.082,2,2,3.270
1777578530226,-0.075,0.938,-0.527,0.081,-0.012,0.049,116.870,5.521,1.078,0.096,4,4,3.936
1777578530242,-0.068,0.965,-0.523,0.101,-0.018,0.077,116.919,5.460,1.099,0.128,4,4,3.275
1777578530255,-0.079,0.998,-0.527,0.129,-0.022,0.124,116.947,5.415,1.132,0.180,4,4,3.253
1777578530269,-0.122,1.044,-0.549,0.179,-0.013,0.165,116.972,5.431,1.186,0.243,4,4,3.493
1777578530282,-0.072,1.071,-0.525,0.284,0.009,0.129,116.946,5.369,1.195,0.312,4,4,3.286
1777578530295,-0.084,1.084,-0.544,0.351,0.026,0.144,116.937,5.326,1.216,0.381,4,4,3.943
1777578530309,-0.145,1.096,-0.562,0.418,0.046,0.218,116.944,5.368,1.240,0.473,4,4,3.291
1777578530323,-0.142,1.144,-0.553,0.510,0.078,0.262,116.907,5.399,1.279,0.579,4,4,3.456
1777578530337,-0.136,1.339,-0.560,0.622,0.114,0.265,116.776,5.398,1.458,0.686,4,4,3.935
1777578530350,-0.074,1.446,-0.592,0.820,0.125,0.205,116.636,5.315,1.564,0.854,4,4,3.264
1777578530364,-0.139,1.507,-0.566,1.040,0.156,0.154,116.447,5.303,1.616,1.063,4,4,3.914
1777578530379,-0.036,1.459,-0.538,1.253,0.140,0.103,116.254,5.179,1.556,1.265,4,4,3.283
1777578530392,0.073,1.585,-0.514,1.502,0.106,0.053,115.996,4.939,1.668,1.507,4,4,3.263
1777578530406,0.046,1.659,-0.495,1.784,0.062,0.014,115.704,4.738,1.732,1.785,4,4,3.830
1777578530420,0.084,1.758,-0.452,2.128,0.030,-0.049,115.352,4.508,1.817,2.129,4,4,3.267
1777578530433,0.087,1.754,-0.421,2.461,-0.010,-0.113,114.983,4.282,1.806,2.463,4,4,3.882
1777578530447,-0.048,1.935,-0.436,2.501,-0.035,-0.188,114.601,4.192,1.984,2.509,4,4,3.274
1777578530460,-0.156,1.982,-0.552,2.501,-0.004,-0.269,114.320,4.196,2.064,2.516,4,4,3.250
1777578530478,-0.313,2.141,-0.733,2.501,0.185,-0.331,114.151,4.311,2.285,2.530,4,4,7.427
1777578530492,-0.001,1.586,-0.815,2.501,0.226,0.025,114.246,4.178,1.784,2.512,4,4,3.628
1777578530505,-0.366,1.759,-0.893,2.501,0.315,-0.087,114.329,4.375,2.006,2.523,4,4,3.989
1777578530519,-0.060,2.198,-0.396,2.501,0.327,0.089,113.890,4.286,2.234,2.524,4,4,3.284
1777578530533,0.060,0.545,0.313,2.501,0.322,0.034,112.215,3.983,0.631,2.522,4,4,3.250
1777578530546,0.222,-1.903,1.296,2.314,0.062,-0.031,106.987,3.688,2.313,2.315,4,4,3.701
1777578530560,-0.056,0.804,-0.651,1.784,0.028,-0.224,107.671,3.670,1.036,1.798,4,4,3.260
1777578530573,-0.035,-0.146,0.131,0.949,0.117,-0.491,102.823,3.872,0.199,1.075,4,4,3.890
1777578530587,-0.087,0.437,-0.133,0.299,0.151,-0.772,102.952,4.085,0.465,0.842,4,4,3.275
1777578530600,-0.035,0.316,-0.008,-0.135,0.196,-0.885,102.594,4.154,0.318,0.916,4,4,3.251
1777578530617,0.052,0.346,-0.002,-0.581,0.186,-0.844,102.212,3.758,0.350,1.041,4,4,6.871
1777578530631,0.142,0.261,0.019,-0.932,0.146,-0.717,101.706,2.753,0.298,1.186,4,4,3.268
1777578530644,0.167,0.175,0.003,-1.327,0.084,-0.584,101.309,1.306,0.242,1.452,4,4,4.014
1777578530662,0.132,0.140,-0.016,-1.904,0.007,-0.493,101.164,-0.074,0.193,1.967,4,4,3.262
1777578530675,0.096,0.227,-0.024,-2.306,-0.036,-0.465,101.004,-0.783,0.248,2.352,4,4,3.256
1777578530691,0.091,0.425,-0.098,-2.501,-0.073,-0.420,101.064,-1.126,0.445,2.538,4,4,5.507
1777578530704,0.089,0.629,-0.204,-2.501,-0.103,-0.346,101.278,-1.330,0.667,2.527,4,4,3.249
1777578530717,0.068,0.672,-0.443,-2.501,-0.129,-0.232,101.968,-1.439,0.808,2.515,4,4,3.900
1777578530731,0.102,0.802,-0.397,-2.501,-0.161,-0.160,102.416,-1.596,0.901,2.512,4,4,3.266
1777578530745,0.092,0.812,-0.492,-2.501,-0.215,-0.161,103.001,-1.719,0.955,2.516,4,4,3.420
1777578530760,0.143,0.925,-0.580,-2.501,-0.300,-0.200,103.596,-1.899,1.101,2.527,4,4,5.145
1777578530773,0.155,1.017,-0.715,-2.501,-0.413,-0.200,104.266,-2.061,1.252,2.543,4,4,3.249
1777578530787,0.096,1.119,-0.825,-2.501,-0.473,-0.170,104.955,-2.120,1.394,2.551,5,5,3.885
1777578530801,0.029,1.252,-0.947,-2.501,-0.471,-0.196,105.644,-2.087,1.570,2.553,5,5,3.268
1777578530814,-0.049,1.291,-1.086,-2.501,-0.408,-0.325,106.405,-1.971,1.688,2.555,5,5,3.253
1777578530828,-0.059,1.304,-1.208,-2.501,-0.293,-0.432,107.227,-1.851,1.778,2.555,5,5,3.995
1777578530842,-0.022,1.281,-1.332,-2.501,-0.142,-0.368,108.126,-1.771,1.848,2.532,5,5,3.305
1777578530855,0.046,1.273,-1.443,-2.501,-0.009,-0.149,109.074,-1.759,1.925,2.506,5,5,4.008
1777578530870,0.053,1.272,-1.568,-2.501,0.103,0.176,110.066,-1.751,2.020,2.510,5,5,3.278
1777578530883,-0.047,1.277,-1.704,-2.327,0.193,0.407,111.095,-1.657,2.130,2.371,5,5,3.258
1777578530896,-0.200,1.213,-1.806,-2.064,0.278,0.493,112.185,-1.442,2.185,2.140,5,5,3.256
1777578530910,-0.349,1.088,-1.886,-1.790,0.380,0.399,113.363,-1.114,2.206,1.873,5,5,3.250
1777578530923,-0.435,0.995,-1.969,-1.489,0.465,0.119,114.603,-0.732,2.249,1.564,1,1,3.891
1777578530937,-0.432,0.827,-2.015,-1.148,0.552,-0.320,115.943,-0.360,2.220,1.314,1,1,3.259
1777578530950,-0.194,0.695,-2.015,-0.823,0.579,-0.738,117.345,-0.187,2.140,1.248,1,1,3.257
1777578530964,0.174,0.629,-1.998,-0.475,0.488,-0.860,118.751,-0.329,2.101,1.097,1,1,3.250
1777578530977,0.388,0.603,-1.973,-0.102,0.318,-0.517,120.129,-0.650,2.099,0.616,1,1,3.261
1777578530990,0.481,0.634,-1.911,0.284,0.079,0.037,121.421,-1.048,2.070,0.297,1,1,3.839
1777578531004,0.370,0.629,-1.737,0.647,-0.196,0.355,122.625,-1.368,1.884,0.764,1,1,3.258
1777578531018,0.758,-1.719,-1.205,1.557,0.082,0.353,114.917,-1.943,2.232,1.599,1,1,3.336
1777578531031,0.689,1.269,-0.338,1.891,-0.243,0.273,114.606,-2.744,1.483,1.926,1,1,3.268
1777578531045,0.320,1.718,-0.074,2.410,-0.077,0.107,113.916,-2.987,1.749,2.413,1,1,3.257
1777578531058,-0.020,0.865,-0.628,2.313,0.139,0.024,114.292,-2.862,1.069,2.317,1,1,3.897
1777578531072,0.229,0.412,-0.932,1.193,-0.072,-0.137,115.595,-3.166,1.045,1.203,1,1,3.255
1777578531085,0.028,-0.131,-0.958,0.399,-0.183,-0.349,106.637,-3.118,0.967,0.561,1,1,3.261
1777578531099,-0.562,0.759,-0.716,0.247,-0.065,-0.050,107.468,-2.139,1.185,0.260,1,1,3.246
1777578531112,-0.265,0.971,-0.495,0.279,-0.071,0.034,107.765,-1.647,1.122,0.289,1,1,3.265
1777578531125,-0.215,0.710,-0.619,0.146,0.023,0.151,108.491,-1.196,0.966,0.212,1,1,3.886
1777578531139,-0.114,0.910,-0.490,0.103,0.067,0.149,108.797,-0.963,1.040,0.194,1,1,3.259
1777578531154,-0.052,0.927,-0.497,0.089,0.071,0.134,109.090,-0.845,1.053,0.175,1,1,4.791
1777578531168,-0.011,0.952,-0.501,0.090,0.043,0.077,109.359,-0.800,1.076,0.126,1,1,3.255
1777578531181,-0.027,0.931,-0.512,0.088,0.011,0.024,109.653,-0.731,1.063,0.092,1,1,3.264
1777578531194,-0.043,0.908,-0.510,0.079,-0.019,-0.006,109.953,-0.634,1.042,0.082,1,1,3.895
1777578531208,-0.058,0.914,-0.522,0.070,-0.035,-0.031,110.258,-0.516,1.054,0.084,1,1,3.259
1777578531223,-0.050,0.916,-0.511,0.056,-0.052,-0.062,110.535,-0.414,1.050,0.098,1,1,4.620
1777578531236,-0.147,0.924,-0.520,0.049,-0.036,-0.035,110.810,-0.156,1.070,0.070,1,1,3.258
1777578531250,-0.169,0.934,-0.525,0.035,-0.000,0.018,111.077,0.128,1.085,0.039,1,1,3.261
1777578531263,-0.133,0.945,-0.518,0.032,0.026,0.056,111.316,0.343,1.086,0.070,1,1,3.917
1777578531277,-0.104,0.938,-0.515,0.030,0.035,0.077,111.548,0.506,1.075,0.090,1,1,3.256
1777578531291,-0.097,0.925,-0.518,0.035,0.047,0.080,111.787,0.653,1.064,0.099,1,1,4.054
1777578531305,-0.072,0.917,-0.509,0.033,0.047,0.074,112.013,0.755,1.051,0.094,1,1,3.265
1777578531318,-0.053,0.898,-0.533,0.031,0.044,0.055,112.282,0.822,1.046,0.076,1,1,3.250
1777578531333,-0.052,0.909,-0.505,0.036,0.036,0.042,112.493,0.885,1.041,0.066,1,1,5.135
1777578531347,-0.072,0.930,-0.505,0.037,0.033,0.030,112.681,0.978,1.061,0.058,1,1,3.253
1777578531360,-0.034,0.910,-0.513,0.042,0.022,0.021,112.890,1.007,1.046,0.051,1,1,3.372
1777578531374,-0.047,0.889,-0.519,0.034,0.015,0.005,113.120,1.056,1.031,0.038,1,1,3.375
1777578531387,-0.066,0.910,-0.515,0.034,0.007,-0.004,113.318,1.136,1.047,0.035,1,1,3.295
1777578531401,-0.063,0.910,-0.515,0.033,0.001,-0.009,113.512,1.208,1.048,0.035,1,1,4.430
1777578531415,-0.073,0.885,-0.524,0.030,-0.008,-0.001,113.734,1.298,1.031,0.031,1,1,3.263
1777578531431,-0.102,0.902,-0.536,0.042,-0.011,0.010,113.952,1.430,1.054,0.045,1,1,6.254
1777578531445,-0.113,0.914,-0.529,0.042,-0.012,0.018,114.142,1.575,1.062,0.047,1,1,3.255
1777578531458,-0.058,0.937,-0.506,0.048,-0.018,0.030,114.273,1.623,1.066,0.059,1,1,3.250
1777578531472,-0.067,0.920,-0.531,0.045,-0.025,0.038,114.451,1.686,1.064,0.064,2,2,4.623
1777578531486,-0.070,0.940,-0.515,0.066,-0.033,0.058,114.584,1.749,1.074,0.094,2,2,3.253
1777578531500,-0.102,0.954,-0.541,0.085,-0.033,0.070,114.739,1.859,1.101,0.115,2,2,3.254
1777578531513,-0.114,0.934,-0.531,0.117,-0.019,0.083,114.892,1.990,1.080,0.145,2,2,3.267
1777578531527,-0.096,0.922,-0.545,0.135,-0.009,0.079,115.070,2.088,1.075,0.157,2,2,3.949
1777578531542,-0.100,0.941,-0.541,0.151,0.002,0.082,115.220,2.187,1.090,0.171,4,4,3.985
1777578531556,-0.075,0.963,-0.539,0.173,0.008,0.080,115.344,2.239,1.106,0.191,4,4,3.305
1777578531569,-0.069,0.954,-0.539,0.194,0.011,0.079,115.472,2.282,1.098,0.210,4,4,3.257
1777578531583,-0.074,0.954,-0.537,0.211,0.011,0.088,115.593,2.332,1.097,0.229,4,4,3.267
1777578531596,-0.094,0.957,-0.563,0.231,0.029,0.108,115.746,2.410,1.114,0.257,4,4,3.272
1777578531609,-0.106,1.042,-0.552,0.271,0.045,0.149,115.814,2.495,1.184,0.313,4,4,3.922
1777578531626,-0.100,1.080,-0.562,0.341,0.057,0.189,115.866,2.564,1.221,0.394,4,4,3.273
1777578531639,-0.089,1.148,-0.565,0.430,0.072,0.193,115.877,2.608,1.282,0.477,4,4,3.284
1777578531653,-0.106,1.198,-0.575,0.544,0.099,0.212,115.869,2.669,1.334,0.592,4,4,4.007
1777578531667,-0.088,1.204,-0.594,0.659,0.114,0.175,115.881,2.703,1.346,0.692,4,4,3.261
1777578531680,-0.119,1.310,-0.577,0.800,0.129,0.137,115.816,2.767,1.436,0.822,4,4,3.878
1777578531695,-0.070,1.189,-0.573,0.935,0.130,0.142,115.814,2.774,1.322,0.954,4,4,4.512
1777578531708,-0.070,1.314,-0.573,1.074,0.143,0.147,115.743,2.774,1.435,1.093,4,4,3.252
1777578531722,-0.041,1.291,-0.572,1.239,0.129,0.148,115.685,2.739,1.413,1.254,4,4,3.252
1777578531736,-0.056,1.344,-0.594,1.424,0.120,0.145,115.628,2.722,1.470,1.436,4,4,3.272
1777578531750,0.043,1.463,-0.551,1.650,0.118,0.094,115.473,2.588,1.564,1.656,4,4,3.876
1777578531764,0.252,1.570,-0.526,1.936,0.069,0.001,115.257,2.237,1.675,1.937,4,4,3.492
1777578531777,0.155,1.629,-0.512,2.256,0.043,-0.095,115.014,2.006,1.715,2.258,4,4,3.263
1777578531791,0.104,1.860,-0.551,2.501,-0.006,-0.153,114.749,1.848,1.942,2.506,4,4,3.251
1777578531807,-0.075,2.083,-0.639,2.501,-0.022,-0.294,114.509,1.851,2.180,2.519,4,4,5.968
1777578531820,0.028,2.043,-0.709,2.501,0.016,-0.395,114.342,1.770,2.163,2.532,4,4,3.882
1777578531834,-0.050,1.794,-0.833,2.501,0.078,-0.293,114.360,1.760,1.978,2.520,4,4,3.257
1777578531847,0.056,1.847,-0.981,2.501,0.024,-0.196,114.472,1.658,2.092,2.509,4,4,3.268
1777578531861,-0.045,1.882,-0.938,2.501,0.066,-0.038,114.535,1.644,2.104,2.502,4,4,3.291
1777578531874,0.166,1.729,-0.587,2.501,0.007,0.531,114.355,1.431,1.834,2.557,4,4,3.247
1777578531887,0.008,2.149,-0.025,2.501,-0.038,1.006,113.618,1.380,2.149,2.696,4,4,3.891
1777578531901,0.808,-0.842,1.440,2.501,-0.225,0.729,109.138,0.532,1.853,2.615,4,4,3.270
1777578531916,-0.015,-0.549,-0.448,1.662,-0.279,0.619,101.719,0.553,0.708,1.796,4,4,3.270
1777578531930,-0.231,-0.184,-0.394,0.780,-0.132,0.067,93.730,1.407,0.492,0.794,4,4,3.257
1777578531943,-0.341,-0.046,-0.139,-0.070,0.047,-0.430,85.777,3.439,0.371,0.438,4,4,3.274
1777578531956,-0.408,0.325,-0.197,-0.561,0.288,-0.658,86.878,4.797,0.558,0.911,4,4,3.861
1777578531970,-0.194,0.337,-0.099,-0.886,0.416,-0.840,87.486,5.549,0.401,1.289,4,4,3.251
1777578531986,-0.022,0.260,-0.070,-1.179,0.420,-0.914,88.031,5.520,0.270,1.550,4,4,5.189
1777578531999,0.053,0.199,-0.088,-1.497,0.317,-0.748,88.832,4.920,0.224,1.703,4,4,3.248
1777578532012,0.082,0.150,-0.110,-1.819,0.197,-0.495,90.000,4.024,0.204,1.896,4,4,3.249
1777578532026,0.122,0.167,-0.150,-2.146,0.045,-0.316,91.303,3.013,0.256,2.170,4,4,3.856
1777578532040,0.140,0.260,-0.216,-2.433,-0.130,-0.226,92.497,2.217,0.366,2.447,4,4,3.244
1777578532053,0.113,0.377,-0.294,-2.501,-0.281,-0.169,93.600,1.736,0.492,2.523,4,4,3.261
1777578532067,0.047,0.460,-0.378,-2.501,-0.395,-0.106,94.713,1.542,0.597,2.535,4,4,4.250
1777578532081,0.001,0.591,-0.484,-2.501,-0.462,-0.077,95.790,1.492,0.764,2.545,4,4,3.255
1777578532094,-0.043,0.673,-0.574,-2.501,-0.507,-0.104,96.869,1.534,0.886,2.554,5,5,3.995
1777578532109,-0.065,0.723,-0.677,-2.501,-0.535,-0.174,97.996,1.603,0.993,2.564,5,5,3.256
1777578532122,-0.087,0.802,-0.747,-2.501,-0.543,-0.250,99.085,1.694,1.099,2.572,5,5,3.709
1777578532137,-0.107,0.848,-0.852,-2.501,-0.534,-0.326,100.207,1.799,1.207,2.578,5,5,3.273
1777578532150,-0.132,0.911,-0.944,-2.501,-0.493,-0.422,101.321,1.923,1.319,2.584,5,5,3.245
1777578532163,-0.129,0.952,-1.005,-2.501,-0.434,-0.593,102.418,2.028,1.390,2.607,5,5,3.887
1777578532177,-0.159,0.962,-1.071,-2.501,-0.317,-0.700,103.527,2.162,1.449,2.617,5,5,3.259
1777578532191,-0.135,1.009,-1.143,-2.501,-0.166,-0.675,104.617,2.252,1.531,2.596,5,5,3.248
1777578532204,-0.062,1.019,-1.182,-2.501,0.007,-0.497,105.695,2.253,1.562,2.550,5,5,3.435
1777578532218,0.053,1.056,-1.229,-2.501,0.145,-0.213,106.743,2.125,1.622,2.515,5,5,3.909
1777578532232,0.165,1.094,-1.300,-2.501,0.204,0.059,107.775,1.886,1.707,2.510,5,5,3.890
1777578532247,0.196,1.179,-1.384,-2.501,0.161,0.281,108.764,1.635,1.829,2.522,5,5,3.271
1777578532260,0.121,1.224,-1.426,-2.501,0.069,0.394,109.717,1.470,1.883,2.533,5,5,3.248
1777578532273,-0.045,1.206,-1.489,-2.294,-0.010,0.549,110.690,1.466,1.917,2.359,5,5,3.261
1777578532287,-0.185,1.166,-1.564,-2.055,-0.063,0.708,111.705,1.588,1.959,2.175,5,5,3.257
1777578532300,-0.279,1.052,-1.641,-1.831,-0.092,0.690,112.814,1.792,1.968,1.959,5,5,3.968
1777578532315,-0.318,0.910,-1.721,-1.591,-0.106,0.424,114.038,2.025,1.973,1.650,5,5,3.953
1777578532329,-0.225,0.792,-1.772,-1.300,-0.118,0.163,115.342,2.168,1.954,1.316,5,5,4.327
1777578532343,-0.004,0.719,-1.865,-0.966,-0.173,0.093,116.699,2.105,1.999,0.986,5,5,3.256
1777578532360,0.072,0.664,-1.916,-0.450,-0.242,0.225,118.074,1.976,2.029,0.558,5,5,7.250
1777578532374,-0.167,0.595,-1.859,-0.064,-0.208,0.354,119.450,2.067,1.959,0.416,5,5,3.906
1777578532388,-0.376,0.643,-1.757,0.325,-0.112,0.247,120.708,2.356,1.908,0.423,5,5,3.255
1777578532401,-0.366,4.000,-2.798,0.656,-0.074,-1.780,120.841,2.417,4.895,1.898,5,5,3.281
1777578532414,-0.295,2.012,0.854,1.941,0.107,-0.397,119.165,2.581,2.206,1.984,5,5,3.274
1777578532430,-0.068,1.158,-0.096,2.482,0.184,-0.558,118.405,2.605,1.164,2.551,5,5,3.284
1777578532443,-0.188,0.888,-0.399,2.393,0.210,-0.482,118.274,2.865,0.992,2.450,1,1,3.952
1777578532458,-0.354,0.813,-0.637,2.054,0.271,-0.151,118.579,3.364,1.092,2.077,1,1,4.539
1777578532472,0.014,0.743,-0.729,1.714,0.147,-0.081,119.073,3.236,1.041,1.723,1,1,3.271
1777578532485,0.061,0.484,-0.983,1.092,0.087,-0.084,120.154,3.036,1.097,1.098,1,1,3.390
1777578532499,-0.069,0.883,-0.577,0.800,0.034,-0.153,120.249,3.057,1.057,0.815,1,1,3.279
1777578532512,0.353,-0.445,-1.090,0.224,-0.055,-0.137,111.594,2.443,1.229,0.268,1,1,3.869
1777578532526,-0.190,0.610,-0.715,0.154,-0.009,-0.016,112.463,2.723,0.959,0.155,1,1,3.264
1777578532540,-0.100,0.876,-0.531,0.152,-0.037,-0.031,112.737,2.813,1.029,0.160,1,1,3.290
1777578532554,-0.139,0.799,-0.570,0.096,-0.023,0.004,113.134,2.975,0.991,0.099,1,1,3.262
1777578532567,-0.080,0.946,-0.500,0.071,-0.036,-0.023,113.281,3.016,1.073,0.083,1,1,3.254
1777578532580,-0.063,0.923,-0.520,0.072,-0.046,-0.043,113.472,3.029,1.061,0.096,1,1,3.932
1777578532594,-0.118,0.974,-0.505,0.078,-0.058,-0.053,113.595,3.126,1.104,0.111,1,1,3.261
1777578532611,-0.084,0.930,-0.527,0.091,-0.089,-0.083,113.780,3.169,1.072,0.152,1,1,6.664
1777578532625,-0.140,0.922,-0.503,0.088,-0.088,-0.074,113.930,3.307,1.060,0.145,1,1,3.266
1777578532638,-0.163,0.906,-0.523,0.073,-0.069,-0.052,114.118,3.479,1.059,0.113,1,1,3.247
1777578532651,-0.176,0.918,-0.530,0.055,-0.047,-0.024,114.302,3.664,1.075,0.076,1,1,3.966
1777578532665,-0.208,0.926,-0.544,0.033,0.003,0.030,114.493,3.891,1.094,0.045,1,1,3.273
1777578532679,-0.189,0.926,-0.525,0.016,0.038,0.081,114.651,4.083,1.081,0.091,1,1,3.599
1777578532695,-0.155,0.912,-0.521,0.003,0.058,0.108,114.808,4.217,1.062,0.123,1,1,5.834
1777578532708,-0.112,0.910,-0.522,0.007,0.060,0.108,114.965,4.275,1.055,0.124,1,1,3.250
1777578532722,-0.094,0.916,-0.513,0.015,0.051,0.093,115.098,4.302,1.054,0.107,1,1,3.906
1777578532736,-0.100,0.923,-0.509,0.018,0.042,0.080,115.215,4.337,1.059,0.092,1,1,3.560
1777578532750,-0.082,0.924,-0.512,0.025,0.028,0.064,115.333,4.340,1.059,0.074,1,1,3.261
1777578532763,-0.090,0.917,-0.511,0.034,0.016,0.046,115.450,4.358,1.054,0.059,1,1,3.273
1777578532776,-0.092,0.924,-0.509,0.045,0.008,0.026,115.556,4.378,1.058,0.052,1,1,3.270
1777578532790,-0.111,0.914,-0.515,0.051,0.005,0.019,115.676,4.430,1.055,0.055,1,1,3.946
1777578532804,-0.121,0.902,-0.516,0.057,0.006,0.018,115.803,4.498,1.046,0.060,1,1,3.275
1777578532817,-0.123,0.902,-0.531,0.059,0.002,0.021,115.949,4.567,1.054,0.063,1,1,3.275
1777578532831,-0.116,0.881,-0.539,0.056,0.004,0.020,116.120,4.624,1.039,0.060,1,1,3.265
1777578532846,-0.094,0.917,-0.530,0.064,-0.000,0.012,116.242,4.637,1.063,0.065,1,1,5.598
1777578532860,-0.096,0.902,-0.524,0.070,-0.012,0.001,116.364,4.657,1.048,0.072,1,1,3.905
1777578532874,-0.094,0.905,-0.531,0.068,-0.012,-0.001,116.489,4.672,1.053,0.070,1,1,3.258
1777578532888,-0.097,0.926,-0.521,0.078,-0.014,-0.008,116.578,4.688,1.067,0.080,1,1,3.266
1777578532901,-0.105,0.920,-0.530,0.090,-0.015,-0.003,116.683,4.719,1.066,0.091,1,1,3.248
1777578532915,-0.109,0.952,-0.532,0.106,-0.015,-0.023,116.761,4.749,1.096,0.110,1,1,3.254
1777578532928,-0.123,0.912,-0.531,0.114,-0.010,-0.007,116.869,4.808,1.062,0.114,1,1,3.996
1777578532944,-0.148,0.926,-0.533,0.103,0.003,0.018,116.964,4.904,1.079,0.105,1,1,3.304
1777578532958,-0.168,0.934,-0.556,0.096,0.017,0.048,117.083,5.026,1.100,0.109,1,1,3.342
1777578532971,-0.165,0.953,-0.555,0.107,0.035,0.082,117.180,5.134,1.115,0.139,1,1,3.254
1777578532986,-0.231,1.066,-0.567,0.167,0.065,0.159,117.206,5.311,1.229,0.239,1,1,5.127
1777578533000,-0.174,1.041,-0.547,0.337,0.122,0.254,117.222,5.407,1.189,0.439,4,4,3.903
1777578533014,-0.138,1.136,-0.554,0.387,0.122,0.291,117.184,5.432,1.272,0.499,4,4,3.253
1777578533027,-0.102,1.208,-0.584,0.502,0.145,0.323,117.141,5.399,1.346,0.614,4,4,3.263
1777578533040,-0.104,1.360,-0.549,0.661,0.145,0.279,116.980,5.357,1.470,0.732,4,4,3.258
1777578533054,-0.045,1.497,-0.563,0.842,0.145,0.165,116.782,5.241,1.600,0.870,4,4,3.261
1777578533067,-0.116,1.500,-0.559,1.073,0.158,0.094,116.585,5.207,1.605,1.088,4,4,3.898
1777578533081,-0.028,1.529,-0.545,1.298,0.159,0.037,116.369,5.076,1.624,1.309,4,4,3.344
1777578533095,0.012,1.624,-0.489,1.565,0.107,-0.026,116.070,4.905,1.696,1.569,4,4,3.263
1777578533108,-0.039,1.645,-0.486,1.831,0.073,-0.065,115.771,4.792,1.716,1.833,4,4,3.312
1777578533121,0.055,1.820,-0.446,2.161,0.017,-0.070,115.397,4.591,1.875,2.162,4,4,3.276
1777578533135,0.005,1.936,-0.413,2.501,-0.029,-0.122,114.982,4.444,1.979,2.504,4,4,3.876
1777578533149,0.034,2.125,-0.392,2.501,-0.080,-0.257,114.530,4.277,2.162,2.516,4,4,3.452
1777578533162,0.141,2.174,-0.454,2.501,-0.146,-0.389,114.134,4.031,2.225,2.536,4,4,3.262
1777578533176,0.079,2.317,-0.624,2.501,-0.139,-0.465,113.852,3.847,2.401,2.548,4,4,3.265
1777578533189,0.123,2.043,-0.777,2.501,-0.134,-0.531,113.757,3.627,2.190,2.561,4,4,3.272
1777578533203,-0.012,1.810,-0.771,2.501,-0.099,-0.713,113.736,3.525,1.967,2.603,4,4,3.881
1777578533217,0.315,1.631,-0.531,2.501,-0.174,-0.271,113.558,3.091,1.744,2.522,4,4,3.256
1777578533230,0.307,1.341,-0.050,2.501,-0.283,-0.016,112.891,2.593,1.377,2.517,4,4,3.284
1777578533243,0.266,1.891,0.565,2.501,-0.436,0.107,111.661,2.273,1.991,2.541,4,4,3.255
1777578533257,0.062,1.469,0.531,2.501,-0.399,-0.169,110.368,2.132,1.563,2.539,4,4,3.254
1777578533270,0.056,-0.967,-0.132,2.501,-0.356,-0.301,103.890,1.964,0.978,2.544,4,4,3.898
1777578533284,-0.184,-0.460,-0.114,2.424,-0.170,-0.391,97.423,2.562,0.509,2.461,4,4,3.258
1777578533297,-0.268,-1.473,-0.024,0.977,0.140,-0.527,91.561,2.803,1.497,1.118,4,4,3.261
1777578533311,-0.307,-1.190,0.140,-0.630,0.457,-0.397,86.119,3.162,1.237,0.874,4,4,3.269
1777578533324,-0.153,-0.663,0.198,-1.901,0.723,-0.148,81.155,3.453,0.709,2.039,4,4,3.249
1777578533338,0.016,-0.032,0.239,-2.501,0.838,-0.008,78.392,3.230,0.242,2.638,4,4,3.929
1777578533352,0.056,0.234,0.307,-2.501,0.877,0.065,77.116,2.871,0.390,2.651,4,4,3.267
1777578533365,0.035,0.177,0.224,-2.501,0.871,0.211,75.910,2.561,0.287,2.657,4,4,3.260
1777578533378,0.074,0.369,0.138,-2.501,0.804,0.304,75.710,2.150,0.401,2.645,4,4,3.278
1777578533392,0.098,0.501,0.058,-2.501,0.694,0.275,75.949,1.741,0.514,2.610,4,4,3.260
1777578533405,0.284,0.784,-0.086,-2.501,0.486,0.123,76.582,1.070,0.839,2.551,4,4,3.878
1777578533419,0.210,1.028,-0.255,-2.501,0.223,0.222,77.433,0.688,1.079,2.521,4,4,3.266
1777578533432,0.206,0.927,-0.385,-2.501,-0.032,0.369,78.526,0.305,1.025,2.529,4,4,3.255
1777578533446,0.166,0.861,-0.480,-2.501,-0.277,0.345,79.789,-0.003,1.000,2.540,4,4,3.269
1777578533459,0.048,0.951,-0.605,-2.501,-0.479,0.265,81.118,-0.079,1.128,2.561,4,4,3.280
1777578533473,-0.079,1.050,-0.731,-2.501,-0.607,0.153,82.479,0.034,1.282,2.578,5,5,3.889
1777578533487,-0.176,1.261,-0.881,-2.501,-0.643,0.012,83.800,0.235,1.548,2.583,5,5,3.275
1777578533500,-0.289,1.447,-1.048,-2.501,-0.591,-0.098,85.111,0.514,1.810,2.572,5,5,3.275
1777578533513,-0.354,1.465,-1.132,-2.501,-0.461,-0.259,86.436,0.835,1.885,2.557,5,5,3.290
1777578533527,-0.374,1.435,-1.211,-2.501,-0.269,-0.549,87.797,1.159,1.915,2.575,5,5,3.253
1777578533540,-0.299,1.356,-1.295,-2.501,-0.060,-0.731,89.225,1.405,1.899,2.607,5,5,3.902
1777578533554,-0.149,1.257,-1.353,-2.501,0.109,-0.543,90.715,1.505,1.853,2.562,5,5,3.248
1777578533567,0.003,1.283,-1.422,-2.501,0.186,-0.078,92.185,1.455,1.915,2.509,5,5,3.267
1777578533581,0.121,1.312,-1.503,-2.501,0.182,0.289,93.639,1.302,1.999,2.525,5,5,3.250
1777578533594,0.071,1.274,-1.574,-2.360,0.109,0.468,95.114,1.199,2.026,2.409,5,5,3.255
1777578533608,-0.110,1.251,-1.637,-2.071,0.025,0.489,96.593,1.256,2.063,2.128,1,1,3.905
1777578533622,-0.377,1.114,-1.724,-1.720,-0.037,0.386,98.166,1.541,2.087,1.763,1,1,3.264
1777578533635,-0.508,0.908,-1.784,-1.421,-0.093,0.083,99.874,1.936,2.066,1.427,1,1,3.415
1777578533648,-0.481,0.777,-1.781,-1.139,-0.158,-0.335,101.634,2.309,2.002,1.198,1,1,3.269
1777578533662,-0.407,0.670,-1.858,-0.828,-0.206,-0.469,103.456,2.599,2.017,0.974,1,1,3.297
1777578533675,-0.122,0.615,-1.937,-0.471,-0.303,-0.332,105.291,2.625,2.036,0.651,1,1,3.885
1777578533689,-0.090,0.684,-1.957,-0.022,-0.386,-0.051,107.017,2.621,2.075,0.390,1,1,3.325
1777578533703,0.175,4.000,-1.223,2.501,-0.630,-0.199,107.017,2.464,4.186,2.587,1,1,3.266
1777578533716,-0.641,1.064,-0.172,2.168,-0.098,0.056,106.772,3.345,1.254,2.171,1,1,3.253
1777578533730,0.130,1.291,0.123,2.401,-0.181,-0.042,106.080,3.063,1.303,2.408,1,1,3.268
1777578533743,0.091,0.950,-0.603,2.361,-0.107,-0.231,106.588,2.823,1.129,2.375,1,1,3.884
1777578533757,-0.259,0.896,-0.634,2.004,0.267,-0.134,107.169,3.148,1.128,2.026,1,1,3.246
1777578533770,0.043,0.732,-0.989,1.642,0.204,-0.165,108.300,2.989,1.231,1.663,1,1,3.249
1777578533783,0.171,0.558,-0.906,0.853,-0.005,-0.236,109.548,2.612,1.078,0.885,1,1,3.247
1777578533797,-0.214,0.844,-0.585,0.594,0.076,-0.221,110.021,2.896,1.049,0.638,1,1,3.257
1777578533810,-0.131,1.031,-0.323,0.345,-0.134,-0.143,109.939,3.022,1.088,0.397,1,1,3.940
1777578533824,-0.131,0.629,-0.616,0.224,-0.078,-0.057,110.701,3.191,0.890,0.244,1,1,3.255
1777578533838,-0.044,0.791,-0.574,0.135,-0.063,-0.077,111.176,3.173,0.978,0.167,1,1,3.347
1777578533851,-0.149,0.895,-0.515,0.112,-0.038,-0.045,111.447,3.330,1.043,0.127,1,1,3.260
1777578533864,-0.131,0.893,-0.531,0.077,-0.034,-0.026,111.736,3.450,1.047,0.088,1,1,3.267
1777578533878,-0.123,0.974,-0.500,0.078,-0.021,0.004,111.905,3.542,1.102,0.081,1,1,3.921
1777578533892,-0.062,0.957,-0.512,0.089,-0.046,-0.028,112.100,3.534,1.087,0.105,1,1,3.262
1777578533905,-0.108,0.928,-0.514,0.084,-0.050,-0.040,112.315,3.605,1.066,0.106,1,1,3.252
1777578533919,-0.095,0.920,-0.524,0.077,-0.054,-0.049,112.544,3.652,1.063,0.106,1,1,3.259
1777578533932,-0.109,0.939,-0.526,0.068,-0.048,-0.040,112.752,3.718,1.082,0.092,1,1,3.258
1777578533945,-0.162,0.947,-0.523,0.067,-0.030,-0.014,112.944,3.867,1.094,0.075,1,1,3.882
1777578533959,-0.175,0.938,-0.531,0.052,0.002,0.033,113.148,4.033,1.092,0.062,1,1,3.265
1777578533973,-0.168,0.937,-0.518,0.041,0.026,0.079,113.329,4.185,1.084,0.093,1,1,3.283
1777578533986,-0.156,0.938,-0.525,0.035,0.048,0.108,113.513,4.312,1.086,0.123,1,1,3.381
1777578534000,-0.124,0.921,-0.521,0.037,0.059,0.119,113.699,4.387,1.065,0.138,1,1,3.337
1777578534013,-0.097,0.916,-0.509,0.043,0.060,0.115,113.866,4.415,1.052,0.137,1,1,3.896
1777578534027,-0.073,0.904,-0.509,0.044,0.051,0.096,114.037,4.403,1.040,0.117,1,1,3.273
1777578534040,-0.041,0.900,-0.509,0.044,0.035,0.064,114.206,4.336,1.034,0.086,1,1,3.261
1777578534054,-0.047,0.911,-0.524,0.042,0.019,0.040,114.384,4.281,1.052,0.061,1,1,3.247
1777578534067,-0.079,0.910,-0.515,0.045,0.014,0.028,114.544,4.283,1.049,0.055,1,1,3.249
1777578534080,-0.082,0.910,-0.515,0.045,0.004,0.016,114.698,4.288,1.049,0.048,1,1,3.913
1777578534094,-0.083,0.904,-0.523,0.044,-0.000,0.003,114.866,4.297,1.048,0.044,1,1,3.248
1777578534108,-0.101,0.898,-0.518,0.042,-0.000,0.000,115.025,4.336,1.042,0.042,1,1,3.254
1777578534121,-0.108,0.901,-0.523,0.036,0.004,0.008,115.184,4.385,1.048,0.037,1,1,3.255
1777578534134,-0.098,0.902,-0.525,0.033,0.003,0.013,115.340,4.416,1.048,0.036,1,1,3.270
1777578534148,-0.102,0.906,-0.532,0.034,0.005,0.014,115.498,4.451,1.055,0.037,4,4,3.897
1777578534162,-0.098,0.901,-0.524,0.029,0.005,0.023,115.644,4.480,1.046,0.038,4,4,3.305
1777578534175,-0.086,0.906,-0.528,0.027,0.007,0.023,115.787,4.486,1.053,0.036,4,4,3.261
1777578534189,-0.103,0.927,-0.527,0.042,0.007,0.023,115.907,4.518,1.071,0.049,4,4,3.255
1777578534202,-0.109,0.903,-0.529,0.042,0.006,0.032,116.046,4.562,1.052,0.054,4,4,3.265
1777578534215,-0.081,0.925,-0.520,0.041,0.004,0.039,116.147,4.556,1.064,0.056,2,2,3.895
1777578534229,-0.095,0.915,-0.516,0.044,-0.002,0.042,116.249,4.575,1.055,0.061,2,2,3.255
1777578534243,-0.110,0.921,-0.538,0.050,-0.000,0.042,116.376,4.617,1.072,0.065,2,2,3.284
1777578534256,-0.088,0.914,-0.521,0.051,-0.001,0.052,116.479,4.622,1.056,0.073,2,2,3.256
1777578534269,-0.102,0.941,-0.536,0.069,0.005,0.048,116.578,4.645,1.088,0.085,2,2,3.255
1777578534283,-0.097,0.940,-0.541,0.083,0.003,0.053,116.682,4.659,1.089,0.099,4,4,3.914
1777578534297,-0.112,0.956,-0.544,0.106,0.016,0.078,116.774,4.695,1.106,0.133,4,4,3.255
1777578534310,-0.201,1.090,-0.532,0.181,0.041,0.112,116.750,4.842,1.229,0.217,4,4,3.265
1777578534323,-0.048,0.975,-0.540,0.215,0.046,0.115,116.820,4.768,1.115,0.248,4,4,3.276
1777578534337,-0.123,1.097,-0.526,0.277,0.053,0.152,116.782,4.799,1.223,0.320,4,4,3.263
1777578534350,-0.085,1.048,-0.558,0.331,0.062,0.189,116.821,4.777,1.191,0.386,4,4,3.892
1777578534364,-0.092,1.150,-0.570,0.428,0.078,0.194,116.806,4.756,1.287,0.476,4,4,3.256
1777578534378,-0.156,1.211,-0.587,0.535,0.090,0.203,116.777,4.814,1.355,0.579,4,4,3.248
1777578534391,-0.117,1.345,-0.581,0.688,0.121,0.175,116.670,4.807,1.469,0.721,4,4,3.258
1777578534405,-0.143,1.439,-0.567,0.872,0.137,0.098,116.509,4.821,1.553,0.888,4,4,3.606
1777578534418,-0.145,1.278,-0.552,1.035,0.156,0.118,116.411,4.857,1.399,1.054,4,4,3.900
1777578534432,-0.195,1.318,-0.576,1.180,0.167,0.121,116.324,4.946,1.452,1.198,4,4,3.275
1777578534445,-0.042,1.344,-0.546,1.355,0.163,0.112,116.193,4.843,1.451,1.370,4,4,3.245
1777578534459,0.019,1.522,-0.527,1.577,0.131,0.086,115.972,4.672,1.611,1.584,4,4,3.263
1777578534472,0.103,1.544,-0.533,1.834,0.095,0.041,115.756,4.415,1.637,1.837,4,4,3.250
1777578534485,0.167,1.622,-0.492,2.114,0.042,-0.053,115.480,4.102,1.703,2.115,4,4,3.961
1777578534499,0.151,1.723,-0.490,2.465,-0.019,-0.122,115.181,3.824,1.798,2.468,4,4,3.270
1777578534513,-0.037,1.924,-0.553,2.501,-0.043,-0.160,114.897,3.738,2.002,2.507,4,4,3.440
1777578534526,-0.189,1.970,-0.705,2.501,0.004,-0.180,114.734,3.782,2.101,2.508,4,4,3.284
1777578534540,-0.149,1.966,-0.700,2.501,0.109,-0.196,114.574,3.792,2.092,2.511,4,4,3.272
1777578534553,0.043,1.672,-0.782,2.501,0.085,-0.095,114.589,3.632,1.846,2.505,4,4,3.931
1777578534567,-0.057,1.771,-0.881,2.501,0.087,-0.206,114.647,3.571,1.979,2.511,4,4,3.258
1777578534581,-0.035,1.838,-0.731,2.501,0.109,0.138,114.555,3.492,1.978,2.507,4,4,3.255
1777578534594,0.002,2.131,-0.265,2.501,0.004,0.469,114.011,3.381,2.148,2.545,4,4,3.251
1777578534607,0.663,-0.157,0.365,2.501,-0.157,0.192,109.735,1.438,0.773,2.514,4,4,3.286
1777578534621,0.375,-1.077,0.170,2.132,-0.499,0.061,103.797,0.802,1.153,2.190,4,4,3.848
1777578534635,-0.270,0.375,-0.465,1.258,-0.406,0.049,104.959,1.534,0.655,1.323,4,4,3.248
1777578534648,-0.022,-0.382,0.072,0.190,-0.298,-0.010,99.223,1.590,0.389,0.353,4,4,3.246
1777578534661,-0.333,0.322,-0.140,-0.412,-0.124,-0.007,99.667,2.896,0.484,0.430,4,4,3.285
1777578534675,-0.275,0.349,-0.020,-0.745,0.096,-0.009,99.470,3.996,0.445,0.751,4,4,3.248
1777578534688,-0.169,0.371,-0.012,-0.977,0.239,-0.040,99.235,4.634,0.408,1.007,4,4,3.892
1777578534702,-0.127,0.233,-0.014,-1.227,0.344,-0.058,99.052,5.376,0.266,1.276,4,4,3.267
1777578534715,-0.074,0.028,-0.002,-1.619,0.379,-0.045,98.880,7.374,0.079,1.664,4,4,3.253
1777578534729,-0.024,0.007,0.014,-2.123,0.350,-0.057,96.642,8.915,0.029,2.153,4,4,3.285
1777578534742,0.040,0.154,0.008,-2.501,0.262,-0.064,96.344,8.183,0.159,2.516,4,4,3.252
1777578534755,0.109,0.392,-0.048,-2.501,0.123,-0.027,96.363,7.446,0.410,2.505,4,4,3.889
1777578534769,0.136,0.577,-0.166,-2.501,-0.043,0.056,96.662,6.816,0.616,2.502,4,4,3.268
1777578534783,0.109,0.694,-0.303,-2.501,-0.183,0.193,97.189,6.348,0.766,2.515,4,4,3.264
1777578534796,0.069,0.753,-0.436,-2.501,-0.311,0.306,97.902,6.010,0.873,2.539,4,4,3.267
1777578534810,0.042,0.798,-0.527,-2.501,-0.433,0.303,98.697,5.744,0.958,2.557,4,4,3.288
1777578534823,-0.003,0.888,-0.615,-2.501,-0.551,0.238,99.506,5.570,1.081,2.572,5,5,3.918
1777578534837,-0.109,0.984,-0.717,-2.501,-0.602,0.166,100.333,5.557,1.222,2.578,5,5,3.259
1777578534853,-0.233,1.109,-0.836,-2.501,-0.540,0.116,101.163,5.681,1.408,2.562,5,5,5.867
1777578534867,-0.400,1.188,-0.958,-2.501,-0.375,0.062,102.026,5.961,1.578,2.530,5,5,3.261
1777578534880,-0.421,1.228,-1.030,-2.501,-0.135,-0.162,102.896,6.234,1.657,2.510,5,5,3.247
1777578534893,-0.382,1.309,-1.069,-2.501,0.110,-0.408,103.716,6.436,1.733,2.537,5,5,3.896
1777578534907,-0.246,1.345,-1.142,-2.501,0.309,-0.474,104.544,6.483,1.782,2.565,5,5,3.249
1777578534921,-0.080,1.392,-1.226,-2.501,0.407,-0.300,105.378,6.358,1.857,2.552,5,5,3.268
1777578534934,0.090,1.442,-1.313,-2.501,0.365,-0.092,106.217,6.077,1.952,2.530,5,5,3.252
1777578534949,0.107,1.435,-1.393,-2.407,0.201,0.046,107.086,5.792,2.003,2.416,5,5,5.475
1777578534963,-0.007,1.399,-1.447,-2.118,0.045,0.146,107.985,5.619,2.012,2.123,1,1,3.880
1777578534977,-0.133,1.346,-1.504,-1.846,-0.062,0.208,108.924,5.561,2.023,1.858,1,1,3.248
1777578534990,-0.229,1.275,-1.540,-1.566,-0.105,0.133,109.903,5.591,2.012,1.575,1,1,3.251
1777578535004,-0.298,1.136,-1.552,-1.283,-0.098,-0.040,110.958,5.692,1.946,1.288,1,1,3.259
1777578535017,-0.278,1.057,-1.543,-0.970,-0.063,-0.201,112.036,5.777,1.891,0.993,1,1,3.301
1777578535031,-0.154,0.943,-1.500,-0.628,-0.060,-0.262,113.151,5.752,1.779,0.683,5,5,3.954
1777578535045,-0.060,0.875,-1.474,-0.285,-0.105,-0.181,114.277,5.636,1.715,0.354,5,5,3.424
1777578535058,-0.028,0.691,-1.424,-0.055,-0.189,0.025,115.517,5.492,1.583,0.199,5,5,3.260
1777578535072,-0.053,0.611,-1.353,0.072,-0.300,0.189,116.767,5.384,1.486,0.362,5,5,3.255
1777578535086,-0.168,0.735,-1.277,0.239,-0.364,0.188,117.805,5.419,1.483,0.475,5,5,4.612
1777578535100,-0.280,0.775,-1.195,0.467,-0.352,0.027,118.714,5.597,1.451,0.585,1,1,3.846
1777578535115,-0.306,0.794,-1.140,0.657,-0.279,-0.241,119.537,5.809,1.422,0.754,1,1,4.773
1777578535129,-0.255,0.795,-1.043,0.791,-0.204,-0.413,120.258,5.971,1.336,0.916,1,1,3.244
1777578535142,-1.899,4.000,0.400,1.289,0.010,0.631,119.138,6.572,4.446,1.435,1,1,3.253
1777578535155,0.521,1.607,0.341,1.642,-0.318,0.059,117.858,5.820,1.724,1.674,1,1,3.259
1777578535169,0.015,1.157,-0.109,2.099,-0.358,-0.067,117.159,5.616,1.162,2.130,1,1,3.855
1777578535183,-0.295,0.921,-0.293,2.132,-0.018,-0.081,116.863,5.969,1.011,2.134,1,1,3.273
1777578535196,-0.285,0.864,-0.458,1.993,0.138,-0.018,116.896,6.289,1.018,1.998,1,1,3.316
1777578535209,-0.125,0.979,-0.585,1.813,0.159,-0.047,117.020,6.288,1.147,1.820,1,1,3.272
1777578535223,0.222,0.398,-1.196,1.194,0.095,-0.156,118.408,5.781,1.280,1.207,1,1,3.304
1777578535236,0.060,0.382,-0.960,0.862,-0.055,-0.479,119.650,5.497,1.035,0.988,1,1,3.919
1777578535250,-0.079,0.502,-0.830,0.398,-0.318,-0.458,120.557,5.472,0.973,0.685,1,1,3.274
1777578535264,-0.450,1.016,-0.479,0.189,-0.189,-0.257,120.391,5.981,1.210,0.371,1,1,3.275
1777578535277,-0.360,0.833,-0.572,0.167,-0.116,-0.075,120.519,6.405,1.072,0.217,1,1,3.284
1777578535290,-0.287,0.836,-0.556,0.049,-0.006,0.064,120.616,6.702,1.045,0.081,1,1,3.263
1777578535304,-0.138,0.977,-0.481,0.060,0.016,0.089,120.478,6.719,1.097,0.108,1,1,3.928
1777578535318,-0.178,0.946,-0.513,0.072,0.041,0.116,120.416,6.802,1.091,0.143,1,1,3.378
1777578535332,-0.107,0.966,-0.501,0.081,0.059,0.122,120.323,6.765,1.093,0.158,1,1,3.260
1777578535345,-0.036,0.947,-0.509,0.092,0.034,0.076,120.260,6.614,1.076,0.124,1,1,3.280
1777578535358,-0.060,0.905,-0.531,0.102,0.007,0.034,120.264,6.510,1.051,0.108,1,1,3.259
1777578535372,-0.087,0.896,-0.519,0.096,-0.011,0.006,120.258,6.456,1.039,0.097,1,1,3.929
1777578535386,-0.078,0.907,-0.517,0.093,-0.032,-0.019,120.239,6.389,1.047,0.100,1,1,3.274
1777578535399,-0.122,0.909,-0.525,0.088,-0.040,-0.027,120.231,6.396,1.057,0.100,1,1,3.259
1777578535412,-0.151,0.898,-0.548,0.075,-0.031,-0.007,120.267,6.451,1.062,0.082,1,1,3.287
1777578535426,-0.186,0.901,-0.529,0.060,-0.003,0.031,120.272,6.564,1.061,0.068,1,1,3.269
1777578535439,-0.163,0.904,-0.542,0.047,0.019,0.069,120.294,6.633,1.067,0.085,1,1,3.924
1777578535453,-0.142,0.908,-0.528,0.037,0.033,0.084,120.289,6.666,1.060,0.098,1,1,3.258
1777578535466,-0.120,0.888,-0.540,0.029,0.034,0.086,120.321,6.663,1.046,0.097,1,1,3.256
1777578535480,-0.088,0.894,-0.519,0.027,0.027,0.070,120.314,6.608,1.037,0.080,1,1,3.270
1777578535493,-0.095,0.902,-0.531,0.029,0.019,0.053,120.320,6.563,1.051,0.063,1,1,3.258
1777578535507,-0.107,0.896,-0.535,0.031,0.010,0.050,120.336,6.542,1.049,0.059,1,1,3.955
1777578535521,-0.092,0.905,-0.528,0.029,0.008,0.041,120.333,6.494,1.052,0.051,1,1,3.734
1777578535534,-0.087,0.903,-0.529,0.033,0.003,0.033,120.333,6.441,1.050,0.047,1,1,3.255
1777578535548,-0.105,0.902,-0.532,0.032,0.005,0.031,120.340,6.419,1.053,0.045,1,1,3.428
1777578535561,-0.100,0.898,-0.530,0.030,0.005,0.027,120.347,6.389,1.048,0.041,1,1,3.271
1777578535575,-0.117,0.893,-0.534,0.024,0.010,0.030,120.363,6.389,1.047,0.040,1,1,3.936
1777578535589,-0.102,0.895,-0.530,0.019,0.017,0.034,120.372,6.365,1.045,0.042,1,1,3.264
1777578535602,-0.099,0.912,-0.535,0.024,0.015,0.031,120.373,6.333,1.062,0.042,1,1,3.251
1777578535615,-0.086,0.923,-0.526,0.032,0.006,0.016,120.352,6.280,1.066,0.036,1,1,3.250
1777578535629,-0.092,0.908,-0.528,0.037,-0.001,0.002,120.347,6.240,1.054,0.037,1,1,3.256
1777578535642,-0.096,0.900,-0.529,0.042,-0.007,-0.008,120.349,6.210,1.049,0.043,2,2,3.847
1777578535656,-0.098,0.908,-0.529,0.044,-0.008,-0.004,120.345,6.183,1.056,0.045,2,2,3.259
1777578535669,-0.111,0.902,-0.535,0.041,-0.006,0.002,120.356,6.178,1.055,0.042,2,2,3.238
1777578535683,-0.102,0.911,-0.531,0.047,-0.001,0.002,120.352,6.159,1.060,0.047,2,2,3.251
1777578535696,-0.122,0.910,-0.545,0.050,0.000,0.014,120.370,6.172,1.068,0.051,2,2,3.264
1777578535710,-0.128,0.917,-0.549,0.049,0.009,0.023,120.386,6.192,1.076,0.055,1,1,4.082
1777578535724,-0.110,0.907,-0.548,0.050,0.012,0.040,120.409,6.183,1.065,0.065,1,1,3.810
1777578535738,-0.100,0.962,-0.527,0.076,0.011,0.040,120.356,6.152,1.101,0.086,1,1,3.269
1777578535751,-0.111,0.950,-0.539,0.101,0.012,0.054,120.332,6.141,1.097,0.115,1,1,3.276
1777578535764,-0.171,1.042,-0.538,0.151,0.026,0.075,120.238,6.208,1.186,0.171,1,1,3.262
1777578535778,-0.140,1.032,-0.556,0.240,0.051,0.100,120.178,6.227,1.181,0.265,4,4,3.913
1777578535792,-0.103,1.090,-0.553,0.290,0.059,0.119,120.076,6.183,1.227,0.319,4,4,3.256
1777578535805,-0.086,1.094,-0.561,0.350,0.063,0.140,119.984,6.115,1.232,0.382,4,4,3.257
1777578535818,-0.098,1.138,-0.602,0.435,0.078,0.158,119.919,6.060,1.291,0.470,4,4,3.245
1777578535832,-0.081,1.164,-0.569,0.544,0.077,0.133,119.799,5.983,1.298,0.565,4,4,3.247
1777578535845,-0.095,1.274,-0.579,0.664,0.087,0.066,119.632,5.917,1.402,0.673,4,4,3.878
1777578535859,-0.182,1.238,-0.571,0.814,0.113,0.037,119.480,5.970,1.375,0.823,4,4,3.248
1777578535872,-0.131,1.293,-0.593,0.931,0.126,0.038,119.329,5.948,1.429,0.940,4,4,3.335
1777578535886,-0.097,1.304,-0.585,1.084,0.128,0.029,119.168,5.884,1.433,1.092,4,4,3.259
1777578535899,-0.085,1.363,-0.578,1.267,0.124,0.028,118.976,5.803,1.483,1.274,4,4,3.259
1777578535912,-0.031,1.482,-0.547,1.480,0.097,-0.006,118.704,5.658,1.580,1.483,4,4,3.911
1777578535927,0.032,1.593,-0.554,1.752,0.033,-0.018,118.408,5.449,1.687,1.753,4,4,3.509
1777578535940,0.079,1.698,-0.514,2.072,-0.004,-0.031,118.048,5.199,1.776,2.072,4,4,3.265
1777578535953,-0.046,1.854,-0.503,2.465,-0.035,-0.072,117.647,5.080,1.922,2.467,4,4,3.279
1777578535967,0.009,2.109,-0.498,2.501,-0.060,-0.131,117.201,4.914,2.167,2.505,4,4,3.268
1777578535980,-0.160,2.269,-0.635,2.501,-0.024,-0.090,116.841,4.883,2.362,2.503,4,4,3.938
1777578535994,-0.319,2.281,-0.811,2.501,0.119,-0.010,116.614,4.964,2.442,2.504,4,4,3.263
1777578536007,0.034,2.006,-0.982,2.501,0.036,-0.048,116.598,4.782,2.234,2.502,4,4,3.278
1777578536021,-0.157,1.829,-0.934,2.501,0.054,-0.050,116.612,4.769,2.060,2.502,4,4,3.280
1777578536034,0.204,2.082,-0.535,2.501,-0.054,0.222,116.232,4.452,2.159,2.512,4,4,3.281
1777578536048,0.221,0.905,0.521,2.501,-0.133,0.113,114.483,3.941,1.068,2.507,4,4,3.883
1777578536062,0.363,-1.847,0.485,2.122,-0.469,0.044,108.576,3.483,1.944,2.174,4,4,3.259
1777578536075,-0.271,0.712,-0.597,1.500,-0.177,0.219,109.241,3.881,0.968,1.526,4,4,3.283
1777578536088,-0.057,-0.374,0.153,0.627,0.029,0.104,103.733,4.011,0.408,0.636,4,4,3.260
1777578536102,-0.233,0.295,-0.076,0.081,0.208,-0.138,103.757,5.050,0.384,0.262,4,4,3.335
1777578536115,-0.202,0.105,0.058,-0.284,0.403,-0.302,102.426,6.741,0.235,0.579,4,4,3.847
1777578536130,-0.092,0.100,0.041,-0.646,0.527,-0.345,101.351,7.788,0.142,0.903,4,4,3.711
1777578536143,0.025,0.032,0.074,-1.026,0.564,-0.285,98.929,7.001,0.085,1.205,4,4,3.255
1777578536156,0.095,-0.002,0.063,-1.394,0.537,-0.187,95.795,5.029,0.115,1.506,4,4,3.238
1777578536170,0.118,-0.039,0.056,-1.816,0.476,-0.142,91.720,3.006,0.137,1.883,4,4,3.281
1777578536183,0.122,0.098,0.008,-2.189,0.401,-0.186,91.520,1.323,0.156,2.233,4,4,3.837
1777578536197,0.104,0.256,-0.087,-2.474,0.333,-0.244,92.057,0.625,0.289,2.508,4,4,3.269
1777578536210,0.076,0.378,-0.186,-2.501,0.282,-0.276,92.808,0.287,0.428,2.532,4,4,3.259
1777578536224,0.078,0.482,-0.280,-2.501,0.244,-0.277,93.658,0.031,0.563,2.528,4,4,3.260
1777578536237,0.090,0.528,-0.383,-2.501,0.212,-0.265,94.664,-0.215,0.659,2.524,4,4,3.274
1777578536250,0.074,0.646,-0.487,-2.501,0.187,-0.262,95.670,-0.371,0.812,2.522,4,4,3.894
1777578536264,0.043,0.781,-0.622,-2.501,0.177,-0.290,96.694,-0.436,0.999,2.524,4,4,3.341
1777578536278,0.015,0.866,-0.696,-2.501,0.200,-0.353,97.693,-0.446,1.111,2.534,4,4,3.272
1777578536291,-0.017,0.989,-0.783,-2.501,0.259,-0.446,98.648,-0.408,1.261,2.554,4,4,3.258
1777578536305,-0.038,1.129,-0.871,-2.501,0.354,-0.530,99.551,-0.348,1.426,2.581,4,4,3.276
1777578536318,-0.015,1.156,-0.903,-2.501,0.465,-0.614,100.437,-0.319,1.467,2.617,5,5,3.900
1777578536332,0.050,1.232,-0.927,-2.501,0.576,-0.697,101.262,-0.367,1.543,2.660,5,5,3.328
1777578536345,0.142,1.263,-0.919,-2.501,0.654,-0.699,102.033,-0.517,1.569,2.678,5,5,3.281
1777578536359,0.236,1.340,-0.922,-2.501,0.682,-0.580,102.734,-0.759,1.644,2.657,5,5,3.258
1777578536372,0.374,1.468,-0.940,-2.501,0.636,-0.366,103.353,-1.112,1.783,2.607,5,5,3.262
1777578536385,0.466,1.549,-0.959,-2.501,0.515,-0.103,103.927,-1.523,1.881,2.556,5,5,3.890
1777578536399,0.492,1.601,-0.994,-2.501,0.351,0.110,104.484,-1.931,1.948,2.528,5,5,3.298
1777578536413,0.464,1.588,-1.049,-2.501,0.177,0.171,105.074,-2.298,1.959,2.513,5,5,3.325
1777578536426,0.380,1.607,-1.083,-2.353,0.013,0.155,105.663,-2.571,1.975,2.358,5,5,3.296
1777578536440,0.318,1.591,-1.164,-2.148,-0.128,0.171,106.301,-2.776,1.997,2.159,5,5,3.265
1777578536453,0.321,1.462,-1.236,-1.939,-0.247,0.282,107.045,-2.986,1.941,1.975,1,1,3.933
1777578536467,0.274,1.348,-1.301,-1.692,-0.334,0.449,107.884,-3.152,1.893,1.782,1,1,3.296
1777578536480,0.095,1.285,-1.370,-1.357,-0.333,0.591,108.784,-3.145,1.881,1.517,1,1,3.260
1777578536494,-0.137,1.227,-1.448,-0.930,-0.242,0.615,109.748,-2.919,1.903,1.141,1,1,3.282
1777578536507,-0.425,0.994,-1.466,-0.477,-0.061,0.383,110.872,-2.408,1.821,0.615,1,1,3.284
1777578536521,-0.466,0.854,-1.472,-0.026,0.147,-0.102,112.086,-1.856,1.764,0.180,1,1,3.922
1777578536535,-0.352,0.710,-1.420,0.392,0.301,-0.530,113.372,-1.410,1.626,0.725,1,1,3.294
1777578536548,-0.257,0.653,-1.348,0.689,0.407,-0.637,114.642,-1.063,1.519,1.023,1,1,3.272
1777578536561,-0.118,0.706,-1.232,0.910,0.464,-0.554,115.748,-0.882,1.425,1.162,1,1,3.309
1777578536575,-0.029,0.799,-1.125,1.089,0.480,-0.395,116.647,-0.817,1.380,1.254,1,1,3.270
1777578536588,0.023,2.621,-1.407,1.138,0.475,-1.368,116.697,-0.806,2.975,1.842,1,1,4.012
1777578536602,1.284,2.658,1.189,2.064,0.134,-1.025,115.116,-1.521,3.182,2.309,1,1,3.298
1777578536616,-0.579,1.430,0.029,2.251,0.144,-0.879,114.298,-0.788,1.543,2.421,1,1,3.269
1777578536629,-0.379,0.979,-0.280,2.240,0.333,-0.610,114.038,-0.127,1.087,2.345,1,1,3.262
1777578536642,-0.229,0.859,-0.412,2.098,0.262,-0.393,114.088,0.297,0.980,2.151,1,1,3.251
1777578536656,-0.338,0.860,-0.522,1.949,0.227,-0.170,114.312,0.866,1.061,1.969,1,1,3.905
1777578536670,-0.114,0.770,-0.709,1.777,0.219,-0.045,114.882,1.032,1.053,1.791,1,1,3.274
1777578536683,0.366,0.529,-0.808,0.969,-0.038,-0.208,115.875,0.354,1.032,0.992,1,1,3.244
1777578536696,-0.083,-0.062,-1.446,0.500,-0.201,-0.240,106.743,0.445,1.450,0.590,1,1,3.259
1777578536710,-0.382,0.684,-0.729,0.305,-0.194,-0.273,107.680,1.082,1.070,0.453,1,1,3.274
1777578536723,-0.401,0.962,-0.539,0.260,-0.092,-0.089,108.040,1.670,1.174,0.290,1,1,3.885
1777578536738,-0.237,0.852,-0.588,0.171,-0.025,0.025,108.555,2.020,1.062,0.174,1,1,3.707
1777578536751,-0.149,0.948,-0.510,0.141,-0.008,0.051,108.858,2.202,1.087,0.150,1,1,3.357
1777578536764,-0.149,0.879,-0.564,0.109,0.018,0.074,109.288,2.387,1.055,0.133,1,1,3.275
1777578536778,-0.143,0.918,-0.534,0.092,0.027,0.066,109.627,2.550,1.072,0.116,1,1,3.242
1777578536791,-0.126,0.876,-0.532,0.063,0.043,0.086,109.990,2.690,1.033,0.115,1,1,3.929
1777578536805,-0.121,0.876,-0.521,0.044,0.042,0.087,110.326,2.816,1.026,0.106,1,1,3.254
1777578536819,-0.151,0.890,-0.529,0.028,0.060,0.111,110.649,2.987,1.046,0.129,1,1,3.292
1777578536832,-0.082,0.914,-0.531,0.021,0.053,0.100,110.944,3.032,1.060,0.115,1,1,3.256
1777578536845,-0.038,0.932,-0.511,0.034,0.025,0.054,111.187,3.002,1.064,0.069,1,1,3.276
1777578536859,-0.071,0.909,-0.527,0.035,0.008,0.027,111.464,3.029,1.053,0.045,1,1,3.890
1777578536873,-0.079,0.926,-0.513,0.044,-0.011,0.004,111.699,3.067,1.062,0.045,1,1,3.251
1777578536886,-0.114,0.916,-0.529,0.042,-0.017,0.001,111.957,3.163,1.064,0.045,1,1,3.247
1777578536899,-0.131,0.919,-0.527,0.041,-0.011,0.014,112.203,3.284,1.067,0.045,1,1,3.251
1777578536913,-0.162,0.914,-0.538,0.036,0.006,0.041,112.461,3.451,1.073,0.055,1,1,3.269
1777578536926,-0.158,0.908,-0.529,0.026,0.027,0.068,112.702,3.611,1.063,0.078,1,1,3.893
1777578536941,-0.126,0.903,-0.524,0.019,0.035,0.086,112.933,3.713,1.052,0.095,1,1,3.832
1777578536954,-0.090,0.906,-0.510,0.021,0.036,0.076,113.134,3.752,1.044,0.087,1,1,3.259
1777578536967,-0.110,0.898,-0.514,0.019,0.027,0.057,113.340,3.823,1.041,0.066,1,1,3.255
1777578536981,-0.052,0.909,-0.520,0.020,0.015,0.029,113.541,3.792,1.049,0.038,1,1,3.246
1777578536994,-0.078,0.904,-0.506,0.020,0.002,0.019,113.719,3.808,1.039,0.027,1,1,3.904
1777578537008,-0.087,0.912,-0.514,0.035,-0.010,0.004,113.896,3.837,1.050,0.037,1,1,3.261
1777578537021,-0.090,0.901,-0.542,0.036,-0.016,0.001,114.118,3.869,1.055,0.039,1,1,3.256
1777578537035,-0.083,0.925,-0.521,0.040,-0.022,-0.008,114.283,3.887,1.065,0.046,1,1,3.260
1777578537048,-0.094,0.919,-0.532,0.045,-0.025,-0.014,114.463,3.923,1.066,0.053,1,1,3.256
1777578537061,-0.113,0.898,-0.524,0.047,-0.029,-0.005,114.643,3.995,1.046,0.056,1,1,3.887
1777578537075,-0.109,0.901,-0.533,0.048,-0.027,0.008,114.828,4.055,1.053,0.056,1,1,3.255
1777578537089,-0.111,0.904,-0.542,0.047,-0.025,0.014,115.018,4.115,1.060,0.055,1,1,3.271
1777578537102,-0.105,0.916,-0.542,0.054,-0.019,0.029,115.191,4.163,1.069,0.064,1,1,3.263
1777578537116,-0.127,0.933,-0.538,0.072,-0.014,0.041,115.340,4.243,1.084,0.084,1,1,3.397
1777578537129,-0.108,0.935,-0.537,0.085,-0.011,0.046,115.481,4.289,1.084,0.097,1,1,3.856
1777578537143,-0.167,0.895,-0.540,0.098,0.002,0.075,115.656,4.439,1.058,0.123,1,1,3.610
1777578537157,-0.163,0.918,-0.543,0.111,0.019,0.092,115.810,4.571,1.079,0.145,1,1,3.264
1777578537170,-0.121,0.930,-0.538,0.110,0.025,0.101,115.942,4.629,1.081,0.151,1,1,3.236
1777578537183,-0.117,0.977,-0.548,0.136,0.035,0.122,116.047,4.670,1.126,0.186,1,1,3.243
1777578537197,-0.111,0.989,-0.557,0.171,0.039,0.127,116.152,4.699,1.140,0.217,4,4,3.832
1777578537211,-0.075,1.013,-0.550,0.216,0.039,0.129,116.224,4.669,1.155,0.255,4,4,3.249
1777578537224,-0.083,1.018,-0.571,0.252,0.041,0.146,116.319,4.651,1.170,0.294,4,4,3.263
1777578537237,-0.077,1.065,-0.563,0.316,0.047,0.172,116.366,4.620,1.207,0.363,4,4,3.240
1777578537251,-0.146,1.126,-0.581,0.388,0.067,0.192,116.395,4.681,1.276,0.438,4,4,3.265
1777578537264,-0.120,1.236,-0.579,0.505,0.093,0.193,116.354,4.692,1.370,0.548,4,4,3.880
1777578537278,-0.079,1.375,-0.582,0.668,0.106,0.135,116.247,4.640,1.495,0.689,4,4,3.330
1777578537292,-0.127,1.327,-0.568,0.843,0.122,0.098,116.151,4.652,1.449,0.858,4,4,3.275
1777578537305,-0.117,1.291,-0.562,0.978,0.131,0.093,116.070,4.656,1.413,0.991,4,4,3.252
1777578537318,-0.114,1.308,-0.575,1.132,0.133,0.089,115.997,4.652,1.434,1.143,4,4,3.260
1777578537332,-0.064,1.345,-0.561,1.319,0.136,0.062,115.893,4.586,1.459,1.327,4,4,3.916
1777578537346,0.042,1.441,-0.535,1.533,0.100,0.017,115.720,4.394,1.538,1.536,4,4,3.361
1777578537359,0.104,1.531,-0.530,1.784,0.060,-0.032,115.515,4.143,1.623,1.785,4,4,3.283
1777578537373,0.218,1.616,-0.519,2.063,-0.007,-0.130,115.275,3.787,1.711,2.067,4,4,3.249
1777578537386,0.249,1.804,-0.540,2.413,-0.079,-0.205,115.006,3.435,1.899,2.423,4,4,3.281
1777578537399,0.167,2.035,-0.614,2.501,-0.177,-0.184,114.751,3.188,2.132,2.514,4,4,3.920
1777578537413,-0.064,2.135,-0.626,2.501,-0.166,-0.022,114.489,3.140,2.226,2.507,4,4,3.275
1777578537427,-0.177,1.994,-0.708,2.501,-0.070,0.180,114.335,3.191,2.123,2.509,4,4,3.271
1777578537440,-0.115,1.641,-0.788,2.501,-0.111,0.271,114.376,3.204,1.824,2.518,4,4,3.274
1777578537453,-0.135,1.760,-0.844,2.501,-0.066,0.321,114.415,3.227,1.957,2.523,4,4,3.272
1777578537467,-0.025,1.547,-0.662,2.501,-0.072,0.803,114.376,3.153,1.683,2.628,4,4,3.915
1777578537481,-0.046,1.766,-0.255,2.501,-0.206,1.157,113.873,3.100,1.785,2.764,4,4,3.274
1777578537494,0.170,0.431,0.192,2.501,-0.367,0.971,112.381,2.387,0.502,2.708,4,4,3.328
1777578537508,0.185,-1.520,0.248,2.501,-0.611,0.394,106.369,2.099,1.551,2.605,4,4,3.364
1777578537521,-0.265,0.096,-0.501,1.829,-0.512,0.259,108.323,2.888,0.575,1.916,4,4,3.296
1777578537534,-0.227,-0.712,-0.029,0.757,-0.280,0.121,102.078,3.347,0.748,0.816,4,4,3.928
1777578537549,-0.401,-0.187,-0.168,-0.171,-0.019,0.170,94.794,5.047,0.473,0.242,4,4,3.388
1777578537562,-0.315,-0.076,-0.032,-0.824,0.240,0.278,88.329,7.236,0.325,0.902,4,4,3.325
1777578537575,-0.185,0.113,0.010,-1.263,0.398,0.296,88.224,8.832,0.217,1.357,4,4,3.255
1777578537589,-0.064,0.111,0.063,-1.617,0.442,0.300,87.358,9.386,0.143,1.703,4,4,3.263
1777578537602,-0.057,0.091,0.038,-1.966,0.419,0.384,86.735,10.028,0.114,2.047,4,4,3.930
1777578537616,-0.033,0.014,0.004,-2.414,0.333,0.485,86.291,11.769,0.036,2.485,4,4,3.426
1777578537630,0.010,0.216,-0.010,-2.501,0.196,0.446,86.491,11.324,0.216,2.548,4,4,3.382
1777578537643,0.006,0.496,-0.068,-2.501,0.018,0.323,86.845,10.949,0.501,2.522,4,4,3.272
1777578537657,-0.020,0.576,-0.176,-2.501,-0.172,0.263,87.470,10.667,0.603,2.521,4,4,3.254
1777578537670,-0.001,0.585,-0.227,-2.501,-0.381,0.346,88.210,10.337,0.628,2.554,4,4,3.891
1777578537684,-0.035,0.708,-0.302,-2.501,-0.602,0.467,88.985,10.096,0.771,2.615,4,4,3.320
1777578537697,-0.082,0.815,-0.381,-2.501,-0.784,0.489,89.797,9.944,0.904,2.666,4,4,3.252
1777578537711,-0.233,0.834,-0.488,-2.501,-0.908,0.475,90.747,10.056,0.994,2.703,4,4,3.258
1777578537724,-0.396,0.976,-0.571,-2.501,-0.924,0.469,91.667,10.343,1.197,2.707,4,4,3.262
1777578537737,-0.559,1.139,-0.697,-2.501,-0.827,0.476,92.595,10.728,1.448,2.677,5,5,3.878
1777578537751,-0.630,1.181,-0.822,-2.501,-0.654,0.475,93.598,11.130,1.571,2.629,5,5,3.266
1777578537765,-0.652,1.245,-0.898,-2.501,-0.465,0.376,94.601,11.499,1.668,2.572,5,5,3.258
1777578537778,-0.634,1.320,-0.962,-2.501,-0.281,0.191,95.581,11.801,1.751,2.524,5,5,3.248
1777578537792,-0.539,1.375,-1.059,-2.501,-0.140,-0.005,96.577,11.971,1.818,2.505,5,5,3.383
1777578537805,-0.394,1.433,-1.170,-2.501,-0.100,-0.115,97.594,11.973,1.891,2.506,1,1,3.930
1777578537819,-0.233,1.499,-1.312,-2.501,-0.180,-0.035,98.640,11.808,2.006,2.508,1,1,3.274
1777578537832,-0.111,1.577,-1.401,-2.315,-0.363,0.157,99.666,11.534,2.113,2.348,1,1,3.254
1777578537846,-0.131,1.575,-1.476,-1.987,-0.593,0.303,100.708,11.284,2.163,2.095,1,1,3.281
1777578537859,-0.242,1.463,-1.518,-1.666,-0.805,0.259,101.808,11.136,2.122,1.869,1,1,3.319
1777578537873,-0.435,1.330,-1.551,-1.339,-0.955,0.050,102.978,11.164,2.089,1.645,1,1,3.932
1777578537887,-0.636,1.076,-1.562,-1.028,-0.964,-0.091,104.300,11.393,2.001,1.413,1,1,3.265
1777578537900,-0.510,0.864,-1.537,-0.798,-0.943,-0.170,105.743,11.541,1.835,1.247,1,1,3.244
1777578537913,-0.388,0.648,-1.623,-0.584,-0.983,0.034,107.377,11.571,1.790,1.144,1,1,3.274
1777578537927,-1.165,3.833,-1.875,0.244,-0.960,0.329,107.647,11.686,4.423,1.044,1,1,3.299
1777578537940,-0.325,0.822,-1.952,0.886,-0.955,0.166,109.189,11.594,2.143,1.313,1,1,3.930
1777578537954,-0.550,1.244,-2.170,2.047,-0.890,0.055,110.465,11.619,2.561,2.233,1,1,3.285
1777578537968,-0.498,0.854,-0.433,1.810,-0.707,0.327,110.664,12.113,1.080,1.970,1,1,3.275
1777578537981,0.052,1.194,0.031,1.787,-0.745,0.197,109.974,11.658,1.195,1.946,1,1,3.263
1777578537994,0.163,1.065,-0.360,1.876,-0.633,-0.059,109.934,11.039,1.136,1.981,1,1,3.267
1777578538008,-0.425,0.858,-0.513,1.684,-0.127,-0.119,110.274,11.412,1.086,1.693,1,1,3.990
1777578538022,-0.050,0.834,-0.698,1.426,0.178,-0.197,110.886,11.138,1.089,1.450,1,1,3.271
1777578538035,0.142,0.506,-0.879,0.884,0.051,-0.269,112.105,10.543,1.024,0.926,1,1,3.274
1777578538049,-0.180,0.733,-0.651,0.621,0.062,-0.276,112.712,10.539,0.997,0.682,1,1,3.265
1777578538062,-0.365,1.046,-0.403,0.360,-0.112,-0.101,112.661,10.772,1.179,0.390,1,1,3.267
1777578538075,-0.136,0.631,-0.698,0.184,-0.029,-0.019,113.447,10.693,0.951,0.187,1,1,3.931
1777578538089,-0.132,0.859,-0.530,0.114,0.006,0.032,113.702,10.591,1.018,0.118,1,1,3.274
1777578538103,-0.212,0.852,-0.524,0.060,0.065,0.128,113.949,10.633,1.022,0.156,1,1,3.283
1777578538116,-0.135,0.890,-0.504,0.037,0.078,0.162,114.123,10.536,1.031,0.183,1,1,3.264
1777578538129,-0.100,0.969,-0.489,0.046,0.078,0.169,114.206,10.372,1.090,0.192,1,1,3.275
1777578538143,-0.038,0.958,-0.475,0.055,0.048,0.114,114.273,10.113,1.069,0.135,1,1,3.949
1777578538157,0.017,0.925,-0.474,0.067,0.004,0.038,114.361,9.770,1.039,0.077,1,1,3.324
1777578538170,-0.007,0.913,-0.489,0.079,-0.040,-0.044,114.480,9.477,1.035,0.099,1,1,3.321
1777578538184,-0.074,0.898,-0.493,0.074,-0.065,-0.075,114.613,9.311,1.027,0.124,1,1,3.478
1777578538197,-0.097,0.915,-0.504,0.072,-0.079,-0.083,114.746,9.187,1.049,0.135,1,1,3.285
1777578538211,-0.194,0.928,-0.508,0.058,-0.067,-0.060,114.869,9.224,1.075,0.107,1,1,3.942
1777578538225,-0.158,0.933,-0.497,0.048,-0.039,-0.024,114.967,9.202,1.069,0.067,1,1,3.328
1777578538238,-0.172,0.935,-0.516,0.031,-0.002,0.027,115.089,9.201,1.081,0.041,1,1,3.243
1777578538252,-0.145,0.940,-0.508,0.012,0.024,0.064,115.191,9.155,1.079,0.069,1,1,3.243
1777578538265,-0.118,0.929,-0.500,0.012,0.034,0.076,115.288,9.068,1.062,0.084,1,1,3.240
1777578538278,-0.051,0.827,-0.559,-0.020,0.037,0.077,115.560,8.876,1.000,0.088,1,1,3.825
1777578538292,-0.095,0.908,-0.511,-0.002,0.036,0.086,115.678,8.763,1.047,0.094,1,1,3.238
1777578538306,-0.094,0.930,-0.500,-0.002,0.032,0.084,115.758,8.648,1.060,0.090,1,1,3.241
1777578538319,-0.072,0.941,-0.496,0.007,0.029,0.068,115.821,8.500,1.066,0.075,1,1,3.264
1777578538333,-0.086,0.919,-0.490,0.013,0.024,0.060,115.892,8.382,1.045,0.066,1,1,3.410
1777578538346,-0.104,0.919,-0.501,0.016,0.030,0.056,115.977,8.299,1.052,0.066,1,1,3.954
1777578538360,-0.089,0.965,-0.466,0.029,0.038,0.059,115.971,8.189,1.075,0.076,1,1,3.266
1777578538373,-0.092,0.918,-0.510,0.025,0.040,0.062,116.067,8.089,1.054,0.078,1,1,3.267
1777578538387,-0.077,0.929,-0.489,0.031,0.038,0.048,116.120,7.968,1.053,0.069,1,1,3.256
1777578538400,-0.070,0.926,-0.488,0.033,0.028,0.034,116.172,7.839,1.049,0.055,1,1,3.273
1777578538414,-0.082,0.922,-0.505,0.032,0.021,0.028,116.251,7.734,1.054,0.047,4,4,3.975
1777578538428,-0.080,0.907,-0.500,0.026,0.015,0.017,116.331,7.631,1.039,0.035,4,4,3.264
1777578538441,-0.062,0.910,-0.499,0.026,0.007,-0.002,116.406,7.500,1.040,0.027,4,4,3.313
1777578538454,-0.061,0.914,-0.503,0.026,-0.001,-0.012,116.481,7.371,1.045,0.028,4,4,3.244
1777578538468,-0.075,0.913,-0.513,0.029,-0.009,-0.022,116.570,7.268,1.050,0.037,4,4,3.279
1777578538481,-0.084,0.896,-0.507,0.025,-0.013,-0.023,116.661,7.187,1.033,0.037,1,1,3.892
1777578538495,-0.092,0.905,-0.513,0.018,-0.015,-0.023,116.751,7.121,1.045,0.033,1,1,3.254
1777578538509,-0.104,0.911,-0.515,0.015,-0.014,-0.018,116.836,7.075,1.052,0.027,1,1,3.264
1777578538522,-0.100,0.905,-0.511,0.011,-0.009,-0.007,116.918,7.026,1.044,0.016,1,1,3.256
1777578538535,-0.082,0.912,-0.506,0.006,-0.008,-0.009,116.983,6.947,1.046,0.014,1,1,3.269
1777578538549,-0.097,0.914,-0.515,0.004,-0.004,0.000,117.058,6.895,1.054,0.006,1,1,3.876
1777578538563,-0.088,0.914,-0.506,0.000,-0.001,0.003,117.117,6.830,1.049,0.003,1,1,3.280
1777578538576,-0.082,0.921,-0.507,-0.002,0.003,0.001,117.170,6.755,1.054,0.003,1,1,3.263
1777578538589,-0.077,0.925,-0.502,0.000,-0.002,-0.007,117.211,6.675,1.055,0.008,1,1,3.253
1777578538603,-0.092,0.909,-0.520,0.001,-0.005,-0.012,117.291,6.623,1.051,0.013,1,1,3.261
1777578538616,-0.076,0.915,-0.505,0.001,-0.006,-0.016,117.341,6.547,1.048,0.017,2,2,3.893
1777578538630,-0.074,0.917,-0.504,0.001,-0.009,-0.026,117.386,6.469,1.049,0.028,2,2,3.269
1777578538643,-0.073,0.923,-0.501,0.005,-0.011,-0.039,117.420,6.392,1.053,0.041,2,2,3.257
1777578538657,-0.076,0.908,-0.515,0.003,-0.013,-0.048,117.487,6.322,1.047,0.049,2,2,3.389
1777578538670,-0.087,0.892,-0.507,-0.002,-0.013,-0.058,117.552,6.276,1.029,0.059,2,2,3.315
1777578538684,-0.072,0.884,-0.507,-0.013,-0.014,-0.074,117.624,6.207,1.021,0.076,1,1,4.113
1777578538698,-0.063,0.892,-0.504,-0.021,-0.021,-0.095,117.681,6.124,1.027,0.099,1,1,3.262
1777578538711,-0.084,0.883,-0.506,-0.023,-0.027,-0.122,117.746,6.081,1.021,0.127,1,1,3.270
1777578538725,-0.075,0.911,-0.483,-0.020,-0.026,-0.136,117.751,6.021,1.034,0.140,1,1,3.262
1777578538738,-0.101,0.933,-0.500,-0.015,-0.032,-0.138,117.765,6.003,1.064,0.143,1,1,3.270
1777578538751,-0.115,0.928,-0.506,-0.013,-0.035,-0.136,117.791,6.010,1.063,0.141,1,1,3.837
1777578538765,-0.090,0.900,-0.516,-0.011,-0.038,-0.126,117.855,5.978,1.041,0.132,1,1,3.271
1777578538779,-0.139,0.927,-0.514,-0.002,-0.035,-0.091,117.892,6.024,1.069,0.097,1,1,3.247
1777578538792,-0.172,0.971,-0.492,0.017,-0.038,-0.055,117.860,6.115,1.102,0.069,1,1,3.253
1777578538805,-0.142,0.964,-0.504,0.032,-0.044,-0.032,117.852,6.156,1.097,0.063,1,1,3.247
1777578538819,-0.129,0.928,-0.506,0.041,-0.063,-0.001,117.874,6.180,1.065,0.075,4,4,3.844
1777578538833,-0.068,0.928,-0.520,0.053,-0.108,0.033,117.917,6.102,1.066,0.125,4,4,3.486
1777578538846,-0.035,0.926,-0.515,0.054,-0.164,0.059,117.953,5.971,1.060,0.182,4,4,3.262
1777578538860,0.075,0.927,-0.527,0.045,-0.304,0.156,118.005,5.659,1.069,0.345,4,4,3.337
1777578538873,0.225,1.001,-0.454,0.058,-0.595,0.359,117.893,5.123,1.122,0.697,4,4,3.259
1777578538887,0.470,1.065,-0.404,0.078,-1.110,0.673,117.671,4.266,1.233,1.301,4,4,3.914
1777578538901,0.818,1.149,-0.237,0.146,-1.914,1.187,117.172,3.047,1.430,2.257,4,4,3.273
1777578538914,0.693,1.207,-0.143,0.267,-2.501,1.508,116.537,2.028,1.399,2.933,4,4,3.274
1777578538927,0.660,1.245,-0.057,0.352,-2.501,1.695,115.793,1.097,1.411,3.042,4,4,3.344
1777578538941,0.365,1.086,-0.093,0.387,-2.501,1.785,115.141,0.486,1.149,3.097,4,4,3.261
1777578538954,-0.121,1.034,-0.036,0.491,-2.501,1.815,114.421,0.678,1.042,3.129,4,4,3.953
1777578538968,-0.105,1.177,-0.117,0.512,-2.501,1.656,113.837,0.814,1.188,3.044,4,4,3.253
1777578538982,-0.122,1.077,-0.203,0.485,-2.501,1.604,113.427,0.986,1.102,3.011,4,4,3.264
1777578538995,-0.223,0.819,-0.261,0.482,-2.501,1.542,113.248,1.408,0.888,2.978,4,4,3.265
1777578539008,-0.245,0.972,-0.208,0.536,-2.501,1.384,112.900,1.795,1.023,2.909,4,4,3.264
1777578539022,-0.192,0.811,-0.247,0.507,-2.501,1.393,112.715,2.136,0.870,2.908,4,4,3.973
1777578539036,-0.224,1.012,-0.237,0.530,-2.501,1.340,112.418,2.447,1.064,2.887,4,4,3.282
1777578539049,-0.298,0.819,-0.224,0.516,-2.501,1.361,112.197,2.973,0.900,2.894,4,4,3.264
1777578539063,-0.308,1.215,-0.171,0.513,-2.501,1.447,111.756,3.319,1.265,2.935,4,4,3.269
1777578539076,-0.296,1.058,-0.210,0.481,-2.501,1.478,111.428,3.693,1.119,2.945,4,4,3.261
1777578539089,-0.282,1.015,-0.174,0.382,-2.501,1.581,111.063,4.055,1.068,2.983,4,4,3.951
1777578539103,-0.253,0.915,-0.249,0.312,-2.501,1.489,110.882,4.393,0.981,2.928,4,4,3.276
1777578539117,-0.312,0.985,-0.252,0.271,-2.501,1.460,110.680,4.786,1.063,2.909,4,4,3.257
1777578539130,-0.250,0.996,-0.248,0.225,-2.501,1.471,110.471,5.064,1.057,2.911,4,4,3.267
1777578539144,-0.178,1.043,-0.209,0.223,-2.501,1.351,110.187,5.201,1.078,2.852,4,4,3.271
1777578539157,-0.366,1.019,-0.229,0.321,-2.501,1.222,109.952,5.641,1.107,2.803,1,1,3.934
1777578539171,-0.120,0.996,-0.149,0.315,-2.501,1.140,109.596,5.676,1.014,2.767,1,1,3.258
1777578539185,-0.165,1.169,-0.112,0.395,-2.501,0.974,109.156,5.748,1.186,2.713,1,1,3.466
1777578539198,-0.148,1.068,-0.096,0.425,-2.501,0.937,108.720,5.814,1.082,2.705,1,1,3.339
1777578539212,-0.228,1.023,-0.092,0.362,-2.501,1.029,108.297,6.022,1.052,2.729,1,1,3.274
1777578539226,-0.189,0.849,-0.049,0.189,-2.501,1.100,107.831,6.224,0.871,2.739,4,4,3.989
1777578539240,-0.337,0.921,-0.138,0.048,-2.501,0.928,107.542,6.649,0.990,2.669,4,4,3.301
1777578539253,-0.397,0.992,-0.180,0.014,-2.487,0.870,107.317,7.111,1.084,2.634,4,4,3.282
1777578539267,-0.368,0.931,-0.226,-0.017,-2.359,1.002,107.203,7.545,1.027,2.564,4,4,3.256
1777578539280,-0.384,1.001,-0.336,0.040,-2.236,1.044,107.245,7.931,1.124,2.468,4,4,3.252
1777578539293,-0.471,0.997,-0.424,0.140,-2.100,0.927,107.426,8.415,1.182,2.300,1,1,3.857
1777578539307,-0.522,0.992,-0.549,0.279,-1.911,0.798,107.785,8.923,1.248,2.090,1,1,3.254
1777578539321,-0.527,0.959,-0.646,0.425,-1.692,0.745,108.288,9.409,1.271,1.897,1,1,3.264
1777578539334,-0.503,0.881,-0.712,0.619,-1.463,0.705,108.932,9.862,1.239,1.738,1,1,3.254
1777578539350,-0.196,0.797,-0.964,0.575,-1.203,0.806,109.911,9.832,1.266,1.558,1,1,5.388
1777578539363,0.136,0.627,-0.758,0.322,-1.036,0.494,110.860,9.281,0.993,1.192,1,1,3.869
1777578539377,-0.399,0.822,-0.711,0.207,-0.550,0.238,111.483,9.619,1.158,0.634,1,1,3.487
1777578539391,-0.440,0.633,-0.733,0.041,0.051,-0.046,112.345,10.079,1.064,0.080,1,1,3.262
1777578539404,0.293,0.975,-0.468,0.022,-0.083,-0.249,112.447,9.294,1.120,0.264,1,1,3.248
1777578539417,-0.201,0.977,-0.461,0.053,-0.083,-0.215,112.535,9.332,1.098,0.236,1,1,3.253
1777578539431,-0.027,0.899,-0.506,0.077,-0.072,-0.187,112.748,9.088,1.032,0.215,1,1,3.845
1777578539447,-0.075,0.957,-0.451,0.104,-0.107,-0.211,112.825,8.931,1.060,0.259,1,1,5.323
1777578539460,-0.150,0.913,-0.490,0.134,-0.103,-0.165,112.994,8.909,1.047,0.236,1,1,3.270
1777578539473,-0.138,0.901,-0.508,0.127,-0.105,-0.130,113.193,8.868,1.044,0.210,1,1,3.264
1777578539487,-0.162,0.903,-0.525,0.106,-0.075,-0.086,113.411,8.867,1.057,0.155,1,1,3.282
1777578539500,-0.124,0.946,-0.522,0.103,-0.056,-0.060,113.582,8.794,1.087,0.132,1,1,3.928
1777578539516,-0.119,0.925,-0.529,0.092,-0.044,-0.036,113.773,8.720,1.072,0.109,1,1,3.293
1777578539529,-0.111,0.929,-0.522,0.084,-0.036,-0.023,113.946,8.633,1.072,0.094,1,1,3.267
1777578539542,-0.091,0.913,-0.528,0.077,-0.031,-0.027,114.135,8.517,1.059,0.088,1,1,3.265
1777578539556,-0.101,0.916,-0.519,0.073,-0.038,-0.032,114.303,8.423,1.058,0.088,1,1,3.275
1777578539569,-0.094,0.921,-0.533,0.065,-0.043,-0.037,114.481,8.318,1.068,0.086,1,1,3.933
1777578539583,-0.111,0.907,-0.542,0.054,-0.047,-0.039,114.680,8.246,1.062,0.081,1,1,3.282
1777578539596,-0.124,0.919,-0.533,0.047,-0.039,-0.023,114.849,8.197,1.070,0.065,1,1,3.268
1777578539612,-0.138,0.919,-0.525,0.036,-0.029,0.004,115.001,8.174,1.068,0.046,1,1,5.659
1777578539626,-0.120,0.903,-0.530,0.031,-0.026,0.010,115.169,8.123,1.054,0.041,1,1,3.262
1777578539639,-0.094,0.897,-0.529,0.028,-0.027,0.003,115.336,8.030,1.046,0.039,1,1,3.923
1777578539653,-0.083,0.895,-0.516,0.023,-0.040,-0.015,115.480,7.924,1.036,0.048,1,1,3.267
1777578539666,-0.100,0.894,-0.531,0.024,-0.048,-0.031,115.643,7.848,1.045,0.062,1,1,3.256
1777578539680,-0.109,0.893,-0.529,0.017,-0.050,-0.040,115.799,7.791,1.043,0.066,1,1,3.273
1777578539693,-0.099,0.891,-0.522,0.016,-0.053,-0.045,115.942,7.718,1.038,0.071,1,1,3.272
1777578539709,-0.119,0.900,-0.526,0.013,-0.060,-0.050,116.077,7.680,1.049,0.079,1,1,6.100
1777578539723,-0.118,0.920,-0.522,0.016,-0.061,-0.048,116.186,7.640,1.065,0.080,1,1,3.274
1777578539736,-0.138,0.918,-0.529,0.017,-0.052,-0.036,116.303,7.633,1.068,0.066,1,1,3.276
1777578539750,-0.135,0.908,-0.532,0.015,-0.043,-0.025,116.429,7.624,1.061,0.052,1,1,3.329
1777578539763,-0.133,0.909,-0.527,0.013,-0.035,-0.014,116.543,7.612,1.059,0.040,1,1,3.256
1777578539778,-0.129,0.906,-0.528,0.011,-0.030,-0.004,116.658,7.593,1.056,0.032,2,2,3.925
1777578539792,-0.098,0.896,-0.518,0.010,-0.034,-0.014,116.763,7.524,1.040,0.038,2,2,3.254
1777578539805,-0.097,0.893,-0.521,0.014,-0.045,-0.035,116.872,7.457,1.038,0.059,2,2,3.246
1777578539818,-0.137,0.892,-0.522,0.007,-0.037,-0.026,116.980,7.460,1.043,0.046,2,2,3.257
1777578539832,-0.118,0.903,-0.521,0.006,-0.033,-0.024,117.074,7.428,1.049,0.041,2,2,3.250
1777578539845,-0.149,0.906,-0.530,0.001,-0.024,-0.014,117.176,7.449,1.060,0.028,1,1,3.898
1777578539859,-0.145,0.907,-0.522,-0.002,-0.015,0.000,117.261,7.463,1.057,0.015,1,1,3.268
1777578539872,-0.138,0.904,-0.522,-0.004,-0.005,0.008,117.347,7.465,1.053,0.010,1,1,3.364
1777578539886,-0.144,0.914,-0.523,-0.003,-0.001,0.017,117.422,7.475,1.063,0.017,1,1,3.720
1777578539900,-0.136,0.913,-0.523,-0.004,0.008,0.028,117.498,7.472,1.061,0.029,1,1,3.257
1777578539913,-0.117,0.915,-0.526,-0.002,0.007,0.027,117.572,7.437,1.062,0.028,4,4,3.955
1777578539927,-0.107,0.911,-0.533,0.004,0.008,0.017,117.659,7.386,1.061,0.019,4,4,3.271
1777578539940,-0.102,0.907,-0.527,0.002,0.006,0.023,117.737,7.328,1.054,0.024,4,4,3.269
1777578539954,-0.121,0.905,-0.525,0.006,0.002,0.017,117.810,7.305,1.053,0.018,4,4,3.282
1777578539967,-0.128,0.907,-0.525,0.008,0.000,0.018,117.880,7.294,1.056,0.019,4,4,3.257
1777578539981,-0.123,0.908,-0.523,0.009,-0.003,0.010,117.944,7.276,1.055,0.014,1,1,3.895
1777578539995,-0.129,0.903,-0.527,0.008,0.002,0.018,118.017,7.269,1.053,0.020,1,1,3.255
1777578540008,-0.112,0.908,-0.523,0.010,-0.001,0.007,118.077,7.233,1.054,0.013,1,1,3.250
1777578540021,-0.119,0.895,-0.521,0.009,-0.001,0.004,118.143,7.211,1.042,0.010,1,1,3.257
1777578540035,-0.112,0.895,-0.530,0.008,-0.004,-0.001,118.222,7.178,1.046,0.009,1,1,3.291
1777578540048,-0.126,0.896,-0.528,0.008,-0.004,-0.007,118.293,7.169,1.047,0.011,2,2,3.896
1777578540062,-0.120,0.894,-0.520,0.008,-0.003,-0.007,118.351,7.153,1.041,0.011,2,2,3.265
1777578540075,-0.125,0.905,-0.524,0.007,-0.001,-0.008,118.406,7.143,1.053,0.011,2,2,3.279
1777578540089,-0.129,0.911,-0.536,0.010,0.003,-0.003,118.470,7.138,1.064,0.011,2,2,3.263
1777578540102,-0.128,0.907,-0.526,0.010,0.005,0.001,118.520,7.132,1.057,0.011,2,2,3.270
1777578540115,-0.122,0.907,-0.535,0.013,0.014,0.010,118.583,7.116,1.060,0.022,2,2,3.937
1777578540130,-0.147,0.910,-0.534,0.011,0.022,0.023,118.640,7.140,1.066,0.033,2,2,3.262
1777578540143,-0.132,0.917,-0.531,0.013,0.027,0.038,118.684,7.140,1.068,0.048,2,2,3.292
1777578540156,-0.146,0.909,-0.537,0.009,0.036,0.050,118.742,7.163,1.066,0.062,2,2,3.264
1777578540170,-0.139,0.915,-0.537,0.008,0.048,0.070,118.794,7.173,1.070,0.086,2,2,3.266
1777578540183,-0.131,0.935,-0.538,0.010,0.059,0.082,118.829,7.166,1.087,0.102,4,4,3.921
1777578540197,-0.093,0.948,-0.524,0.025,0.056,0.077,118.832,7.096,1.087,0.098,4,4,3.262
1777578540211,-0.085,0.931,-0.531,0.040,0.043,0.050,118.858,7.016,1.075,0.077,4,4,3.736
1777578540224,-0.101,0.913,-0.541,0.053,0.039,0.045,118.914,6.967,1.066,0.079,4,4,3.373
1777578540239,-0.080,0.960,-0.528,0.084,0.033,0.025,118.911,6.879,1.099,0.093,4,4,4.596
1777578540253,-0.058,1.049,-0.519,0.135,0.025,-0.013,118.829,6.754,1.172,0.138,4,4,4.478
1777578540267,0.082,1.030,-0.542,0.169,-0.017,-0.096,118.797,6.418,1.167,0.195,4,4,3.261
1777578540280,0.202,0.926,-0.572,0.198,-0.086,-0.040,118.888,5.891,1.107,0.219,4,4,3.259
1777578540294,-0.587,2.113,-0.521,0.524,-0.011,0.039,118.419,6.178,2.254,0.526,4,4,3.248
1777578540307,-0.019,1.015,-0.613,0.710,-0.010,0.190,118.503,6.014,1.186,0.736,4,4,3.247
1777578540320,-0.148,1.558,-0.576,0.868,-0.030,0.034,118.247,5.985,1.667,0.869,4,4,3.844
1777578540334,-0.303,1.335,-0.564,1.078,0.032,0.050,118.081,6.166,1.481,1.079,4,4,3.257
1777578540349,-0.140,1.344,-0.568,1.224,0.033,0.107,117.921,6.145,1.465,1.229,4,4,4.188
1777578540362,-0.195,1.356,-0.564,1.389,0.022,0.173,117.754,6.188,1.482,1.400,4,4,3.246
1777578540375,-0.083,1.373,-0.550,1.575,-0.000,0.180,117.571,6.095,1.481,1.585,4,4,3.273
1777578540389,-0.005,1.410,-0.560,1.764,-0.038,0.186,117.386,5.911,1.517,1.774,4,4,4.300
1777578540406,0.121,1.417,-0.570,2.015,-0.133,0.207,117.216,5.586,1.532,2.030,4,4,3.382
1777578540419,0.254,1.485,-0.604,2.240,-0.253,0.246,117.058,5.131,1.623,2.267,4,4,3.268
1777578540433,0.208,1.407,-0.544,2.439,-0.303,0.250,116.874,4.728,1.522,2.470,4,4,3.272
1777578540446,0.207,1.458,-0.616,2.501,-0.406,0.282,116.750,4.348,1.597,2.550,4,4,3.266
1777578540459,0.241,1.318,-0.625,2.501,-0.521,0.277,116.708,3.921,1.479,2.570,4,4,3.932
1777578540473,0.070,1.249,-0.695,2.501,-0.579,0.162,116.782,3.711,1.431,2.573,4,4,3.275
1777578540487,0.090,1.212,-0.696,2.501,-0.620,0.253,116.878,3.481,1.401,2.589,4,4,3.260
1777578540500,0.227,0.878,-0.693,2.501,-0.784,0.242,117.233,3.015,1.142,2.633,4,4,3.277
1777578540513,0.193,1.047,-0.552,2.501,-0.909,0.017,117.251,2.634,1.200,2.661,4,4,3.259
1777578540527,0.158,0.550,-0.398,2.501,-1.007,-0.122,117.519,2.143,0.697,2.699,4,4,3.930
1777578540541,0.155,0.797,-0.308,2.501,-1.143,-0.438,117.321,1.757,0.868,2.785,4,4,3.271
1777578540554,-0.106,0.035,-0.088,2.501,-1.090,-0.626,118.604,3.207,0.142,2.799,4,4,3.258
1777578540567,-0.512,-0.270,-0.281,1.921,-0.673,-0.711,110.674,4.751,0.643,2.156,4,4,3.288
1777578540581,-0.491,-0.757,-0.293,0.844,-0.262,-0.463,103.770,5.573,0.949,0.998,4,4,3.262
1777578540594,-0.398,-0.750,-0.140,-0.417,0.190,-0.146,97.409,6.257,0.860,0.481,4,4,3.982
1777578540608,-0.307,-0.139,-0.119,-1.297,0.557,0.160,90.312,7.905,0.357,1.420,4,4,3.268
1777578540622,-0.189,0.239,-0.094,-1.775,0.806,0.320,90.969,8.792,0.319,1.976,4,4,3.261
1777578540635,-0.064,0.428,-0.164,-1.988,0.946,0.348,91.592,8.765,0.463,2.229,4,4,3.288
1777578540649,-0.006,0.360,-0.223,-2.148,0.981,0.366,92.532,8.519,0.423,2.389,4,4,3.260
1777578540662,0.077,0.345,-0.282,-2.349,0.912,0.425,93.675,7.947,0.452,2.556,4,4,3.943
1777578540676,0.165,0.340,-0.299,-2.501,0.758,0.423,94.848,7.076,0.482,2.648,4,4,3.274
1777578540689,0.204,0.544,-0.281,-2.501,0.565,0.387,95.546,6.282,0.646,2.593,4,4,3.265
1777578540703,0.239,0.770,-0.328,-2.501,0.362,0.438,96.090,5.590,0.871,2.565,4,4,3.272
1777578540716,0.229,0.924,-0.448,-2.501,0.155,0.642,96.707,5.025,1.052,2.587,4,4,3.260
1777578540729,0.152,0.869,-0.515,-2.483,-0.030,0.817,97.453,4.603,1.022,2.614,5,5,3.939
1777578540744,0.009,0.917,-0.653,-2.420,-0.190,0.877,98.324,4.446,1.126,2.581,5,5,3.430
1777578540757,-0.202,0.988,-0.740,-2.365,-0.244,0.788,99.212,4.598,1.251,2.504,5,5,3.377
1777578540771,-0.371,1.063,-0.813,-2.287,-0.184,0.569,100.090,4.937,1.389,2.364,5,5,3.635
1777578540784,-0.497,1.133,-0.835,-2.178,-0.037,0.335,100.909,5.389,1.492,2.204,5,5,3.258
1777578540798,-0.548,1.158,-0.855,-2.068,0.168,0.145,101.704,5.870,1.541,2.079,5,5,3.913
1777578540812,-0.506,1.202,-0.854,-1.946,0.401,-0.006,102.440,6.277,1.559,1.987,5,5,3.256
1777578540825,-0.394,1.198,-0.871,-1.842,0.580,-0.062,103.174,6.545,1.532,1.932,5,5,3.328
1777578540839,-0.252,1.156,-0.868,-1.792,0.687,-0.040,103.912,6.649,1.468,1.920,5,5,3.261
1777578540852,-0.107,1.157,-0.843,-1.780,0.710,-0.023,104.602,6.575,1.436,1.917,5,5,3.248
1777578540866,-0.021,1.186,-0.840,-1.765,0.649,-0.040,105.247,6.396,1.453,1.881,5,5,3.947
1777578540880,-0.012,1.168,-0.845,-1.755,0.545,-0.015,105.889,6.211,1.442,1.837,5,5,3.263
1777578540893,-0.010,1.170,-0.846,-1.748,0.435,0.072,106.511,6.030,1.444,1.803,5,5,3.269
1777578540906,-0.049,1.178,-0.855,-1.726,0.323,0.168,107.117,5.903,1.457,1.764,5,5,3.269
1777578540922,-0.105,1.203,-0.877,-1.661,0.207,0.178,107.707,5.845,1.493,1.683,5,5,5.727
1777578540936,-0.176,1.229,-0.887,-1.561,0.146,0.074,108.271,5.869,1.526,1.569,1,1,4.003
1777578540950,-0.205,1.232,-0.922,-1.411,0.106,-0.080,108.848,5.923,1.552,1.417,1,1,3.267
1777578540963,-0.179,1.184,-0.932,-1.229,0.078,-0.221,109.451,5.949,1.518,1.251,1,1,3.286
1777578540976,-0.147,1.095,-0.969,-1.048,0.044,-0.321,110.137,5.943,1.470,1.097,1,1,3.271
1777578540990,-0.091,0.984,-0.976,-0.902,-0.014,-0.402,110.904,5.874,1.389,0.988,1,1,3.262
1777578541003,-0.092,0.920,-0.964,-0.743,-0.073,-0.419,111.695,5.814,1.336,0.856,1,1,3.933
1777578541018,-0.121,0.871,-0.974,-0.563,-0.103,-0.339,112.520,5.797,1.313,0.665,1,1,3.745
1777578541031,-0.144,0.793,-0.965,-0.391,-0.099,-0.228,113.393,5.822,1.258,0.463,1,1,3.263
1777578541045,-0.175,0.757,-0.957,-0.231,-0.085,-0.171,114.273,5.895,1.233,0.300,1,1,3.266
1777578541058,-0.210,0.726,-0.948,-0.072,-0.060,-0.176,115.153,6.022,1.212,0.200,1,1,3.275
1777578541071,-0.234,0.712,-0.944,0.084,-0.027,-0.214,116.018,6.183,1.205,0.231,1,1,3.958
1777578541088,-0.228,0.681,-0.938,0.245,-0.003,-0.244,116.890,6.338,1.181,0.346,1,1,5.551
1777578541101,-0.188,0.610,-0.914,0.300,-0.013,-0.252,117.805,6.444,1.115,0.392,1,1,3.302
1777578541114,-0.167,0.677,-0.873,0.340,-0.045,-0.225,118.565,6.511,1.117,0.410,1,1,3.261
1777578541128,-0.107,0.809,-0.855,0.428,-0.083,-0.169,119.126,6.470,1.182,0.467,1,1,3.270
1777578541141,-0.037,0.865,-0.824,0.528,-0.153,-0.116,119.577,6.323,1.196,0.562,1,1,3.920
1777578541156,0.076,0.858,-0.767,0.592,-0.255,-0.097,119.958,6.009,1.153,0.652,1,1,3.286
1777578541169,0.136,0.855,-0.711,0.578,-0.368,-0.100,120.263,5.605,1.121,0.693,1,1,3.264
1777578541183,0.951,4.000,1.666,0.964,-0.564,1.075,118.617,5.045,4.436,1.550,1,1,3.255
1777578541196,0.677,0.885,0.240,1.532,-0.848,0.138,117.254,3.753,1.140,1.756,1,1,3.266
1777578541209,0.012,1.111,-0.198,1.956,-0.850,-0.035,116.721,3.617,1.128,2.133,1,1,3.872
1777578541223,-0.396,1.005,-0.491,1.939,-0.326,-0.072,116.700,4.111,1.186,1.968,1,1,3.262
1777578541237,-0.385,0.875,-0.644,1.704,0.074,-0.090,117.001,4.590,1.153,1.708,1,1,3.251
1777578541252,0.031,-0.116,-0.975,0.856,0.090,-0.205,107.967,4.390,0.982,0.885,1,1,5.580
1777578541266,-0.112,0.758,-0.635,0.555,0.025,-0.339,108.652,4.454,0.995,0.651,1,1,3.265
1777578541279,-0.243,1.299,-0.168,0.278,-0.108,-0.252,108.301,4.643,1.332,0.391,1,1,4.038
1777578541294,-0.131,0.840,-0.571,0.149,-0.075,-0.148,108.796,4.727,1.024,0.223,1,1,3.299
1777578541307,-0.270,0.895,-0.521,0.117,-0.035,-0.026,109.151,5.034,1.070,0.125,1,1,3.265
1777578541322,-0.204,0.891,-0.537,0.099,0.023,0.092,109.522,5.223,1.060,0.137,1,1,4.530
1777578541335,-0.203,0.879,-0.525,0.070,0.068,0.173,109.874,5.410,1.044,0.198,1,1,3.260
1777578541352,-0.090,0.927,-0.496,0.068,0.073,0.194,110.132,5.394,1.055,0.218,1,1,7.220
1777578541366,0.007,0.924,-0.505,0.056,0.045,0.127,110.398,5.215,1.053,0.146,1,1,3.305
1777578541381,0.002,0.925,-0.514,0.054,0.018,0.060,110.667,5.048,1.058,0.082,1,1,5.399
1777578541395,-0.014,0.912,-0.510,0.038,-0.013,-0.006,110.932,4.915,1.045,0.041,1,1,3.264
1777578541408,-0.067,0.918,-0.514,0.031,-0.026,-0.028,111.191,4.875,1.054,0.049,1,1,3.255
1777578541423,-0.095,0.938,-0.512,0.022,-0.022,-0.019,111.423,4.883,1.072,0.036,1,1,5.119
1777578541437,-0.125,0.937,-0.517,0.017,-0.010,0.007,111.656,4.938,1.078,0.021,1,1,3.250
1777578541451,-0.142,0.947,-0.510,0.011,0.012,0.051,111.863,5.018,1.084,0.053,1,1,4.702
1777578541465,-0.135,0.954,-0.522,0.011,0.032,0.098,112.075,5.082,1.096,0.103,1,1,3.289
1777578541478,-0.109,0.939,-0.502,0.008,0.043,0.124,112.263,5.107,1.071,0.131,1,1,3.257
1777578541492,-0.081,0.930,-0.511,0.017,0.048,0.131,112.467,5.084,1.064,0.140,1,1,3.939
1777578541506,-0.071,0.941,-0.494,0.025,0.048,0.129,112.629,5.045,1.065,0.140,1,1,3.270
1777578541520,-0.031,0.924,-0.512,0.031,0.042,0.102,112.827,4.940,1.057,0.114,1,1,4.211
1777578541533,-0.030,0.918,-0.498,0.037,0.035,0.074,113.002,4.838,1.045,0.089,1,1,3.282
1777578541547,-0.014,0.924,-0.499,0.043,0.021,0.030,113.170,4.712,1.050,0.057,1,1,3.270
1777578541560,-0.010,0.911,-0.509,0.045,0.012,-0.006,113.357,4.582,1.044,0.046,1,1,3.944
1777578541574,0.000,0.906,-0.515,0.042,-0.002,-0.048,113.552,4.439,1.042,0.064,1,1,3.262
1777578541588,-0.019,0.903,-0.512,0.036,-0.014,-0.083,113.739,4.333,1.038,0.092,1,1,3.277
1777578541601,-0.083,0.926,-0.518,0.044,-0.026,-0.120,113.910,4.338,1.065,0.131,1,1,3.260
1777578541614,-0.057,0.894,-0.513,0.044,-0.046,-0.137,114.095,4.301,1.032,0.151,1,1,3.278
1777578541628,-0.090,0.922,-0.498,0.054,-0.064,-0.138,114.228,4.320,1.051,0.162,1,1,3.942
1777578541642,-0.066,0.915,-0.521,0.067,-0.085,-0.147,114.396,4.297,1.055,0.182,1,1,3.257
1777578541655,-0.072,0.935,-0.514,0.086,-0.105,-0.153,114.534,4.284,1.069,0.205,1,1,3.273
1777578541668,-0.047,0.932,-0.516,0.107,-0.127,-0.167,114.671,4.229,1.066,0.235,1,1,3.273
1777578541682,-0.082,0.927,-0.521,0.128,-0.135,-0.168,114.816,4.236,1.066,0.251,1,1,3.277
1777578541695,-0.098,0.938,-0.522,0.141,-0.131,-0.170,114.950,4.267,1.078,0.257,4,4,3.932
1777578541710,-0.156,0.914,-0.525,0.140,-0.109,-0.137,115.102,4.397,1.065,0.224,4,4,3.552
1777578541723,-0.203,0.930,-0.543,0.136,-0.079,-0.066,115.263,4.593,1.096,0.170,4,4,3.269
1777578541736,-0.188,0.942,-0.530,0.128,-0.041,-0.006,115.391,4.758,1.097,0.134,4,4,3.269
1777578541750,-0.121,0.919,-0.540,0.127,-0.017,0.041,115.549,4.811,1.073,0.135,4,4,3.288
1777578541763,-0.091,0.958,-0.546,0.122,-0.009,0.075,115.677,4.808,1.106,0.143,4,4,3.930
1777578541777,-0.048,0.990,-0.553,0.153,-0.018,0.043,115.786,4.733,1.135,0.160,4,4,3.264
1777578541794,-0.219,1.299,-0.566,0.294,0.003,0.125,115.716,4.859,1.433,0.319,4,4,3.277
1777578541809,-0.166,1.101,-0.559,0.513,0.069,0.244,115.753,4.946,1.246,0.572,4,4,5.552
1777578541823,-0.249,1.203,-0.597,0.564,0.113,0.343,115.773,5.118,1.366,0.670,4,4,3.279
1777578541836,-0.295,1.283,-0.574,0.672,0.161,0.339,115.721,5.327,1.436,0.770,4,4,3.995
1777578541850,-0.285,1.490,-0.583,0.869,0.228,0.269,115.585,5.476,1.625,0.938,4,4,3.261
1777578541864,-0.180,1.380,-0.545,1.062,0.251,0.282,115.460,5.521,1.494,1.128,4,4,3.266
1777578541878,-0.135,1.425,-0.552,1.243,0.253,0.276,115.327,5.506,1.535,1.299,4,4,3.278
1777578541893,-0.023,1.436,-0.508,1.491,0.220,0.256,115.144,5.362,1.523,1.529,4,4,5.121
1777578541906,-0.022,1.527,-0.501,1.718,0.180,0.208,114.927,5.219,1.607,1.740,4,4,3.865
1777578541920,0.097,1.622,-0.477,2.011,0.143,0.135,114.662,4.954,1.694,2.021,4,4,3.265
1777578541934,0.242,1.741,-0.451,2.332,0.077,0.026,114.346,4.562,1.815,2.334,4,4,3.244
1777578541947,0.239,1.978,-0.459,2.501,-0.020,-0.089,113.995,4.211,2.044,2.503,4,4,3.252
1777578541960,0.266,2.182,-0.465,2.501,-0.079,-0.248,113.622,3.869,2.247,2.515,4,4,3.241
1777578541976,0.077,2.312,-0.617,2.501,-0.136,-0.311,113.352,3.691,2.394,2.524,4,4,6.030
1777578541990,0.213,2.246,-0.531,2.501,-0.127,-0.290,113.040,3.412,2.317,2.521,4,4,3.429
1777578542003,-0.070,2.073,-0.740,2.501,-0.155,-0.394,112.934,3.362,2.202,2.537,4,4,3.296
1777578542017,-0.049,1.960,-0.837,2.501,-0.020,-0.256,112.940,3.298,2.132,2.514,4,4,3.295
1777578542030,0.132,1.937,-0.543,2.501,-0.073,0.230,112.713,3.079,2.015,2.513,4,4,3.257
1777578542044,-0.075,2.414,-0.172,2.501,-0.147,0.537,112.133,3.038,2.422,2.563,4,4,3.955
1777578542058,1.237,-2.986,1.968,2.501,-0.489,0.203,106.880,2.350,3.784,2.557,4,4,3.272
1777578542073,0.023,-0.405,-0.733,0.957,-0.536,0.431,98.850,2.227,0.838,1.178,4,4,4.682
1777578542086,-0.150,-0.496,0.176,-0.501,-0.276,0.255,93.581,2.653,0.547,0.626,4,4,3.304
1777578542100,-0.232,0.652,0.136,-1.068,-0.105,0.050,93.102,3.167,0.705,1.074,4,4,3.255
1777578542114,-0.345,0.717,0.134,-1.126,0.166,-0.043,92.677,3.856,0.807,1.139,4,4,3.952
1777578542128,-0.225,0.288,0.177,-1.336,0.323,-0.063,91.610,4.785,0.406,1.376,4,4,3.274
1777578542142,-0.160,0.082,0.211,-1.755,0.378,-0.016,89.416,5.736,0.277,1.795,4,4,3.303
1777578542155,-0.040,0.073,0.289,-2.283,0.313,0.080,87.077,5.794,0.301,2.306,4,4,3.270
1777578542168,0.017,0.313,0.329,-2.501,0.160,0.178,85.725,5.547,0.454,2.513,4,4,3.253
1777578542182,0.037,0.481,0.273,-2.501,-0.023,0.300,84.938,5.255,0.554,2.519,4,4,4.014
1777578542196,0.021,0.592,0.155,-2.501,-0.203,0.469,84.638,5.029,0.612,2.553,4,4,3.251
1777578542212,-0.044,0.665,-0.000,-2.501,-0.338,0.674,84.806,4.991,0.667,2.613,4,4,6.471
1777578542226,-0.084,0.873,-0.169,-2.501,-0.475,0.651,85.308,5.003,0.893,2.628,4,4,3.268
1777578542239,-0.124,1.068,-0.304,-2.501,-0.569,0.488,85.949,5.045,1.118,2.611,4,4,3.271
1777578542253,-0.188,1.137,-0.461,-2.501,-0.632,0.364,86.763,5.159,1.241,2.606,5,5,3.942
1777578542267,-0.310,1.226,-0.625,-2.501,-0.594,0.354,87.705,5.394,1.410,2.595,5,5,3.259
1777578542281,-0.494,1.383,-0.772,-2.501,-0.398,0.357,88.684,5.765,1.660,2.558,5,5,3.293
1777578542295,-0.637,1.530,-0.886,-2.501,-0.075,0.204,89.661,6.203,1.879,2.511,5,5,3.243
1777578542308,-0.669,1.667,-1.011,-2.501,0.324,-0.050,90.644,6.600,2.062,2.523,5,5,3.273
1777578542322,-0.555,1.680,-1.173,-2.501,0.701,-0.171,91.711,6.866,2.123,2.603,5,5,3.922
1777578542336,-0.362,1.641,-1.363,-2.501,0.965,-0.161,92.893,6.952,2.164,2.686,5,5,3.266
1777578542349,-0.103,1.694,-1.565,-2.501,1.009,-0.201,94.133,6.815,2.309,2.705,5,5,3.266
1777578542362,0.119,1.684,-1.709,-2.501,0.839,-0.326,95.419,6.514,2.402,2.658,5,5,3.243
1777578542377,0.211,1.537,-1.812,-2.463,0.565,-0.411,96.797,6.153,2.386,2.561,5,5,4.393
1777578542390,0.140,1.435,-1.922,-2.094,0.310,-0.244,98.244,5.857,2.403,2.130,1,1,3.858
1777578542404,0.100,1.260,-2.000,-1.672,0.107,-0.018,99.785,5.600,2.366,1.676,1,1,3.258
1777578542418,0.164,1.113,-2.013,-1.234,-0.069,-0.000,101.381,5.299,2.306,1.236,1,1,3.257
1777578542433,0.184,0.812,-2.061,-0.813,-0.260,0.042,103.159,4.986,2.223,0.854,1,1,5.234
1777578542446,-0.049,0.622,-2.081,-0.399,-0.374,0.301,105.032,4.871,2.173,0.624,1,1,3.261
1777578542460,-0.234,0.615,-2.007,-0.007,-0.347,0.370,106.836,4.918,2.112,0.508,1,1,3.850
1777578542474,-0.321,0.726,-1.850,0.438,-0.251,0.114,108.446,5.050,2.013,0.517,1,1,3.290
1777578542487,-0.315,0.864,-1.697,0.861,-0.143,-0.233,109.834,5.185,1.930,0.904,1,1,3.397
1777578542502,2.560,4.000,-1.066,2.501,-0.587,0.216,109.681,4.036,4.867,2.578,1,1,3.332
1777578542515,0.012,1.664,0.129,2.501,-0.377,-0.171,108.930,3.898,1.669,2.535,1,1,3.295
1777578542529,-0.313,1.068,-0.249,2.501,-0.534,-0.208,108.749,4.273,1.140,2.566,5,5,4.025
1777578542543,-0.176,0.716,-0.589,2.260,-0.223,-0.305,109.394,4.473,0.944,2.291,5,5,3.270
1777578542556,-0.549,0.838,-0.604,1.893,0.196,-0.215,109.904,5.206,1.169,1.915,5,5,3.256
1777578542569,-0.089,0.160,-1.574,1.395,0.342,-0.228,111.905,5.145,1.585,1.454,5,5,3.339
1777578542583,0.273,0.659,-0.714,0.773,-0.058,-0.385,112.696,4.496,1.009,0.865,5,5,3.278
1777578542596,-0.205,0.799,-0.504,0.437,-0.199,-0.254,112.993,4.737,0.966,0.543,1,1,3.965
1777578542610,-0.133,0.845,-0.539,0.224,-0.119,-0.152,113.290,4.826,1.011,0.296,1,1,3.271
1777578542624,-0.352,0.824,-0.577,0.224,-0.056,-0.011,113.655,5.276,1.066,0.231,1,1,3.324
1777578542637,-0.303,0.881,-0.564,0.105,0.058,0.164,113.934,5.615,1.089,0.204,1,1,3.301
1777578542651,-0.172,0.949,-0.541,0.096,0.114,0.232,114.113,5.718,1.106,0.276,1,1,3.253
1777578542664,-0.049,1.003,-0.515,0.095,0.117,0.217,114.209,5.618,1.128,0.264,1,1,3.981
1777578542678,-0.019,0.908,-0.539,0.085,0.096,0.163,114.411,5.474,1.056,0.207,1,1,3.264
1777578542691,-0.015,0.892,-0.535,0.071,0.074,0.100,114.615,5.329,1.041,0.143,1,1,3.261
1777578542705,-0.002,0.916,-0.515,0.058,0.050,0.064,114.762,5.167,1.051,0.100,1,1,3.274
1777578542718,-0.070,0.918,-0.538,0.051,0.024,0.026,114.936,5.123,1.066,0.062,1,1,3.253
1777578542731,-0.100,0.914,-0.528,0.045,0.024,0.039,115.094,5.132,1.061,0.064,1,1,3.953
1777578542746,-0.114,0.912,-0.530,0.035,0.030,0.055,115.252,5.165,1.060,0.072,1,1,3.259
1777578542759,-0.126,0.916,-0.530,0.029,0.046,0.077,115.401,5.215,1.066,0.094,1,1,3.281
1777578542772,-0.101,0.926,-0.521,0.028,0.050,0.085,115.524,5.222,1.067,0.103,1,1,3.279
1777578542786,-0.071,0.907,-0.529,0.024,0.048,0.081,115.671,5.179,1.053,0.097,1,1,3.283
1777578542799,-0.057,0.910,-0.521,0.020,0.041,0.074,115.799,5.115,1.050,0.087,1,1,3.973
1777578542813,-0.085,0.906,-0.518,0.020,0.038,0.070,115.922,5.101,1.048,0.082,1,1,3.266
1777578542827,-0.065,0.887,-0.525,0.014,0.037,0.070,116.068,5.054,1.033,0.080,1,1,3.755
1777578542841,-0.050,0.915,-0.512,0.014,0.028,0.056,116.168,4.981,1.050,0.064,1,1,3.369
1777578542854,-0.079,0.930,-0.509,0.020,0.022,0.050,116.245,4.959,1.063,0.058,1,1,3.266
1777578542869,-0.077,0.915,-0.527,0.022,0.016,0.034,116.361,4.934,1.059,0.044,1,1,5.207
1777578542883,-0.048,0.931,-0.521,0.037,0.003,0.017,116.450,4.860,1.068,0.041,1,1,3.264
1777578542896,-0.036,0.890,-0.543,0.029,-0.012,-0.006,116.603,4.770,1.044,0.032,1,1,3.253
1777578542909,-0.029,0.906,-0.520,0.030,-0.028,-0.027,116.705,4.672,1.045,0.049,1,1,3.253
1777578542923,-0.064,0.916,-0.525,0.034,-0.038,-0.033,116.801,4.634,1.058,0.061,1,1,3.248
1777578542936,-0.031,0.951,-0.511,0.057,-0.052,-0.042,116.847,4.540,1.081,0.088,1,1,3.852
1777578542950,-0.094,0.922,-0.535,0.063,-0.060,-0.001,116.949,4.556,1.070,0.087,1,1,3.249
1777578542963,-0.085,0.943,-0.531,0.083,-0.068,0.023,117.026,4.554,1.085,0.110,1,1,3.257
1777578542977,-0.070,0.957,-0.538,0.111,-0.070,0.044,117.097,4.525,1.100,0.139,1,1,3.247
1777578542990,-0.105,1.025,-0.528,0.167,-0.062,0.004,117.102,4.546,1.158,0.178,1,1,3.257
1777578543003,-0.031,0.962,-0.534,0.201,-0.052,-0.038,117.163,4.455,1.101,0.211,1,1,6.772
1777578543020,-0.126,0.914,-0.560,0.219,-0.032,-0.009,117.297,4.525,1.079,0.221,1,1,3.271
1777578543034,-0.126,0.941,-0.562,0.226,-0.010,0.016,117.407,4.588,1.103,0.226,1,1,3.294
1777578543047,-0.137,0.945,-0.566,0.239,0.009,0.063,117.517,4.667,1.110,0.247,1,1,3.260
1777578543062,-0.200,1.010,-0.562,0.260,0.040,0.137,117.565,4.827,1.173,0.297,1,1,4.438
1777578543075,-0.120,1.082,-0.561,0.321,0.063,0.185,117.560,4.852,1.224,0.376,4,4,3.923
1777578543090,-0.135,1.240,-0.562,0.432,0.093,0.234,117.462,4.876,1.368,0.500,4,4,4.041
1777578543103,-0.099,1.478,-0.580,0.635,0.125,0.225,117.274,4.835,1.590,0.685,4,4,3.312
1777578543117,-0.046,1.505,-0.564,0.850,0.125,0.151,117.065,4.736,1.608,0.872,4,4,3.258
1777578543130,-0.106,1.581,-0.560,1.100,0.142,0.101,116.829,4.700,1.681,1.114,4,4,3.354
1777578543144,-0.129,1.505,-0.540,1.300,0.146,0.133,116.608,4.698,1.604,1.315,4,4,3.920
1777578543159,-0.190,1.631,-0.543,1.580,0.144,0.144,116.353,4.748,1.730,1.593,4,4,4.556
1777578543172,-0.123,1.747,-0.487,1.906,0.132,0.167,116.018,4.721,1.818,1.918,4,4,3.287
1777578543186,-0.053,1.821,-0.405,2.271,0.116,0.120,115.598,4.625,1.866,2.277,4,4,3.256
1777578543199,0.081,1.881,-0.367,2.501,0.080,0.044,115.144,4.405,1.918,2.503,4,4,3.273
1777578543212,0.057,2.009,-0.365,2.501,0.060,-0.030,114.682,4.218,2.043,2.502,4,4,3.923
1777578543226,-0.264,2.150,-0.540,2.501,0.124,-0.033,114.353,4.298,2.233,2.505,4,4,3.310
1777578543240,-0.156,2.249,-0.682,2.501,0.236,-0.146,114.120,4.282,2.355,2.517,4,4,3.264
1777578543253,0.007,2.099,-0.750,2.501,0.278,0.124,113.981,4.144,2.229,2.520,4,4,3.276
1777578543267,-0.404,1.907,-0.879,2.501,0.324,0.015,114.005,4.354,2.138,2.522,4,4,3.264
1777578543280,-0.062,2.090,-0.748,2.501,0.323,-0.083,113.871,4.268,2.221,2.523,4,4,3.931
1777578543297,-0.328,2.694,0.030,2.501,0.329,0.042,113.108,4.351,2.714,2.523,4,4,3.272
1777578543311,1.994,-3.958,2.389,2.334,-0.487,0.216,107.754,3.490,5.035,2.394,4,4,3.262
1777578543327,0.465,0.719,-0.896,0.567,-0.815,0.952,108.797,2.695,1.239,1.375,4,4,6.021
1777578543340,0.335,0.613,0.354,-0.098,-0.925,0.890,107.277,1.823,0.783,1.288,4,4,3.262
1777578543354,-0.121,1.104,0.043,-0.285,-0.933,0.586,106.669,1.961,1.112,1.138,4,4,6.459
1777578543370,-0.347,0.615,0.037,-0.310,-0.690,0.250,106.042,2.816,0.708,0.796,4,4,3.269
1777578543383,-0.437,0.236,0.026,-0.671,-0.438,-0.007,105.345,4.640,0.497,0.801,4,4,3.270
1777578543397,-0.458,0.132,0.027,-1.125,-0.170,-0.187,104.513,6.786,0.477,1.153,4,4,3.252
1777578543410,-0.297,0.031,0.105,-1.682,-0.007,-0.329,101.778,8.743,0.317,1.714,4,4,3.256
1777578543425,-0.171,0.178,0.121,-2.197,0.068,-0.312,100.344,9.667,0.275,2.220,4,4,4.985
1777578543439,-0.092,0.353,0.049,-2.501,0.082,-0.159,99.778,9.817,0.368,2.508,4,4,3.253
1777578543453,-0.055,0.485,-0.101,-2.501,0.071,-0.050,99.839,9.710,0.498,2.503,4,4,3.746
1777578543466,-0.066,0.635,-0.244,-2.501,0.061,-0.045,100.186,9.581,0.684,2.503,4,4,3.253
1777578543481,-0.063,0.743,-0.376,-2.501,0.048,-0.101,100.704,9.417,0.836,2.504,4,4,5.252
1777578543495,-0.035,0.840,-0.471,-2.501,0.016,-0.153,101.283,9.189,0.964,2.506,4,4,3.899
1777578543509,0.009,0.886,-0.539,-2.501,-0.024,-0.119,101.906,8.887,1.037,2.504,4,4,3.253
1777578543523,-0.018,0.959,-0.566,-2.501,-0.074,0.008,102.486,8.639,1.114,2.502,4,4,3.277
1777578543536,-0.058,1.090,-0.623,-2.501,-0.098,0.083,103.024,8.453,1.257,2.505,4,4,3.358
1777578543550,-0.136,1.188,-0.692,-2.501,-0.074,-0.018,103.560,8.365,1.382,2.503,4,4,3.977
1777578543564,-0.168,1.283,-0.737,-2.501,-0.012,-0.181,104.067,8.306,1.489,2.508,5,5,3.896
1777578543578,-0.130,1.322,-0.779,-2.501,0.052,-0.324,104.579,8.198,1.540,2.523,5,5,4.021
1777578543592,-0.079,1.301,-0.811,-2.501,0.094,-0.369,105.119,8.034,1.535,2.530,5,5,3.283
1777578543605,-0.008,1.377,-0.843,-2.501,0.109,-0.368,105.628,7.793,1.615,2.531,5,5,3.256
1777578543620,0.045,1.410,-0.979,-2.501,0.111,-0.287,106.224,7.504,1.717,2.520,5,5,4.548
1777578543633,0.098,1.406,-1.154,-2.501,0.092,-0.105,106.944,7.174,1.822,2.505,5,5,3.888
1777578543647,0.052,1.510,-1.411,-2.501,0.111,0.106,107.757,6.906,2.068,2.506,5,5,3.590
1777578543661,0.015,1.546,-1.687,-2.462,0.138,0.260,108.683,6.679,2.288,2.479,5,5,3.254
1777578543674,-0.040,1.397,-1.933,-2.340,0.159,0.338,109.787,6.501,2.385,2.369,5,5,3.248
1777578543688,-0.129,1.266,-2.142,-2.129,0.188,0.333,111.020,6.391,2.491,2.163,5,5,3.271
1777578543701,-0.199,1.052,-2.324,-1.819,0.261,0.230,112.409,6.331,2.559,1.852,1,1,3.929
1777578543715,-0.175,0.759,-2.485,-1.471,0.365,-0.040,113.984,6.254,2.604,1.516,1,1,3.274
1777578543728,0.088,0.646,-2.529,-1.074,0.390,-0.326,115.593,5.999,2.612,1.188,1,1,3.270
1777578543742,0.264,0.478,-2.692,-0.644,0.322,-0.226,117.284,5.641,2.747,0.755,1,1,3.280
1777578543755,0.379,0.400,-2.721,-0.209,0.190,0.122,118.976,5.221,2.776,0.308,1,1,3.265
1777578543768,-2.525,4.000,-2.947,2.501,0.780,-0.243,119.207,5.897,5.573,2.631,5,5,3.920
1777578543782,-0.836,0.485,-2.119,2.501,0.514,-0.284,120.698,6.369,2.329,2.569,5,5,3.274
1777578543796,0.043,0.809,-0.239,2.501,0.375,-0.183,120.254,6.080,0.845,2.536,5,5,3.265
1777578543809,-0.408,1.128,-0.170,2.501,0.194,-0.042,119.578,6.504,1.212,2.509,5,5,3.265
1777578543823,0.089,0.774,-0.774,2.501,0.291,-0.073,120.059,6.157,1.098,2.519,5,5,3.268
1777578543836,0.649,0.650,-0.813,1.586,-0.108,-0.373,120.722,4.970,1.227,1.633,1,1,3.928
1777578543850,0.052,1.272,-0.256,0.804,-0.423,-0.561,120.120,4.745,1.299,1.068,1,1,3.280
1777578543863,-0.420,1.064,-0.579,0.331,-0.202,-0.224,120.070,5.192,1.282,0.448,1,1,3.265
1777578543879,-0.545,0.699,-0.711,0.090,0.097,0.254,120.549,5.922,1.136,0.286,1,1,5.519
1777578543892,-0.160,0.971,-0.522,0.075,0.161,0.277,120.478,5.995,1.114,0.329,1,1,3.318
1777578543906,-0.117,0.937,-0.548,0.047,0.203,0.290,120.474,6.000,1.092,0.357,1,1,3.855
1777578543920,0.098,0.947,-0.490,0.047,0.149,0.170,120.378,5.651,1.070,0.231,1,1,3.278
1777578543933,-0.167,0.805,-0.588,0.037,0.130,0.162,120.557,5.771,1.011,0.211,1,1,3.253
1777578543947,-0.033,0.898,-0.513,0.044,0.102,0.158,120.532,5.649,1.035,0.193,1,1,3.257
1777578543960,-0.069,0.931,-0.518,0.044,0.079,0.140,120.487,5.589,1.068,0.167,1,1,3.250
1777578543974,-0.105,0.901,-0.543,0.037,0.078,0.136,120.506,5.593,1.057,0.161,1,1,4.641
1777578543988,-0.067,0.868,-0.557,0.027,0.076,0.121,120.573,5.535,1.033,0.146,1,1,3.255
1777578544002,-0.107,0.899,-0.523,0.020,0.085,0.130,120.561,5.545,1.046,0.157,1,1,3.259
1777578544016,-0.052,0.874,-0.509,-0.012,0.088,0.120,120.550,5.463,1.013,0.149,1,1,4.624
1777578544030,-0.135,0.924,-0.533,0.005,0.072,0.141,120.533,5.517,1.075,0.159,1,1,3.263
1777578544044,-0.059,0.958,-0.529,0.019,0.054,0.150,120.483,5.442,1.096,0.161,1,1,4.810
1777578544058,-0.090,0.989,-0.532,0.053,0.034,0.176,120.413,5.415,1.127,0.187,1,1,3.336
1777578544072,-0.109,0.967,-0.539,0.075,0.035,0.242,120.373,5.422,1.112,0.256,1,1,3.524
1777578544086,-0.113,1.277,-0.479,0.259,0.044,0.267,120.068,5.400,1.369,0.375,1,1,3.270
1777578544099,-0.031,1.000,-0.529,0.306,0.019,0.181,120.001,5.281,1.131,0.356,1,1,3.263
1777578544114,-0.042,0.922,-0.562,0.328,0.007,0.160,120.043,5.186,1.081,0.365,1,1,5.326
1777578544128,-0.015,0.918,-0.539,0.349,-0.006,0.158,120.054,5.050,1.065,0.383,1,1,3.263
1777578544142,-0.006,1.047,-0.554,0.395,-0.013,0.136,119.987,4.901,1.185,0.418,1,1,3.922
1777578544155,0.044,1.047,-0.562,0.477,-0.033,0.084,119.932,4.682,1.190,0.486,1,1,3.264
1777578544169,-0.031,1.073,-0.577,0.541,-0.034,-0.014,119.880,4.582,1.219,0.542,1,1,3.271
1777578544182,-0.031,1.100,-0.590,0.620,-0.034,-0.072,119.829,4.484,1.248,0.625,1,1,3.954
1777578544196,-0.041,1.106,-0.594,0.691,-0.019,-0.093,119.779,4.402,1.256,0.698,1,1,3.278
1777578544210,-0.040,1.176,-0.588,0.785,-0.007,-0.095,119.679,4.319,1.316,0.791,1,1,3.279
1777578544223,-0.045,1.146,-0.600,0.898,-0.016,-0.085,119.615,4.246,1.294,0.903,1,1,3.265
1777578544238,-0.188,1.045,-0.602,0.970,0.024,-0.051,119.625,4.390,1.220,0.971,1,1,5.305
1777578544252,-0.195,1.066,-0.631,1.047,0.062,0.018,119.656,4.532,1.254,1.049,1,1,3.993
1777578544266,-0.047,1.274,-0.635,1.187,0.055,0.036,119.558,4.450,1.424,1.188,1,1,3.255
1777578544280,-0.000,1.313,-0.616,1.372,0.033,0.038,119.420,4.312,1.451,1.373,1,1,3.281
1777578544293,-0.064,1.309,-0.620,1.559,0.029,0.051,119.292,4.257,1.450,1.560,1,1,3.259
1777578544307,-0.102,1.369,-0.603,1.762,0.032,0.077,119.121,4.246,1.499,1.764,1,1,3.303
1777578544320,-0.119,1.538,-0.541,2.040,0.070,0.089,118.817,4.244,1.635,2.043,4,4,3.922
1777578544334,-0.229,1.445,-0.529,2.349,0.154,0.226,118.546,4.375,1.556,2.364,4,4,3.257
1777578544348,-0.619,2.026,-0.576,2.501,0.306,0.450,118.151,4.749,2.196,2.560,4,4,3.276
1777578544361,-0.932,2.403,-0.747,2.501,0.535,0.596,117.812,5.234,2.684,2.626,4,4,3.261
1777578544375,-0.910,2.712,-0.958,2.501,0.936,0.828,117.552,5.617,3.017,2.796,4,4,4.118
1777578544392,-0.840,2.264,-1.129,2.501,1.260,1.526,117.519,6.014,2.666,3.190,4,4,6.347
1777578544408,-0.126,2.824,-1.297,2.501,1.169,1.349,117.430,5.899,3.110,3.073,4,4,4.994
1777578544421,0.206,2.540,-0.353,2.501,1.081,1.965,116.822,5.572,2.572,3.360,4,4,3.265
1777578544437,0.715,2.644,0.478,2.501,0.545,2.501,115.668,4.935,2.780,3.579,4,4,5.529
1777578544450,1.151,-4.000,1.369,1.842,-0.313,1.818,109.855,4.307,4.382,2.607,4,4,3.317
1777578544463,0.370,0.549,-0.442,-0.490,-0.470,0.283,110.446,3.310,0.796,0.736,4,4,3.915
1777578544477,0.184,1.020,0.304,-1.055,-0.481,-0.911,109.292,2.902,1.080,1.475,4,4,3.287
1777578544491,-0.033,1.071,0.121,-1.073,-0.656,-1.040,108.491,2.866,1.078,1.632,4,4,3.260
1777578544504,-0.044,0.907,0.090,-1.036,-0.719,-0.754,107.740,2.863,0.913,1.470,4,4,3.259
1777578544517,0.064,0.371,0.175,-1.252,-0.810,-0.497,106.401,2.498,0.416,1.571,4,4,3.253
1777578544531,0.013,0.264,0.225,-1.656,-0.894,-0.431,104.631,2.355,0.347,1.931,4,4,3.879
1777578544545,-0.120,0.243,0.244,-2.137,-0.903,-0.535,102.771,2.881,0.365,2.381,4,4,3.260
1777578544558,-0.179,0.200,0.266,-2.501,-0.832,-0.632,100.721,3.671,0.378,2.711,4,4,3.253
1777578544571,-0.215,0.421,0.218,-2.501,-0.694,-0.669,99.536,4.317,0.521,2.681,4,4,3.262
1777578544585,-0.193,0.697,0.088,-2.501,-0.546,-0.635,99.015,4.660,0.729,2.638,4,4,3.261
1777578544598,-0.133,0.868,-0.028,-2.501,-0.407,-0.566,98.791,4.785,0.879,2.597,4,4,3.908
1777578544612,-0.115,0.978,-0.174,-2.501,-0.276,-0.468,98.831,4.842,1.000,2.560,4,4,3.257
1777578544626,-0.084,1.003,-0.291,-2.501,-0.158,-0.417,99.059,4.834,1.048,2.541,4,4,3.258
1777578544639,-0.063,1.050,-0.384,-2.501,-0.061,-0.403,99.402,4.783,1.120,2.534,4,4,3.255
1777578544652,-0.045,1.125,-0.476,-2.501,0.030,-0.377,99.823,4.700,1.222,2.530,4,4,3.253
1777578544666,-0.059,1.328,-0.589,-2.501,0.115,-0.357,100.261,4.627,1.454,2.529,5,5,3.900
1777578544680,-0.037,1.537,-0.708,-2.501,0.206,-0.397,100.711,4.522,1.693,2.541,5,5,3.277
1777578544693,-0.022,1.671,-0.835,-2.501,0.259,-0.466,101.204,4.402,1.869,2.558,5,5,3.254
1777578544706,-0.015,1.729,-0.989,-2.501,0.290,-0.536,101.782,4.278,1.992,2.574,5,5,3.284
1777578544720,-0.024,1.853,-1.233,-2.501,0.300,-0.485,102.462,4.164,2.226,2.565,5,5,3.258
1777578544733,0.029,2.004,-1.562,-2.501,0.267,-0.320,103.255,4.014,2.541,2.536,5,5,3.926
1777578544747,0.101,1.954,-1.886,-2.501,0.153,-0.206,104.212,3.823,2.718,2.515,5,5,3.280
1777578544760,0.092,1.792,-2.137,-2.501,0.050,-0.257,105.326,3.645,2.790,2.515,5,5,3.272
1777578544774,0.201,1.679,-2.298,-2.501,-0.037,-0.459,106.525,3.406,2.853,2.543,5,5,3.266
1777578544787,0.509,1.585,-2.473,-2.005,-0.157,-0.616,107.796,2.994,2.981,2.103,5,5,3.256
1777578544801,0.758,1.370,-2.765,-1.358,-0.387,-0.292,109.223,2.471,3.178,1.442,1,1,3.990
1777578544815,0.554,0.950,-2.989,-0.724,-0.627,0.792,110.877,2.083,3.185,1.243,1,1,3.259
1777578544828,0.119,0.612,-3.039,-0.201,-0.774,1.544,112.674,1.949,3.102,1.738,1,1,3.260
1777578544841,-0.357,0.462,-3.012,0.277,-0.833,1.215,114.498,2.097,3.068,1.499,1,1,3.262
1777578544855,-0.421,0.507,-2.905,0.740,-0.807,0.280,116.229,2.284,2.979,1.130,1,1,3.367
1777578544868,1.119,4.000,-3.207,2.501,-1.473,-1.862,116.618,1.829,5.248,3.448,5,5,3.914
1777578544882,-0.406,1.169,0.429,2.501,-0.261,-0.517,115.162,2.334,1.310,2.567,5,5,3.256
1777578544896,-0.559,1.576,0.481,2.501,-0.093,-0.400,113.850,2.845,1.740,2.535,5,5,3.288
1777578544909,-0.088,0.705,-0.392,2.501,0.182,-0.477,114.012,2.950,0.812,2.553,5,5,3.320
1777578544922,-0.493,0.644,-0.663,2.501,0.494,-0.137,114.691,3.733,1.048,2.553,5,5,3.254
1777578544936,-0.116,0.688,-1.081,2.265,0.362,-0.065,115.712,3.778,1.287,2.295,1,1,3.929
1777578544950,0.242,0.644,-0.896,1.317,0.093,-0.142,116.603,3.275,1.130,1.328,1,1,3.263
1777578544963,0.225,-0.518,-1.787,0.526,-0.193,-0.191,107.873,2.959,1.874,0.591,1,1,3.259
1777578544977,-0.340,0.394,-0.912,0.297,-0.035,-0.046,109.391,3.456,1.050,0.302,1,1,3.279
1777578544990,-0.440,0.945,-0.550,0.229,0.092,0.206,109.727,4.031,1.179,0.321,1,1,3.247
1777578545003,-0.114,0.850,-0.587,0.150,0.165,0.242,110.191,4.100,1.039,0.329,1,1,3.865
1777578545017,0.043,0.935,-0.553,0.150,0.117,0.141,110.515,3.902,1.087,0.236,1,1,3.252
1777578545031,0.031,0.931,-0.521,0.155,0.055,0.062,110.786,3.727,1.068,0.176,1,1,3.277
1777578545044,-0.064,0.891,-0.518,0.143,0.005,0.042,111.077,3.722,1.033,0.149,1,1,3.258
1777578545057,-0.124,0.857,-0.544,0.113,0.001,0.035,111.431,3.822,1.023,0.118,1,1,3.260
1777578545071,-0.120,0.865,-0.538,0.092,0.011,0.046,111.756,3.912,1.026,0.103,1,1,3.854
1777578545085,-0.181,0.869,-0.554,0.069,0.049,0.079,112.090,4.100,1.046,0.116,1,1,3.252
1777578545099,-0.063,0.842,-0.557,0.038,0.074,0.082,112.445,4.084,1.012,0.117,1,1,3.324
1777578545113,-0.062,0.839,-0.541,0.014,0.071,0.075,112.767,4.068,1.000,0.104,1,1,3.267
1777578545126,-0.110,0.940,-0.522,0.025,0.053,0.079,112.963,4.123,1.081,0.099,1,1,3.284
1777578545139,-0.083,0.917,-0.531,0.020,0.043,0.089,113.184,4.135,1.063,0.101,1,1,3.904
1777578545153,-0.014,0.967,-0.526,0.053,0.016,0.051,113.351,4.028,1.101,0.075,1,1,3.252
1777578545167,-0.051,0.930,-0.533,0.054,-0.010,0.056,113.552,3.988,1.073,0.079,1,1,3.270
1777578545180,-0.016,1.004,-0.529,0.109,-0.029,0.024,113.683,3.889,1.135,0.115,1,1,3.248
1777578545194,-0.104,1.023,-0.603,0.173,-0.035,0.014,113.896,3.924,1.192,0.177,1,1,3.264
1777578545207,-0.036,0.890,-0.539,0.221,-0.038,0.024,114.123,3.863,1.041,0.225,1,1,3.892
1777578545221,-0.074,0.917,-0.527,0.230,-0.043,0.019,114.302,3.868,1.061,0.235,1,1,3.259
1777578545234,-0.063,0.909,-0.541,0.228,-0.042,0.035,114.503,3.854,1.060,0.234,1,1,3.263
1777578545248,-0.093,0.919,-0.561,0.234,-0.039,0.068,114.718,3.888,1.081,0.246,1,1,3.281
1777578545261,-0.068,0.968,-0.570,0.259,-0.035,0.079,114.897,3.874,1.126,0.273,1,1,3.278
1777578545275,-0.071,1.002,-0.569,0.291,-0.027,0.120,115.044,3.864,1.154,0.316,1,1,3.950
1777578545289,-0.157,0.996,-0.575,0.353,0.000,0.125,115.198,3.986,1.161,0.374,1,1,3.258
1777578545302,-0.171,1.018,-0.577,0.403,0.031,0.124,115.333,4.121,1.182,0.423,1,1,3.265
1777578545315,-0.133,0.991,-0.584,0.447,0.067,0.138,115.494,4.198,1.158,0.473,1,1,3.260
1777578545329,-0.136,0.977,-0.592,0.483,0.092,0.156,115.671,4.279,1.151,0.516,1,1,3.274
1777578545342,-0.143,0.913,-0.617,0.506,0.115,0.168,115.932,4.376,1.111,0.546,1,1,3.900
1777578545356,-0.108,0.964,-0.620,0.529,0.127,0.178,116.144,4.408,1.151,0.572,1,1,3.258
1777578545369,-0.065,1.066,-0.603,0.593,0.127,0.164,116.249,4.365,1.226,0.628,1,1,3.273
1777578545383,-0.068,1.120,-0.618,0.689,0.120,0.144,116.330,4.324,1.281,0.714,1,1,3.247
1777578545396,-0.064,1.111,-0.625,0.786,0.121,0.143,116.425,4.279,1.277,0.808,1,1,3.266
1777578545409,-0.090,1.145,-0.635,0.891,0.131,0.135,116.505,4.268,1.312,0.911,4,4,3.866
1777578545423,0.008,1.189,-0.651,1.020,0.117,0.131,116.573,4.124,1.356,1.035,4,4,3.268
1777578545437,0.061,1.238,-0.616,1.165,0.090,0.077,116.569,3.918,1.384,1.171,4,4,3.277
1777578545450,-0.017,1.299,-0.650,1.323,0.073,0.065,116.570,3.816,1.453,1.326,4,4,3.279
1777578545464,0.036,1.417,-0.643,1.547,0.077,0.025,116.502,3.656,1.557,1.550,4,4,3.270
1777578545477,0.069,1.550,-0.627,1.817,0.068,-0.001,116.362,3.469,1.673,1.818,4,4,3.963
1777578545491,0.021,1.895,-0.564,2.222,0.063,-0.016,116.057,3.342,1.977,2.223,4,4,3.282
1777578545505,-0.132,2.086,-0.593,2.501,0.057,-0.017,115.740,3.346,2.173,2.502,4,4,3.261
1777578545518,-0.307,2.391,-0.736,2.501,0.094,0.072,115.472,3.460,2.520,2.504,4,4,3.258
1777578545531,-0.307,2.352,-0.861,2.501,0.219,0.100,115.305,3.570,2.524,2.513,4,4,3.256
1777578545545,-0.122,2.054,-0.865,2.501,0.312,0.344,115.228,3.556,2.232,2.544,4,4,3.836
1777578545559,0.217,2.345,-1.091,2.501,0.183,0.219,115.219,3.296,2.595,2.518,4,4,3.273
1777578545572,0.294,2.343,-1.015,2.501,0.114,0.334,115.163,2.989,2.570,2.526,4,4,3.263
1777578545585,0.007,2.849,-0.432,2.501,0.055,1.120,114.647,2.892,2.882,2.741,4,4,3.260
1777578545599,1.296,-0.913,1.447,2.501,-0.320,1.107,110.075,1.646,2.146,2.754,4,4,3.264
1777578545612,0.166,-0.620,-0.060,1.708,-0.706,1.320,103.674,1.131,0.644,2.271,4,4,4.211
1777578545628,-0.377,1.086,-0.262,0.709,-0.476,0.923,103.671,1.676,1.179,1.258,4,4,3.278
1777578545641,-0.313,0.279,0.041,0.108,-0.229,0.238,102.988,3.119,0.421,0.348,4,4,3.260
1777578545654,-0.477,0.746,-0.132,-0.186,0.094,-0.090,102.896,4.025,0.895,0.227,4,4,3.290
1777578545668,-0.339,0.423,0.011,-0.437,0.367,-0.244,102.448,5.102,0.542,0.621,4,4,3.746
1777578545682,-0.274,0.350,0.014,-0.776,0.538,-0.243,101.990,6.128,0.445,0.975,4,4,3.918
1777578545696,-0.168,0.240,0.062,-1.153,0.597,-0.224,101.168,6.999,0.299,1.317,4,4,3.265
1777578545709,-0.058,0.160,0.086,-1.574,0.529,-0.298,99.941,7.332,0.191,1.686,4,4,3.263
1777578545723,-0.003,0.040,0.106,-2.097,0.366,-0.453,97.468,7.154,0.113,2.176,4,4,3.269
1777578545736,0.049,0.232,0.117,-2.501,0.169,-0.573,96.404,6.602,0.264,2.572,4,4,3.261
1777578545749,0.066,0.473,0.025,-2.501,-0.028,-0.510,96.110,6.151,0.478,2.553,4,4,3.921
1777578545763,0.100,0.608,-0.093,-2.501,-0.224,-0.348,96.191,5.672,0.623,2.535,4,4,3.267
1777578545777,0.101,0.654,-0.183,-2.501,-0.407,-0.190,96.484,5.232,0.687,2.541,4,4,3.349
1777578545790,0.048,0.675,-0.312,-2.501,-0.556,-0.062,97.056,4.954,0.745,2.563,4,4,3.261
1777578545803,-0.071,0.736,-0.439,-2.501,-0.644,-0.030,97.796,4.948,0.860,2.583,4,4,3.256
1777578545817,-0.244,0.855,-0.524,-2.501,-0.632,-0.096,98.534,5.219,1.032,2.582,5,5,3.923
1777578545831,-0.401,0.929,-0.593,-2.501,-0.496,-0.203,99.281,5.678,1.173,2.558,5,5,3.262
1777578545844,-0.563,1.082,-0.725,-2.501,-0.257,-0.319,100.045,6.230,1.419,2.535,5,5,3.265
1777578545858,-0.526,1.282,-0.869,-2.501,0.011,-0.546,100.794,6.620,1.636,2.560,5,5,3.256
1777578545871,-0.425,1.309,-0.996,-2.501,0.242,-0.764,101.618,6.864,1.699,2.627,5,5,3.688
1777578545885,-0.245,1.372,-1.099,-2.501,0.357,-0.858,102.461,6.898,1.775,2.668,5,5,3.899
1777578545899,-0.034,1.490,-1.263,-2.501,0.361,-0.792,103.327,6.714,1.953,2.648,5,5,3.252
