timestamp,ax,ay,az,gx,gy,gz,roll,pitch,delay_ms,classe_prevista
1777409977376,0.184463,0.759265,-0.0448947,-0.0019382,-0.00557968,0.00452248,0,0,3.26803,-1
1777409977389,0.20739,0.85622,-0.051079,-0.00209159,-0.00704066,0.00517984,0,0,3.26393,-1
1777409977403,0.21801,0.895108,-0.054639,-0.00142997,-0.0079671,0.00555594,0,0,3.27262,-1
1777409977416,0.222041,0.916961,-0.0540173,-0.00139878,-0.00850041,0.00577583,0,0,3.26727,-1
1777409977429,0.224845,0.931289,-0.0539581,-0.00137928,-0.00868667,0.0062669,0,0,3.26121,-1
1777409977443,0.22693,0.94,-0.0551595,-0.00129074,-0.00877692,0.00655379,0,0,3.26221,-1
1777409977456,0.228908,0.946434,-0.0563873,-0.00124795,-0.00900706,0.00640211,0,0,3.30021,-1
1777409977470,0.230107,0.951102,-0.0580443,-0.00144969,-0.00923181,0.00643271,0,0,3.26506,-1
1777409977483,0.230943,0.955388,-0.0591848,-0.00135231,-0.00936527,0.00656323,0,0,3.25067,-1
1777409977496,0.230996,0.959183,-0.0596426,-0.00122436,-0.00921313,0.00654712,0,0,3.26745,-1
1777409977510,0.231186,0.961922,-0.0595145,-0.00130727,-0.00923059,0.0064808,0,0,3.25671,-1
1777409977523,0.232163,0.964076,-0.0595877,-0.00137731,-0.00923825,0.00636095,0,0,3.24566,-1
1777409977536,0.232464,0.966072,-0.0601435,-0.0013033,-0.00940565,0.00641236,0,0,3.25288,-1
1777409977550,0.232807,0.967866,-0.0605849,-0.00137296,-0.00956367,0.00655898,0,0,3.25229,-1
1777409977563,0.23305,0.969536,-0.0603283,-0.00134865,-0.00955584,0.00648016,0,0,3.27418,-1
1777409977576,0.232682,0.970789,-0.0603076,-0.00132127,-0.00947851,0.0064456,0,0,3.25736,-1
1777409977590,0.23308,0.97158,-0.0602528,-0.00129685,-0.00949456,0.00649979,0,0,3.25492,-1
1777409977603,0.233068,0.972765,-0.0600631,-0.00126395,-0.00942105,0.00657041,0,0,3.25706,-1
1777409977616,0.233501,0.97392,-0.0601483,-0.0012075,-0.00936536,0.00658071,0,0,3.2516,-1
1777409977630,0.233661,0.974768,-0.0603091,-0.00117193,-0.00932526,0.00653267,0,0,3.2541,-1
1777409977643,0.233856,0.975966,-0.0606516,-0.00125693,-0.00933465,0.00661653,0,0,3.25054,-1
1777409977656,0.234178,0.97655,-0.0604845,-0.00118948,-0.00917794,0.00657307,0,0,3.2586,-1
1777409977670,0.234616,0.977165,-0.0602208,-0.00118662,-0.00924082,0.00657746,0,0,3.25782,-1
1777409977683,0.234585,0.977654,-0.0606603,-0.00117428,-0.0093036,0.00663971,0,0,3.25708,-1
1777409977696,0.234924,0.978702,-0.0603013,-0.00111982,-0.00928026,0.00656804,0,0,3.2564,-1
1777409977710,0.23483,0.979023,-0.0609363,-0.00113556,-0.00910268,0.00662456,0,0,3.26527,-1
1777409977723,0.235161,0.978962,-0.061047,-0.0011829,-0.0090688,0.00674248,0,0,3.25088,-1
1777409977736,0.235602,0.979394,-0.0608982,-0.00113892,-0.00899562,0.00668076,0,0,3.25679,-1
1777409977750,0.235557,0.979856,-0.0607596,-0.00111174,-0.00889992,0.00678859,0,0,3.27134,-1
1777409977764,0.236011,0.980446,-0.0609363,-0.00104537,-0.00897926,0.00672055,0,0,4.14694,-1
1777409977778,0.235914,0.980563,-0.0606816,-0.00096076,-0.00898547,0.00663438,0,0,3.6226,-1
1777409977791,0.236126,0.980802,-0.0604291,-0.000971621,-0.00902277,0.00665727,0,0,3.60562,-1
1777409977805,0.236138,0.980954,-0.0603787,-0.000981786,-0.0091248,0.00670555,0,0,3.60095,-1
1777409977819,0.235935,0.981439,-0.0602888,-0.0010403,-0.00918921,0.00671516,0,0,3.60469,-1
1777409977832,0.2361,0.981865,-0.0598926,-0.00103751,-0.00917866,0.00674634,0,0,3.60229,-1
1777409977846,0.236593,0.982137,-0.0600293,-0.00108791,-0.00918202,0.00674026,0,0,3.60262,-1
1777409977860,0.236325,0.981914,-0.0601577,-0.0010824,-0.00913674,0.00671253,0,0,3.60632,-1
1777409977873,0.236297,0.981649,-0.0599976,-0.00117378,-0.00911176,0.00666893,0,0,3.59047,-1
1777409977887,0.236131,0.980545,-0.0601271,-0.00113711,-0.00908828,0.00670674,0,0,3.58119,-1
1777409977901,0.235946,0.981155,-0.0599835,-0.000849361,-0.00915791,0.00702613,0,0,3.5744,-1
1777409977914,0.235912,0.983387,-0.0600993,-0.000731159,-0.00912318,0.00729611,0,0,3.57668,-1
1777409977928,0.23602,0.983708,-0.0602083,-0.000872166,-0.00906441,0.00718921,0,0,3.57129,-1
1777409977942,0.23612,0.982413,-0.0602553,-0.00112648,-0.00906986,0.00700608,0,0,3.57505,-1
1777409977955,0.236534,0.982344,-0.0606462,-0.00106684,-0.00904899,0.00696368,0,0,3.56755,-1
1777409977969,0.236329,0.983622,-0.0614298,-0.000954386,-0.00917219,0.00710558,0,0,3.62582,-1
1777409977983,0.236426,0.984578,-0.061366,-0.000986806,-0.00908504,0.00706198,0,0,3.59364,-1
1777409977997,0.236406,0.984249,-0.0612229,-0.00114694,-0.0090677,0.0069993,0,0,3.60936,-1
1777409978010,0.236526,0.98398,-0.0614469,-0.00115115,-0.00902547,0.00703947,0,0,3.59973,-1
1777409978024,0.236391,0.984402,-0.0612996,-0.001112,-0.00894685,0.00712908,0,0,3.60962,-1
1777409978038,0.236263,0.984924,-0.0613122,-0.00107509,-0.00902783,0.00711447,0,0,3.59868,-1
1777409978051,0.235991,0.984934,-0.061448,-0.00104028,-0.00906114,0.0070318,0,0,3.60555,-1
1777409978065,0.236465,0.985206,-0.0614385,-0.000977341,-0.00906242,0.00704851,0,0,3.62575,-1
1777409978079,0.236168,0.985186,-0.0619935,-0.00101689,-0.00902923,0.00702557,0,0,3.57455,-1
1777409978092,0.236507,0.984756,-0.0617196,-0.00108859,-0.00896784,0.00697383,0,0,3.58692,-1
1777409978106,0.236689,0.984322,-0.0617223,-0.00114333,-0.00897008,0.00686488,0,0,3.57919,-1
1777409978120,0.236765,0.984558,-0.0615737,-0.00110906,-0.00886051,0.00689954,0,0,3.58951,-1
1777409978134,0.236727,0.984878,-0.0611726,-0.000990862,-0.00897184,0.00694083,0,0,3.57717,-1
1777409978147,0.23632,0.98522,-0.0616179,-0.00108109,-0.0089481,0.00694115,0,0,3.56801,-1
1777409978161,0.236156,0.98509,-0.061695,-0.00106323,-0.00896003,0.0069715,0,0,3.5806,-1
1777409978175,0.235918,0.984693,-0.0620284,-0.00111502,-0.00890264,0.00691003,0,0,3.57855,-1
1777409978188,0.2366,0.984922,-0.0619588,-0.00103521,-0.00887422,0.00688635,0,0,3.59947,-1
1777409978202,0.236448,0.985125,-0.0619755,-0.00104138,-0.00891174,0.00694548,0,0,3.57497,-1
1777409978216,0.236221,0.985179,-0.0617581,-0.000978595,-0.00891284,0.00693697,0,0,3.60038,-1
1777409978229,0.236131,0.98512,-0.0618684,-0.000957933,-0.00889673,0.00706612,0,0,3.57255,-1
1777409978243,0.235978,0.98538,-0.0616159,-0.000917001,-0.00884294,0.00701654,0,0,3.57256,-1
1777409978257,0.236148,0.984501,-0.0619397,-0.00103696,-0.0088179,0.00679831,0,0,3.57947,-1
1777409978270,0.235843,0.983973,-0.0620397,-0.00097874,-0.00881998,0.00679378,0,0,3.58175,-1
1777409978284,0.236103,0.984461,-0.0621752,-0.000812383,-0.00873196,0.00692234,0,0,3.58358,-1
1777409978298,0.236253,0.985032,-0.0619605,-0.000766783,-0.00868316,0.00691084,0,0,3.5749,-1
1777409978312,0.236682,0.98505,-0.0619085,-0.00085228,-0.00877421,0.00695141,0,0,3.57949,-1
1777409978325,0.236443,0.984533,-0.0614073,-0.000860142,-0.00877017,0.0068269,0,0,3.5761,-1
1777409978339,0.236574,0.984579,-0.0615372,-0.000709056,-0.00877064,0.00689359,0,0,3.58223,-1
1777409978353,0.236258,0.985197,-0.0608377,-0.000797778,-0.00875824,0.0069394,0,0,3.57634,-1
1777409978366,0.236386,0.985028,-0.0602597,-0.000868667,-0.00876367,0.00680273,0,0,3.57097,-1
1777409978380,0.236492,0.98469,-0.0602758,-0.000978408,-0.00876022,0.00672941,0,0,3.58925,-1
1777409978394,0.23651,0.98422,-0.0602499,-0.00104772,-0.00874412,0.00675016,0,0,3.57369,-1
1777409978407,0.236692,0.984106,-0.0610474,-0.000988937,-0.00877176,0.00681686,0,0,3.57786,-1
1777409978421,0.236822,0.984586,-0.0609645,-0.00104909,-0.00884495,0.00684556,0,0,3.57168,-1
1777409978435,0.237205,0.984588,-0.0610232,-0.00102878,-0.00880269,0.00680411,0,0,3.58434,-1
1777409978448,0.236951,0.984549,-0.0607637,-0.00100104,-0.0088099,0.00676499,0,0,3.57121,-1
1777409978462,0.236601,0.98432,-0.0601215,-0.00098342,-0.00872678,0.00673664,0,0,3.57727,-1
1777409978476,0.236503,0.984912,-0.0599673,-0.00094538,-0.00871684,0.00685548,0,0,3.62001,-1
1777409978490,0.236329,0.985005,-0.0599724,-0.000909474,-0.00869033,0.00678779,0,0,3.60034,-1
1777409978503,0.236329,0.985148,-0.060169,-0.00100834,-0.00865246,0.0068181,0,0,3.62092,-1
1777409978517,0.236589,0.985296,-0.0603271,-0.00105883,-0.00871949,0.00672682,0,0,3.59971,-1
1777409978531,0.236588,0.985601,-0.0603121,-0.000973737,-0.00883843,0.00667491,0,0,3.6169,-1
1777409978545,0.236724,0.985874,-0.060202,-0.000889137,-0.00886933,0.00664733,0,0,3.59408,-1
1777409978558,0.236647,0.985818,-0.0604952,-0.000886364,-0.00888137,0.00668124,0,0,3.60277,-1
1777409978572,0.236657,0.985668,-0.0601557,-0.000909439,-0.00891843,0.00661048,0,0,3.61521,-1
1777409978586,0.236652,0.985431,-0.0600818,-0.00097404,-0.00895769,0.00665075,0,0,3.59027,-1
1777409978599,0.236757,0.985386,-0.0603681,-0.00100076,-0.00891767,0.00668447,0,0,3.58736,-1
1777409978613,0.236925,0.985329,-0.060789,-0.00109878,-0.00883708,0.00665635,0,0,3.57182,-1
1777409978627,0.237001,0.98518,-0.060748,-0.00103714,-0.00888518,0.00665122,0,0,3.58271,-1
1777409978641,0.237155,0.984888,-0.0610517,-0.00100466,-0.00889205,0.00662925,0,0,3.56955,-1
1777409978654,0.237191,0.984585,-0.060996,-0.0010682,-0.00899702,0.00664705,0,0,3.5859,-1
1777409978668,0.236992,0.984779,-0.061053,-0.00111105,-0.0089548,0.00664672,0,0,3.58038,-1
1777409978682,0.236804,0.985112,-0.0607644,-0.00106157,-0.00896204,0.00659503,0,0,3.57688,-1
1777409978695,0.236544,0.985208,-0.0607522,-0.00110907,-0.0089175,0.00670039,0,0,3.57399,-1
1777409978709,0.236203,0.985367,-0.060727,-0.0011325,-0.00897394,0.0067142,0,0,3.57219,-1
1777409978723,0.236553,0.985667,-0.0609771,-0.00115033,-0.00899295,0.00676577,0,0,3.57438,-1
1777409978737,0.23654,0.985512,-0.0612405,-0.00119713,-0.00907513,0.00673737,0,0,3.57242,-1
1777409978750,0.236528,0.985599,-0.0617905,-0.00117708,-0.00912701,0.00673198,0,0,3.58723,-1
1777409978764,0.236668,0.985818,-0.0614879,-0.00116672,-0.00915457,0.00667551,0,0,3.57558,-1
1777409978778,0.235279,0.985546,-0.0612297,-0.000912873,-0.00882947,0.00588143,0,0,3.65971,-1
1777409978791,0.234434,0.97903,-0.0612462,-0.00137121,-0.00875382,0.00528176,0,0,3.60786,-1
1777409978805,0.234431,0.977714,-0.060892,-0.000626321,-0.0087124,0.00578193,0,0,3.60064,-1
1777409978819,0.234688,0.982401,-0.0610781,9.39148e-05,-0.00889167,0.00669935,0,0,3.60721,-1
1777409978833,0.234876,0.986757,-0.0610893,2.87003e-05,-0.00899666,0.00705149,0,0,3.5954,-1
1777409978846,0.234766,0.986048,-0.0613876,-0.00042679,-0.00896302,0.00661741,0,0,3.60793,-1
1777409978860,0.23614,0.983722,-0.0612035,-0.00104085,-0.00886276,0.00621197,0,0,3.59795,-1
1777409978874,0.237794,0.982143,-0.061153,-0.00120513,-0.00887516,0.00564943,0,0,3.63766,-1
1777409978888,0.238315,0.980666,-0.0612559,-0.00143298,-0.00901105,0.0055766,0,0,3.57786,-1
1777409978901,0.23756,0.980751,-0.0615859,-0.00117704,-0.00895948,0.0055464,0,0,3.57042,-1
1777409978915,0.236395,0.97905,-0.0610757,-0.00119665,-0.00887226,0.00550505,0,0,3.5719,-1
1777409978929,0.236378,0.979623,-0.060553,-0.00108671,-0.00891411,0.00563729,0,0,3.57323,-1
1777409978942,0.236553,0.980547,-0.0610046,-0.00114137,-0.00899643,0.00567647,0,0,3.57712,-1
1777409978956,0.23628,0.979543,-0.0609104,-0.00102168,-0.00906557,0.00588902,0,0,3.57801,-1
1777409978970,0.236187,0.980457,-0.0609448,-0.000604694,-0.00913939,0.00628233,0,0,3.59043,-1
1777409978983,0.236181,0.982992,-0.0608814,-0.000390937,-0.00908918,0.0066707,0,0,3.60649,-1
1777409978997,0.235724,0.983275,-0.0611092,-0.000707276,-0.00898184,0.00650633,0,0,3.61405,-1
1777409979011,0.235758,0.982118,-0.0615569,-0.000894542,-0.00903039,0.00636832,0,0,3.60906,-1
1777409979025,0.235187,0.983203,-0.0611579,-0.000660245,-0.00909762,0.00664054,0,0,3.59616,-1
1777409979038,0.235073,0.985377,-0.0613427,-0.000631774,-0.00910114,0.0068247,0,0,3.60164,-1
1777409979052,0.234774,0.984705,-0.0616405,-0.000746201,-0.0090702,0.00669451,0,0,3.60227,-1
1777409979066,0.234765,0.983468,-0.0621269,-0.000828519,-0.00908382,0.00656307,0,0,3.60642,-1
1777409979080,0.23525,0.984135,-0.061915,-0.000764918,-0.0091138,0.00671303,0,0,3.96845,-1
1777409979094,0.235475,0.985093,-0.0617561,-0.000632093,-0.00918064,0.006876,0,0,3.61608,-1
1777409979107,0.23581,0.985409,-0.0613322,-0.000677992,-0.00923516,0.00684142,0,0,3.59451,-1
1777409979121,0.236031,0.984817,-0.060891,-0.000785546,-0.00913248,0.00685588,0,0,3.60127,-1
1777409979135,0.23602,0.98471,-0.061488,-0.000814274,-0.0090955,0.00698086,0,0,3.59932,-1
1777409979149,0.236284,0.985157,-0.0614489,-0.000862801,-0.0091548,0.00700035,0,0,3.60214,-1
1777409979162,0.236273,0.985688,-0.0610833,-0.000870068,-0.00915083,0.00703587,0,0,3.60225,-1
1777409979176,0.236235,0.985532,-0.0609574,-0.000902619,-0.00924556,0.00703514,0,0,3.64058,-1
1777409979190,0.23587,0.985495,-0.0611124,-0.000997573,-0.00918083,0.00702161,0,0,3.58556,-1
1777409979203,0.235773,0.985131,-0.0614093,-0.00103154,-0.00913258,0.00700455,0,0,3.57414,-1
1777409979217,0.235516,0.985458,-0.0611692,-0.00108072,-0.00913414,0.00705696,0,0,3.58068,-1
1777409979231,0.23548,0.985562,-0.0609015,-0.0011143,-0.00900287,0.0070208,0,0,3.57451,-1
1777409979245,0.235431,0.985468,-0.060909,-0.0012402,-0.00888752,0.00700379,0,0,3.56766,-1
1777409979258,0.235605,0.985543,-0.0606285,-0.00120489,-0.00900131,0.00702199,0,0,3.58243,-1
1777409979272,0.23555,0.985628,-0.0605965,-0.00127004,-0.00903164,0.0070306,0,0,3.58088,-1
1777409979286,0.23521,0.985914,-0.0603883,-0.00133582,-0.00906454,0.00703445,0,0,3.61114,-1
1777409979300,0.235464,0.986006,-0.0602603,-0.00135081,-0.00896287,0.00709375,0,0,3.59432,-1
1777409979313,0.235362,0.98612,-0.0603448,-0.00138209,-0.00895682,0.00704696,0,0,3.61345,-1
1777409979327,0.235375,0.986063,-0.0599316,-0.00135595,-0.00901533,0.0070713,0,0,3.60505,-1
1777409979341,0.235853,0.985955,-0.06024,-0.00137409,-0.00901062,0.00697867,0,0,3.59943,-1
1777409979354,0.236167,0.985346,-0.0605722,-0.00134839,-0.00895907,0.00697687,0,0,3.6041,-1
1777409979368,0.236409,0.985373,-0.0605708,-0.00126848,-0.00897036,0.00693663,0,0,3.59377,-1
1777409979382,0.236076,0.98503,-0.0608159,-0.00115451,-0.00904096,0.0069329,0,0,3.58262,-1
1777409979395,0.235898,0.985075,-0.0607461,-0.00118395,-0.00900483,0.00694652,0,0,3.57443,-1
1777409979409,0.235909,0.985241,-0.0604199,-0.00118177,-0.00902212,0.0069037,0,0,3.5833,-1
1777409979423,0.235946,0.985343,-0.0602901,-0.00120968,-0.00903415,0.00700459,0,0,3.57312,-1
1777409979437,0.235954,0.985152,-0.0603593,-0.00114183,-0.00895559,0.00700133,0,0,3.58501,-1
1777409979450,0.236221,0.98504,-0.0602192,-0.00110775,-0.00890713,0.0069426,0,0,3.57021,-1
1777409979464,0.236364,0.985181,-0.0604977,-0.00113982,-0.00883997,0.00695138,0,0,3.58414,-1
1777409979478,0.236499,0.985259,-0.0605142,-0.00118721,-0.00888363,0.00691258,0,0,3.5754,-1
1777409979491,0.236503,0.985196,-0.0604476,-0.00121053,-0.00889915,0.00691448,0,0,3.57384,-1
1777409979505,0.236384,0.985382,-0.0600834,-0.00114691,-0.00895662,0.00682208,0,0,3.57986,-1
1777409979519,0.236285,0.985175,-0.0605339,-0.0011254,-0.00889525,0.00687616,0,0,3.57408,-1
1777409979532,0.236301,0.985281,-0.0605346,-0.00113935,-0.00884589,0.00685442,0,0,3.57749,-1
1777409979546,0.236522,0.984833,-0.0602477,-0.00116108,-0.00882927,0.00685103,0,0,3.5738,-1
1777409979560,0.236812,0.984972,-0.060689,-0.00119443,-0.00882215,0.00686495,0,0,3.57336,-1
1777409979573,0.236607,0.98487,-0.0609823,-0.00116597,-0.00882827,0.00692091,0,0,3.5743,-1
1777409979587,0.236714,0.98476,-0.0611496,-0.001092,-0.00891112,0.00693091,0,0,3.85855,-1
1777409979601,0.236309,0.985053,-0.0612391,-0.00105644,-0.00892938,0.00689754,0,0,3.60136,-1
1777409979615,0.236488,0.985125,-0.0613509,-0.00101859,-0.00882244,0.00676327,0,0,3.59893,-1
1777409979628,0.236493,0.984877,-0.0607306,-0.00102997,-0.00885852,0.00669647,0,0,3.61066,-1
1777409979642,0.236621,0.98489,-0.060912,-0.00107496,-0.00890971,0.00673619,0,0,3.60992,-1
1777409979656,0.236796,0.984697,-0.0615078,-0.00108745,-0.00902225,0.00676084,0,0,3.62688,-1
1777409979669,0.236551,0.984597,-0.0611526,-0.00115063,-0.00901286,0.00668134,0,0,3.59499,-1
1777409979683,0.23662,0.984625,-0.0613378,-0.00113747,-0.00903826,0.00672619,0,0,3.59845,-1
1777409979697,0.236631,0.984748,-0.0611838,-0.00111649,-0.0090237,0.00677709,0,0,3.61277,-1
1777409979711,0.236436,0.984782,-0.0613535,-0.00112237,-0.00898854,0.00674377,0,0,3.60825,-1
1777409979724,0.2368,0.985047,-0.0615548,-0.00120928,-0.00904099,0.0067423,0,0,3.60408,-1
1777409979738,0.236924,0.985379,-0.0613887,-0.00126134,-0.00907338,0.00672379,0,0,3.61064,-1
1777409979752,0.237233,0.985035,-0.0617523,-0.00122484,-0.00908254,0.006732,0,0,3.60919,-1
1777409979765,0.237018,0.985409,-0.061671,-0.00128459,-0.00899698,0.00680398,0,0,3.59723,-1
1777409979779,0.236897,0.985228,-0.0616764,-0.00120826,-0.00895048,0.00679057,0,0,3.60769,-1
1777409979793,0.23692,0.98481,-0.0622019,-0.00114476,-0.00894084,0.00679076,0,0,3.61464,-1
1777409979807,0.23701,0.984621,-0.062383,-0.00119188,-0.0091287,0.00668817,0,0,3.60212,-1
1777409979820,0.236534,0.98469,-0.0621704,-0.00114215,-0.00915617,0.00671123,0,0,3.60206,-1
1777409979834,0.236796,0.984932,-0.0619424,-0.00113803,-0.00911358,0.00668589,0,0,3.5986,-1
1777409979848,0.236907,0.985216,-0.0617683,-0.00105707,-0.00918471,0.00673905,0,0,3.60857,-1
1777409979861,0.236915,0.9851,-0.0619873,-0.00102347,-0.00911483,0.00677638,0,0,3.59968,-1
1777409979875,0.23728,0.98521,-0.0623174,-0.0010517,-0.00910454,0.00681162,0,0,3.61805,-1
1777409979889,0.237514,0.985328,-0.06267,-0.00112544,-0.00903059,0.00687485,0,0,3.60155,-1
1777409979902,0.237598,0.985603,-0.0625235,-0.00113939,-0.00904643,0.00686175,0,0,3.60943,-1
1777409979916,0.237376,0.985603,-0.0622483,-0.00116111,-0.00901428,0.00692217,0,0,3.60195,-1
1777409979930,0.237646,0.985232,-0.0624267,-0.00110455,-0.00898822,0.00691926,0,0,3.60058,-1
1777409979944,0.237791,0.985349,-0.0626089,-0.001064,-0.00908779,0.00692079,0,0,3.60738,-1
1777409979957,0.237641,0.985677,-0.0626849,-0.00111565,-0.00902763,0.00692652,0,0,3.59799,-1
1777409979971,0.23754,0.986741,-0.0624144,-0.000928892,-0.00901366,0.00706038,0,0,3.60884,-1
1777409979985,0.236718,0.986595,-0.0625698,-0.00107375,-0.00912037,0.00692982,0,0,3.60077,-1
1777409979998,0.237011,0.987018,-0.0626344,-0.00104778,-0.00897275,0.00697358,0,0,3.60623,-1
1777409980012,0.236686,0.986774,-0.0624214,-0.00109605,-0.00903465,0.00691212,0,0,3.57927,-1
1777409980026,0.236761,0.986954,-0.0621793,-0.0009575,-0.00919584,0.00695259,0,0,3.57168,-1
1777409980039,0.236682,0.987166,-0.0622932,-0.000938046,-0.00917244,0.00692656,0,0,3.57895,-1
1777409980053,0.236621,0.98716,-0.0622226,-0.00103101,-0.00921458,0.00685917,0,0,3.56806,-1
1777409980067,0.236728,0.986949,-0.0615808,-0.00100315,-0.00925007,0.00686835,0,0,3.57636,-1
1777409980080,0.236829,0.986804,-0.0619611,-0.00089122,-0.00921078,0.00679567,0,0,3.56573,-1
1777409980094,0.237006,0.986517,-0.0616626,-0.000965403,-0.00913088,0.00670137,0,0,3.60266,-1
1777409980108,0.236913,0.986425,-0.0614768,-0.000962634,-0.00908543,0.00662092,0,0,3.57599,-1
1777409980122,0.236853,0.986173,-0.0617396,-0.00104566,-0.00908106,0.00664347,0,0,3.56851,-1
1777409980135,0.236837,0.986524,-0.0619055,-0.00101269,-0.00912833,0.00658768,0,0,3.57869,-1
1777409980149,0.23722,0.986746,-0.0616513,-0.0011186,-0.00912156,0.00654358,0,0,3.56862,-1
1777409980163,0.232979,0.983929,-0.0604527,-0.000640515,-0.00765505,0.00539724,0,0,3.57753,-1
1777409980176,0.234372,0.985186,-0.0517346,0.00751383,-0.0101844,0.0131444,0,0,3.57599,-1
1777409980190,0.229607,0.982922,-0.0545022,0.00626596,-0.00730524,0.0101891,0,0,3.57388,-1
1777409980204,0.239022,0.980607,-0.0548139,0.00647113,-0.00552099,0.00969891,0,0,3.61136,-1
1777409980218,0.235256,0.983366,-0.0508354,0.00993613,-0.00510854,0.0125547,0,0,3.60049,-1
1777409980231,0.225908,0.972316,-0.0483947,0.0111215,-0.000951184,0.0119361,0,0,3.6079,-1
1777409980245,0.221234,0.972541,-0.0382989,0.0146639,0.0104234,0.0136216,0,0,3.59449,-1
1777409980259,0.222779,0.974163,-0.0387114,0.0172027,0.0231596,0.0138209,0,0,3.59775,-1
1777409980273,0.227647,0.974229,-0.0418945,0.0188368,0.0341666,0.0142018,0,0,3.60044,-1
1777409980286,0.23279,0.973771,-0.0465014,0.0199468,0.0407668,0.0149167,0,0,3.60377,-1
1777409980300,0.23859,0.973955,-0.0493297,0.0200954,0.0426848,0.0152404,0,0,3.61362,-1
1777409980314,0.241489,0.973869,-0.0557653,0.0202656,0.0412368,0.0159569,0,0,3.58216,-1
1777409980327,0.23994,0.975773,-0.0590326,0.0197669,0.0396131,0.0160724,0,0,3.57323,-1
1777409980341,0.239614,0.974954,-0.0595421,0.0198399,0.0406325,0.0164426,0,0,3.56723,-1
1777409980355,0.2378,0.975852,-0.0642408,0.0191895,0.0429307,0.0161668,0,0,3.57029,-1
1777409980368,0.236636,0.974276,-0.0680324,0.019449,0.0475149,0.0155683,0,0,3.57321,-1
1777409980382,0.235851,0.974117,-0.0710361,0.0201308,0.0512467,0.0151789,0,0,3.57921,-1
1777409980396,0.238672,0.974268,-0.0706532,0.0203375,0.0544867,0.0149355,0,0,3.57399,-1
1777409980409,0.239157,0.976396,-0.0709628,0.0209609,0.0568041,0.0147229,0,0,3.59584,-1
1777409980423,0.239915,0.979445,-0.0703511,0.021241,0.0583065,0.0152115,0,0,3.57182,-1
1777409980437,0.240851,0.979763,-0.0705681,0.0216424,0.060795,0.0155101,0,0,3.56842,-1
1777409980450,0.237886,0.98072,-0.0702251,0.0219955,0.0630027,0.0154194,0,0,3.57436,-1
1777409980464,0.238784,0.983568,-0.0701067,0.022543,0.065352,0.0161045,0,0,3.57462,-1
1777409980478,0.238729,0.98349,-0.0727065,0.020769,0.0657412,0.0150256,0,0,3.57338,-1
1777409980491,0.240306,0.983485,-0.0745579,0.0192529,0.0662284,0.014033,0,0,3.56984,-1
1777409980505,0.242808,0.982713,-0.0749634,0.0172352,0.0648471,0.0126549,0,0,3.58438,-1
1777409980519,0.244608,0.982669,-0.0742369,0.0156005,0.0619419,0.0117181,0,0,3.57136,-1
1777409980532,0.2455,0.983669,-0.0724967,0.0146483,0.0580007,0.0114205,0,0,3.57345,-1
1777409980546,0.244697,0.983585,-0.0701968,0.0131758,0.0533129,0.0109769,0,0,3.56967,-1
1777409980560,0.238463,0.98252,-0.0701896,0.0124753,0.054737,0.0101128,0,0,3.58269,-1
1777409980574,0.237206,0.981789,-0.0718398,0.0109577,0.0576142,0.0086592,0,0,3.57423,-1
1777409980587,0.235308,0.983646,-0.0696178,0.0106985,0.0599446,0.00812639,0,0,3.56532,-1
1777409980601,0.234818,0.98518,-0.0690542,0.0126546,0.0627609,0.00929339,0,0,3.98058,-1
1777409980615,0.233273,0.982423,-0.0691796,0.0140301,0.0660016,0.00944007,0,0,3.58925,-1
1777409980629,0.234115,0.983724,-0.0699141,0.0142536,0.0693088,0.00915034,0,0,3.60492,-1
1777409980642,0.236745,0.983062,-0.0697995,0.0151026,0.0715913,0.00917659,0,0,3.59647,-1
1777409980656,0.238228,0.983026,-0.0685273,0.0152103,0.0724954,0.0090986,0,0,3.60616,-1
1777409980670,0.241176,0.982403,-0.0681208,0.0149009,0.0708268,0.00893507,0,0,3.60269,-1
1777409980684,0.2443,0.982569,-0.0679014,0.0143306,0.0676889,0.00887919,0,0,3.60312,-1
1777409980697,0.245332,0.982191,-0.0683379,0.0132741,0.0632541,0.00857382,0,0,3.60477,-1
1777409980711,0.245238,0.982656,-0.0682569,0.012461,0.0593078,0.00864526,0,0,3.60464,-1
1777409980725,0.245642,0.982642,-0.068249,0.0115223,0.0555058,0.00857994,0,0,3.58071,-1
1777409980738,0.245092,0.982329,-0.0682689,0.0107218,0.0519556,0.00846692,0,0,3.56619,-1
1777409980752,0.244792,0.982759,-0.0681644,0.0100348,0.0484803,0.00846727,0,0,3.58529,-1
1777409980766,0.244317,0.983027,-0.0679836,0.0093734,0.0451958,0.0083991,0,0,3.57069,-1
1777409980779,0.244061,0.983048,-0.0679499,0.00865066,0.0421125,0.00817204,0,0,3.57569,-1
1777409980793,0.243874,0.983013,-0.0677675,0.00804553,0.0393179,0.00815468,0,0,3.58634,-1
1777409980807,0.243861,0.982802,-0.0676637,0.00748291,0.0367571,0.00806123,0,0,3.57401,-1
1777409980821,0.243808,0.982876,-0.0674015,0.00704605,0.0343313,0.00805008,0,0,3.60143,-1
1777409980834,0.243649,0.982782,-0.0671128,0.00667651,0.0321829,0.00794108,0,0,3.61916,-1
1777409980848,0.243827,0.98331,-0.0666761,0.00631914,0.0300608,0.00792384,0,0,3.61342,-1
1777409980862,0.243817,0.983698,-0.0668663,0.00585763,0.0281263,0.00786902,0,0,3.6026,-1
1777409980875,0.24389,0.983367,-0.0670323,0.0054263,0.0260862,0.00775305,0,0,3.60593,-1
1777409980889,0.243945,0.983382,-0.0668602,0.00502772,0.0242119,0.00762217,0,0,3.60366,-1
1777409980903,0.244011,0.983671,-0.0664924,0.00463866,0.0225583,0.00760997,0,0,3.61849,-1
1777409980916,0.243361,0.984039,-0.0659808,0.00425001,0.0211388,0.00751281,0,0,3.57912,-1
1777409980930,0.242309,0.983975,-0.0658678,0.0042985,0.0209294,0.00766517,0,0,3.57327,-1
1777409980944,0.241618,0.983943,-0.0654871,0.0045498,0.0219905,0.00785608,0,0,3.59666,-1
1777409980957,0.239527,0.984337,-0.0649635,0.00488549,0.0236601,0.00786929,0,0,3.57188,-1
1777409980971,0.238594,0.98501,-0.0648527,0.00562625,0.0262851,0.00810014,0,0,3.58836,-1
1777409980985,0.239577,0.98455,-0.0655013,0.00587159,0.0279965,0.00803115,0,0,3.57066,-1
1777409980998,0.241791,0.984732,-0.0670722,0.00615454,0.0287811,0.00821866,0,0,3.57525,-1
1777409981012,0.24347,0.985095,-0.0675004,0.00596347,0.0281001,0.00813018,0,0,3.58249,-1
1777409981026,0.244768,0.984274,-0.0677951,0.00552192,0.0261814,0.00794817,0,0,3.60344,-1
1777409981040,0.244787,0.984157,-0.0677857,0.00510513,0.0242546,0.00783205,0,0,3.60769,-1
1777409981053,0.24445,0.984128,-0.0677631,0.00468175,0.0222818,0.00783376,0,0,3.60142,-1
1777409981067,0.24435,0.984525,-0.0678102,0.00429925,0.0205139,0.00778828,0,0,3.60568,-1
1777409981081,0.244571,0.984736,-0.0680875,0.00397674,0.0189179,0.00774534,0,0,3.59864,-1
1777409981094,0.244328,0.984825,-0.0682534,0.00347963,0.0174585,0.007662,0,0,3.60692,-1
1777409981109,0.24429,0.984403,-0.0686565,0.00308321,0.0160339,0.00760474,0,0,3.61797,-1
1777409981122,0.244432,0.984511,-0.0684892,0.0028546,0.0146721,0.00757639,0,0,3.5971,-1
1777409981136,0.244211,0.984202,-0.0688517,0.00251892,0.0131811,0.00742973,0,0,3.60903,-1
1777409981150,0.244535,0.984239,-0.0685091,0.00220207,0.0119066,0.00739835,0,0,3.60438,-1
1777409981163,0.244445,0.984288,-0.0679529,0.00188587,0.0106564,0.00740298,0,0,3.61018,-1
1777409981177,0.244455,0.983704,-0.067962,0.00162166,0.00957048,0.00730887,0,0,3.60427,-1
1777409981191,0.244424,0.983947,-0.067998,0.00139796,0.00860118,0.00736562,0,0,3.61127,-1
1777409981205,0.244285,0.984217,-0.0685523,0.00122962,0.00766484,0.00733355,0,0,3.6011,-1
1777409981218,0.243989,0.984651,-0.06861,0.00111783,0.00681956,0.007299,0,0,3.60612,-1
1777409981232,0.244025,0.984758,-0.0682399,0.00100803,0.00591465,0.00721928,0,0,3.61629,-1
1777409981246,0.244155,0.984696,-0.0680549,0.000848721,0.00506049,0.00722111,0,0,3.61071,-1
1777409981259,0.244318,0.984404,-0.0681267,0.000557048,0.00439127,0.00721428,0,0,3.60669,-1
1777409981273,0.244431,0.984197,-0.0678659,0.000482983,0.00369536,0.00704083,0,0,3.60425,-1
1777409981287,0.244579,0.984495,-0.067291,0.000374536,0.00302563,0.00704839,0,0,3.61514,-1
1777409981300,0.244486,0.984474,-0.0676111,0.000203662,0.00226502,0.00690566,0,0,3.60273,-1
1777409981314,0.244782,0.984729,-0.06779,8.11797e-06,0.00166268,0.00688654,0,0,3.60958,-1
1777409981328,0.244855,0.984818,-0.067329,-1.80286e-05,0.00094855,0.00695842,0,0,3.58945,-1
1777409981342,0.244596,0.984794,-0.0676196,-0.000196856,0.000505694,0.00697916,0,0,3.57293,-1
1777409981355,0.244626,0.984784,-0.067305,-0.000202941,-8.35954e-05,0.00688742,0,0,3.5804,-1
1777409981369,0.244324,0.984405,-0.0676654,-0.000375678,-0.00072975,0.00686076,0,0,3.57225,-1
1777409981383,0.244109,0.984691,-0.0678002,-0.000328914,-0.00120692,0.00695977,0,0,3.58042,-1
1777409981396,0.244371,0.985193,-0.0674345,-0.000404665,-0.00163592,0.0069676,0,0,3.57743,-1
1777409981410,0.244098,0.98549,-0.0675411,-0.000566087,-0.00202372,0.00696642,0,0,3.59012,-1
1777409981424,0.243497,0.984797,-0.0673953,-0.000611407,-0.00235124,0.0069182,0,0,3.5776,-1
1777409981437,0.243547,0.984911,-0.0672303,-0.000585675,-0.00257903,0.00697974,0,0,3.57464,-1
1777409981451,0.243772,0.985237,-0.0670197,-0.000587078,-0.00284114,0.0072091,0,0,3.57932,-1
1777409981465,0.243519,0.984983,-0.0669716,-0.000712577,-0.00295153,0.00713871,0,0,3.57675,-1
1777409981478,0.24202,0.98447,-0.066351,-0.000475641,-0.00243914,0.00714078,0,0,3.57914,-1
1777409981492,0.239975,0.98508,-0.0662583,-4.64659e-05,-0.000221342,0.00712132,0,0,3.58693,-1
1777409981506,0.240606,0.984644,-0.0662666,0.000213052,0.00155948,0.00709011,0,0,3.58255,-1
1777409981519,0.240462,0.98419,-0.0664661,0.000385222,0.00290643,0.0070478,0,0,3.57834,-1
1777409981533,0.240641,0.98405,-0.0666545,0.0007447,0.00396802,0.00707638,0,0,3.60692,-1
1777409981547,0.240344,0.984287,-0.0666132,0.000861357,0.00499146,0.00708194,0,0,3.60706,-1
1777409981561,0.240872,0.983621,-0.0674232,0.000911524,0.0051782,0.00692448,0,0,3.60203,-1
1777409981574,0.241781,0.983896,-0.0675031,0.00108733,0.00495626,0.00696426,0,0,3.60712,-1
1777409981588,0.241448,0.984293,-0.0678114,0.00102206,0.00475104,0.00700608,0,0,3.6121,-1
1777409981602,0.242065,0.984284,-0.0679927,0.000656436,0.00401782,0.00710551,0,0,3.61558,-1
1777409981615,0.241825,0.984234,-0.0684104,0.000311321,0.00322724,0.00697242,0,0,3.64997,-1
1777409981629,0.241667,0.984201,-0.0684897,0.000268167,0.00260091,0.00702235,0,0,3.66786,-1
1777409981643,0.241231,0.984142,-0.0691671,0.000188897,0.00239935,0.00712087,0,0,3.60081,-1
1777409981657,0.241065,0.984197,-0.0692725,-0.000339804,0.00280856,0.00698692,0,0,3.60153,-1
1777409981670,0.240266,0.983741,-0.0685091,-0.000783185,0.00352024,0.00667208,0,0,3.61232,-1
1777409981684,0.23999,0.983804,-0.0687062,-0.00107752,0.00474436,0.00651192,0,0,3.61764,-1
1777409981698,0.240195,0.983918,-0.0683991,-0.00106846,0.00551445,0.00652345,0,0,3.60958,-1
1777409981711,0.239691,0.983245,-0.0688214,-0.00140674,0.00600156,0.00608474,0,0,3.59799,-1
1777409981725,0.23927,0.983076,-0.0692885,-0.0018331,0.00664546,0.00572203,0,0,3.62962,-1
1777409981739,0.23816,0.983765,-0.0691816,-0.00176881,0.00729607,0.00565798,0,0,3.56619,-1
1777409981753,0.238221,0.985579,-0.069875,-0.00113436,0.00850536,0.00600001,0,0,4.22955,-1
1777409981767,0.239649,0.984923,-0.0696804,-0.000304278,0.00904307,0.00632287,0,0,3.57193,-1
1777409981781,0.240462,0.984701,-0.0695242,2.96479e-05,0.00937935,0.00639639,0,0,3.57903,-1
1777409981794,0.241394,0.98445,-0.0689247,-0.000288873,0.00936707,0.00612324,0,0,3.57692,-1
1777409981808,0.242219,0.984514,-0.0683589,-0.000769366,0.008923,0.00605381,0,0,3.58382,-1
1777409981822,0.242423,0.984698,-0.068222,-0.00111586,0.00817414,0.0060054,0,0,3.6046,-1
1777409981835,0.244067,0.983803,-0.0679011,-0.00107896,0.0082894,0.0057499,0,0,3.56877,-1
1777409981849,0.243797,0.984397,-0.0673927,-0.00065448,0.00725494,0.00636938,0,0,3.65095,-1
1777409981863,0.245063,0.982875,-0.0667211,-0.000694842,0.00727618,0.00606349,0,0,3.56962,-1
1777409981876,0.244888,0.983904,-0.066813,-0.000630175,0.00669249,0.00632712,0,0,3.57701,-1
1777409981890,0.244736,0.983082,-0.0670778,-0.000911685,0.00642842,0.00614777,0,0,3.5821,-1
1777409981904,0.244894,0.983949,-0.066821,-0.00147713,0.00624767,0.00585859,0,0,3.57942,-1
1777409981917,0.245126,0.984109,-0.0666745,-0.00239623,0.00322106,0.00541864,0,0,3.62493,-1
1777409981931,0.244906,0.984768,-0.0668785,-0.00260437,0.00252228,0.00549578,0,0,3.56595,-1
1777409981945,0.245918,0.984664,-0.065332,-0.00190165,0.00307446,0.00558572,0,0,3.59118,-1
1777409981958,0.245914,0.984374,-0.065447,-0.00116983,0.00242243,0.00614163,0,0,3.5764,-1
1777409981973,0.24576,0.983922,-0.0655556,-0.0015067,0.00207246,0.00581425,0,0,4.18281,-1
1777409981986,0.245149,0.983961,-0.0653294,-0.00197883,0.00205469,0.00554378,0,0,3.56888,-1
1777409982000,0.247598,0.983738,-0.0651844,-0.00216756,0.002753,0.0052371,0,0,3.5713,-1
1777409982014,0.247308,0.984855,-0.065787,-0.00151931,0.0020976,0.00580828,0,0,3.57758,-1
1777409982027,0.246501,0.985061,-0.0658902,-0.00118574,0.00155175,0.00604768,0,0,3.57562,-1
1777409982041,0.246053,0.984982,-0.0659329,-0.00128622,0.00043278,0.0060039,0,0,3.59114,-1
1777409982055,0.245905,0.985139,-0.0658909,-0.00142389,-0.000186675,0.00592832,0,0,3.5684,-1
1777409982069,0.244683,0.985726,-0.0660568,-0.00170798,-0.000390297,0.00592549,0,0,4.06908,-1
1777409982086,0.243105,0.986363,-0.0672267,-0.00192903,-0.000154311,0.0059742,0,0,7.38706,-1
1777409982101,0.24404,0.986347,-0.0668931,-0.000437783,0.00317279,0.00278737,0,0,4.34227,-1
1777409982115,0.320296,1.01264,-0.0293704,0.0294785,-0.0484946,0.00586383,0,0,3.69882,-1
1777409982129,0.330965,0.930983,-0.0217659,0.0247077,-0.122364,0.0173828,0,0,3.90118,-1
1777409982143,0.321548,0.900782,-0.0255709,0.00302152,-0.19209,0.0231945,0,0,3.62582,-1
1777409982156,0.285257,0.888942,-0.0407753,-0.0214647,-0.219565,0.0254774,0,0,3.46964,-1
1777409982170,0.256438,0.907496,-0.0736554,-0.0413146,-0.230384,0.0270028,0,0,3.49169,-1
1777409982184,0.225662,0.91248,-0.10161,-0.0452315,-0.227845,0.0242122,0,0,3.47031,-1
1777409982197,0.211771,0.915759,-0.111851,-0.0404036,-0.205966,0.0224173,0,0,3.66931,-1
1777409982211,0.221051,0.918608,-0.106686,-0.0374008,-0.192426,0.020402,0,0,3.45173,-1
1777409982225,0.22162,0.923475,-0.10607,-0.0355941,-0.182086,0.0201653,0,0,3.57843,-1
1777409982238,0.219911,0.927179,-0.101161,-0.0332935,-0.169748,0.0193382,0,0,3.43453,-1
1777409982252,0.21923,0.931113,-0.103388,-0.0302142,-0.153427,0.0190414,0,0,3.43645,-1
1777409982265,0.210329,0.934155,-0.105189,-0.0267253,-0.13383,0.0173695,0,0,3.44366,-1
1777409982279,0.210911,0.937164,-0.105712,-0.0221347,-0.11164,0.015723,0,0,3.44414,-1
1777409982292,0.211296,0.940415,-0.104192,-0.017656,-0.0905072,0.0153163,0,0,3.44358,-1
1777409982306,0.218164,0.940374,-0.102237,-0.01345,-0.0724821,0.0146841,0,0,3.44107,-1
1777409982320,0.230412,0.942103,-0.0991587,-0.0105332,-0.0624689,0.0142373,0,0,3.44545,-1
1777409982333,0.235976,0.943118,-0.0938157,-0.0101779,-0.0604036,0.013747,0,0,3.44484,-1
1777409982347,0.235982,0.944269,-0.0936888,-0.00962839,-0.0574307,0.0133227,0,0,3.83631,-1
1777409982361,0.237151,0.946258,-0.0927062,-0.00923817,-0.0549415,0.0129436,0,0,3.43618,-1
1777409982374,0.238379,0.948862,-0.0912173,-0.00889126,-0.0526433,0.0126329,0,0,3.42921,-1
1777409982388,0.238483,0.950689,-0.0909074,-0.00840537,-0.0503369,0.0122926,0,0,3.43618,-1
1777409982401,0.239197,0.952497,-0.0905465,-0.00808376,-0.0482542,0.0118899,0,0,3.4303,-1
1777409982415,0.240009,0.953874,-0.0903017,-0.0078016,-0.0461341,0.011557,0,0,3.43904,-1
1777409982428,0.240966,0.95579,-0.0897693,-0.00731688,-0.0440173,0.0113455,0,0,3.44084,-1
1777409982443,0.241761,0.95727,-0.0892257,-0.00706917,-0.0420792,0.0110602,0,0,4.64627,-1
1777409982456,0.242456,0.958668,-0.0884113,-0.00682679,-0.0401514,0.010838,0,0,3.43271,-1
1777409982470,0.242687,0.960041,-0.0876974,-0.00651237,-0.0383145,0.0106882,0,0,3.43464,-1
1777409982484,0.243522,0.961214,-0.0870646,-0.00622843,-0.0366021,0.0105169,0,0,3.43286,-1
1777409982497,0.244159,0.962349,-0.086522,-0.0059647,-0.0351142,0.0103252,0,0,3.43143,-1
1777409982511,0.244473,0.963242,-0.0861743,-0.00568151,-0.0336798,0.0100843,0,0,3.43662,-1
1777409982524,0.245372,0.964236,-0.0860241,-0.00552981,-0.032343,0.00983122,0,0,3.43758,-1
1777409982538,0.245823,0.965489,-0.0852386,-0.00545942,-0.0312867,0.00961375,0,0,3.45447,-1
1777409982551,0.24614,0.96663,-0.0848944,-0.00525595,-0.0303496,0.00951552,0,0,3.43397,-1
1777409982565,0.246562,0.967585,-0.0843229,-0.00505961,-0.0293623,0.00928578,0,0,4.03142,-1
1777409982579,0.247165,0.968389,-0.0835371,-0.00496849,-0.028546,0.00899186,0,0,3.42975,-1
1777409982593,0.247133,0.968985,-0.0834115,-0.00485679,-0.0278268,0.00881719,0,0,3.47388,-1
1777409982606,0.247622,0.970081,-0.0833889,-0.00474707,-0.0269853,0.0086566,0,0,3.45362,-1
1777409982620,0.248016,0.970691,-0.0828882,-0.00461353,-0.0263751,0.00840653,0,0,3.45797,-1
1777409982633,0.248579,0.971294,-0.0829223,-0.00457313,-0.025782,0.00822187,0,0,3.47308,-1
1777409982647,0.248645,0.971905,-0.0830366,-0.00449645,-0.0253678,0.0080647,0,0,3.44527,-1
1777409982661,0.249159,0.972358,-0.0833774,-0.00434699,-0.0250752,0.00791206,0,0,4.3662,-1
1777409982675,0.249631,0.973251,-0.0832745,-0.00419308,-0.0247606,0.00782365,0,0,3.48108,-1
1777409982689,0.249638,0.973847,-0.0826159,-0.0040949,-0.0242966,0.00769738,0,0,3.44395,-1
1777409982702,0.250042,0.974506,-0.0819121,-0.00394228,-0.0234989,0.00762101,0,0,3.52019,-1
1777409982716,0.250354,0.974772,-0.0819461,-0.00376825,-0.0227546,0.00757033,0,0,3.43899,-1
1777409982730,0.250293,0.975653,-0.0822796,-0.00358685,-0.0220606,0.00745827,0,0,3.46788,-1
1777409982743,0.250318,0.976019,-0.0816631,-0.00345417,-0.0212856,0.00740816,0,0,3.46188,-1
1777409982757,0.250766,0.976433,-0.0813962,-0.00329895,-0.0207425,0.00743793,0,0,3.59903,-1
1777409982772,0.250531,0.976769,-0.0813907,-0.00318241,-0.0200757,0.0073804,0,0,3.48614,-1
1777409982792,0.250693,0.9771,-0.0814266,-0.00303816,-0.019472,0.00735606,0,0,6.78489,-1
1777409982806,0.250942,0.97707,-0.0814469,-0.00296194,-0.018915,0.00739732,0,0,3.44056,-1
1777409982819,0.251039,0.977124,-0.0813153,-0.00286003,-0.0183207,0.00738916,0,0,3.44556,-1
1777409982833,0.251146,0.977476,-0.0810268,-0.00280665,-0.017824,0.00731724,0,0,3.44236,-1
1777409982847,0.251013,0.977849,-0.0813433,-0.0026535,-0.0172995,0.00733498,0,0,4.28834,-1
1777409982861,0.251257,0.978215,-0.0810533,-0.00256889,-0.016783,0.00736029,0,0,3.43455,-1
1777409982875,0.251474,0.978506,-0.0812177,-0.00252327,-0.0164196,0.00731996,0,0,3.43479,-1
1777409982888,0.251679,0.978849,-0.0818522,-0.00246737,-0.0160253,0.00731614,0,0,3.43486,-1
1777409982902,0.251051,0.986403,-0.0838342,-0.000479209,-0.0197337,0.00789487,0,0,3.43749,-1
1777409982915,0.252197,0.988247,-0.0803506,0.000378353,-0.0182243,0.00790163,0,0,3.43353,-1
1777409982929,0.254703,0.986647,-0.0792397,-8.81839e-05,-0.0208759,0.00759971,0,0,3.43199,-1
1777409982943,0.258466,0.985766,-0.0704264,-0.0015562,-0.0256867,0.00781998,0,0,4.17901,-1
1777409982956,0.259716,0.977773,-0.0648875,-0.00400377,-0.0347021,0.00734709,0,0,3.4258,-1
1777409982970,0.261732,0.976267,-0.0635211,-0.00641254,-0.0453486,0.00740169,0,0,3.43217,-1
1777409982984,0.260471,0.975832,-0.0691881,-0.00916576,-0.0545543,0.00747465,0,0,3.42908,-1
1777409982997,0.255159,0.976338,-0.0773583,-0.0104843,-0.0596983,0.00734654,0,0,3.43229,-1
1777409983011,0.245544,0.978378,-0.0842759,-0.0100846,-0.0548767,0.00719137,0,0,3.42384,-1
1777409983024,0.247478,0.97944,-0.0823149,-0.00945468,-0.0517686,0.00730609,0,0,3.4324,-1
1777409983038,0.245744,0.982072,-0.0827098,-0.0085347,-0.0482567,0.00776978,0,0,3.45667,-1
1777409983051,0.251282,0.983352,-0.0784128,-0.00783331,-0.0462392,0.00760799,0,0,3.42121,-1
1777409983065,0.251087,0.985655,-0.0773011,-0.00701711,-0.0462147,0.00771647,0,0,3.43712,-1
1777409983078,0.257736,0.980256,-0.0775116,-0.00770682,-0.0462086,0.00676981,0,0,3.42512,-1
1777409983092,0.258672,0.978967,-0.077683,-0.00795534,-0.0460616,0.00653138,0,0,3.42295,-1
1777409983105,0.261541,0.979695,-0.078283,-0.008267,-0.0480981,0.00660605,0,0,3.4431,-1
1777409983119,0.26255,0.978492,-0.0799859,-0.00877955,-0.0520927,0.00662087,0,0,3.43918,-1
1777409983132,0.259094,0.978713,-0.0803471,-0.00913917,-0.0530201,0.0065064,0,0,3.46286,-1
1777409983146,0.255954,0.978113,-0.0767441,-0.00903759,-0.0511593,0.00641548,0,0,3.4243,-1
1777409983159,0.255798,0.978395,-0.0760821,-0.00883038,-0.0488806,0.00643671,0,0,3.44399,-1
1777409983173,0.256048,0.979005,-0.0757721,-0.0083265,-0.0467596,0.00650384,0,0,3.42788,-1
1777409983186,0.257585,0.979101,-0.0749318,-0.00793224,-0.0450531,0.0065929,0,0,3.4254,-1
1777409983200,0.260898,0.978342,-0.0709204,-0.00809961,-0.0455661,0.00668553,0,0,3.42862,-1
1777409983213,0.264847,0.97764,-0.063505,-0.00946079,-0.0514326,0.00664023,0,0,3.42386,-1
1777409983227,0.270314,0.975908,-0.0603263,-0.0121201,-0.0637868,0.00707275,0,0,3.42817,-1
1777409983240,0.266792,0.977027,-0.0614616,-0.0149,-0.0750626,0.00767798,0,0,3.42955,-1
1777409983254,0.258824,0.978685,-0.0735299,-0.0153145,-0.0786194,0.008382,0,0,3.43434,-1
1777409983267,0.244676,0.97832,-0.0833327,-0.0150764,-0.0719872,0.00773628,0,0,3.42349,-1
1777409983281,0.248001,0.978659,-0.0800689,-0.013931,-0.064862,0.00761919,0,0,3.42647,-1
1777409983294,0.250743,0.978158,-0.0782617,-0.0133208,-0.0615107,0.00748726,0,0,3.42712,-1
1777409983308,0.250646,0.978617,-0.0786375,-0.0129633,-0.0582788,0.007534,0,0,3.42786,-1
1777409983321,0.250405,0.979145,-0.0789511,-0.0123946,-0.0547486,0.00742826,0,0,3.43055,-1
1777409983335,0.250163,0.979288,-0.0791787,-0.0116351,-0.0513265,0.00738411,0,0,3.45005,-1
1777409983348,0.250249,0.979642,-0.0791332,-0.010961,-0.0478651,0.0074238,0,0,3.42862,-1
1777409983362,0.249866,0.980496,-0.0794327,-0.0102178,-0.044204,0.00749551,0,0,3.42506,-1
1777409983375,0.249093,0.980563,-0.080989,-0.00932776,-0.0400117,0.00739193,0,0,3.43032,-1
1777409983389,0.247459,0.980914,-0.081787,-0.00817511,-0.0348985,0.00719995,0,0,3.42462,-1
1777409983402,0.247177,0.981464,-0.0819102,-0.00701432,-0.0297724,0.00702731,0,0,3.41732,-1
1777409983416,0.248883,0.981066,-0.0811091,-0.006,-0.0257517,0.00685579,0,0,3.42749,-1
1777409983429,0.249959,0.98095,-0.0798872,-0.00530377,-0.0227743,0.00675812,0,0,3.42536,-1
1777409983443,0.251386,0.980759,-0.0791858,-0.0048821,-0.0210301,0.00662739,0,0,3.44471,-1
1777409983456,0.252486,0.98114,-0.0782225,-0.00472814,-0.0203985,0.00667954,0,0,3.43542,-1
1777409983470,0.252853,0.981157,-0.0779431,-0.00464705,-0.0196525,0.00668596,0,0,3.43627,-1
1777409983483,0.253158,0.981159,-0.078104,-0.00442064,-0.0188028,0.00677337,0,0,3.42523,-1
1777409983497,0.2532,0.981107,-0.0782284,-0.00425831,-0.0179023,0.00679165,0,0,3.43093,-1
1777409983510,0.252911,0.981153,-0.0784006,-0.00406227,-0.0171764,0.00681746,0,0,3.4253,-1
1777409983524,0.252994,0.981238,-0.0785358,-0.00401425,-0.016457,0.00691891,0,0,3.42995,-1
1777409983537,0.253183,0.980976,-0.0786771,-0.00402886,-0.0158679,0.00690333,0,0,3.52784,-1
1777409983551,0.253182,0.980728,-0.078742,-0.00390992,-0.0154659,0.00688006,0,0,3.41819,-1
1777409983564,0.253428,0.981042,-0.0789128,-0.00381049,-0.0149495,0.00691805,0,0,3.46475,-1
1777409983578,0.253236,0.981106,-0.078718,-0.00369952,-0.0145777,0.0069539,0,0,3.42573,-1
1777409983591,0.253,0.98133,-0.0784793,-0.00362046,-0.0141668,0.00689355,0,0,3.42773,-1
1777409983605,0.252831,0.981474,-0.0780623,-0.00355012,-0.0137447,0.00687511,0,0,3.42327,-1
1777409983618,0.253083,0.981061,-0.0779699,-0.00346231,-0.0134789,0.00693906,0,0,3.42542,-1
1777409983632,0.252897,0.98096,-0.0779649,-0.00338799,-0.0131125,0.00694377,0,0,3.42082,-1
1777409983645,0.253213,0.981097,-0.0780013,-0.003305,-0.0128052,0.00698674,0,0,3.43049,-1
1777409983659,0.253348,0.981157,-0.0780493,-0.00329945,-0.0125451,0.00706584,0,0,3.42855,-1
1777409983673,0.253612,0.98142,-0.0776975,-0.00317861,-0.0123809,0.00712338,0,0,3.42158,-1
1777409983686,0.253588,0.981668,-0.077338,-0.00315018,-0.0122345,0.00721623,0,0,3.42786,-1
1777409983699,0.253893,0.981532,-0.0772315,-0.00308909,-0.0120407,0.00718826,0,0,3.41905,-1
1777409983713,0.254086,0.981746,-0.0775692,-0.00310421,-0.0119005,0.00706337,0,0,3.42599,-1
1777409983726,0.254158,0.982195,-0.0772991,-0.0029515,-0.0116098,0.00709536,0,0,3.42038,-1
1777409983740,0.253993,0.98229,-0.0772222,-0.00288871,-0.0113739,0.00705276,0,0,3.48025,-1
1777409983754,0.254207,0.982119,-0.0773139,-0.00286797,-0.0111127,0.00699113,0,0,3.43238,-1
1777409983767,0.254327,0.982794,-0.0776744,-0.00282271,-0.0110974,0.00706143,0,0,3.42432,-1
1777409983781,0.254358,0.982115,-0.0778092,-0.00283137,-0.0110316,0.00703357,0,0,3.43777,-1
1777409983794,0.254621,0.982297,-0.0780871,-0.00275819,-0.0108196,0.00694734,0,0,3.4316,-1
1777409983808,0.254142,0.982893,-0.0778839,-0.00279616,-0.0108335,0.00698155,0,0,3.41897,-1
1777409983821,0.254061,0.983058,-0.0778152,-0.00289195,-0.0107782,0.00696674,0,0,3.42777,-1
1777409983835,0.254189,0.983187,-0.0777641,-0.00272973,-0.0106917,0.00702127,0,0,3.42492,-1
1777409983848,0.254598,0.983267,-0.0777844,-0.00269223,-0.0106401,0.00697426,0,0,3.43358,-1
1777409983862,0.254778,0.983302,-0.0778172,-0.00262257,-0.01051,0.00701981,0,0,3.45756,-1
1777409983875,0.254893,0.983431,-0.0777933,-0.0025611,-0.0103786,0.00694719,0,0,3.45949,-1
1777409983889,0.254893,0.9831,-0.0777161,-0.00260584,-0.0101476,0.00690434,0,0,3.43492,-1
1777409983902,0.255043,0.982596,-0.0775884,-0.00251106,-0.00996374,0.00687673,0,0,3.43867,-1
1777409983916,0.25487,0.982326,-0.0779472,-0.00252863,-0.00982019,0.00687637,0,0,3.44343,-1
1777409983929,0.254802,0.98266,-0.0781625,-0.00257948,-0.00965472,0.00682464,0,0,3.43355,-1
1777409983943,0.253725,0.982661,-0.0788178,-0.00242195,-0.00905322,0.00674584,0,0,3.43766,-1
1777409983956,0.252899,0.98262,-0.0802442,-0.00211054,-0.00765049,0.00668859,0,0,3.43312,-1
1777409983970,0.252874,0.982979,-0.0801664,-0.00163676,-0.0062194,0.00660458,0,0,3.43601,-1
1777409983983,0.252466,0.982632,-0.0802163,-0.00122809,-0.0042734,0.00652528,0,0,3.43292,-1
1777409983997,0.253601,0.98221,-0.0799894,-0.00100077,-0.00299749,0.00648468,0,0,3.44271,-1
1777409984010,0.254604,0.982126,-0.0790221,-0.000944638,-0.00267092,0.00647206,0,0,3.43173,-1
1777409984024,0.254209,0.982457,-0.0792867,-0.000814578,-0.00262387,0.00643444,0,0,3.43727,-1
1777409984037,0.252823,0.982921,-0.0802349,-0.000683249,-0.00243387,0.00641607,0,0,3.4336,-1
1777409984051,0.252911,0.983359,-0.0788019,-0.000353757,-0.00134677,0.00641585,0,0,3.43249,-1
1777409984064,0.255007,0.98306,-0.0775178,-0.000222586,-0.00132689,0.00634714,0,0,3.43905,-1
1777409984078,0.254726,0.983435,-0.075525,-0.000231509,-0.00377448,0.00601252,0,0,3.43105,-1
1777409984091,0.254228,0.985144,-0.0778072,-8.71224e-06,-0.00653438,0.00620622,0,0,3.43564,-1
1777409984105,0.253375,0.985676,-0.0764008,0.000145924,-0.00525153,0.00629056,0,0,3.43393,-1
1777409984118,0.253487,0.986151,-0.0760319,-0.000187683,-0.00481994,0.0064601,0,0,3.43621,-1
1777409984132,0.253771,0.985203,-0.0761904,-9.58003e-05,-0.00511478,0.00643172,0,0,3.43451,-1
1777409984145,0.253888,0.984937,-0.0763948,-0.000278829,-0.00506338,0.00639637,0,0,3.4394,-1
1777409984159,0.253889,0.985645,-0.0764097,-0.000241779,-0.00525465,0.00655141,0,0,3.43825,-1
1777409984172,0.253931,0.985355,-0.0763826,-0.0002796,-0.00510121,0.00661211,0,0,3.4331,-1
1777409984186,0.253601,0.984916,-0.0764393,-0.000315298,-0.00482363,0.0065538,0,0,3.43753,-1
1777409984200,0.254494,0.984475,-0.0764106,-0.000301894,-0.00483567,0.00659724,0,0,3.43836,-1
1777409984213,0.251859,0.985455,-0.0812724,-0.0020234,-0.00818688,0.00595314,0,0,3.44127,-1
1777409984227,0.251016,0.988079,-0.0775079,-0.00111776,-0.00987715,0.00642421,0,0,3.43064,-1
1777409984240,0.248206,0.987447,-0.081733,-0.00164167,-0.0120892,0.00629508,0,0,3.43008,-1
1777409984254,0.248882,0.987411,-0.0810924,-0.00177224,-0.0127642,0.00613466,0,0,3.44279,-1
1777409984267,0.249479,0.986994,-0.0809945,-0.00192546,-0.0137995,0.00607743,0,0,3.42956,-1
1777409984281,0.249549,0.986971,-0.0821208,-0.00197589,-0.0142115,0.00609193,0,0,3.43921,-1
1777409984294,0.249561,0.986853,-0.0825403,-0.00166809,-0.0135813,0.00626832,0,0,3.43167,-1
1777409984308,0.254406,0.985687,-0.0894137,-0.00217827,-0.0159153,0.0062036,0,0,3.45923,-1
1777409984321,0.253392,0.986914,-0.0869044,-0.00188909,-0.0153052,0.00665634,0,0,3.43851,-1
1777409984335,0.254516,0.987538,-0.0871514,-0.00196725,-0.0163307,0.0067711,0,0,3.45975,-1
1777409984348,0.255358,0.988333,-0.0910958,-0.00270899,-0.0207542,0.0066953,0,0,3.44395,-1
1777409984362,0.254702,0.988002,-0.0921622,-0.00410279,-0.0254005,0.0066152,0,0,3.43799,-1
1777409984375,0.250919,0.98914,-0.0843359,-0.00367569,-0.023479,0.00666376,0,0,3.45884,-1
1777409984389,0.251565,0.989051,-0.0822346,-0.00340956,-0.0231854,0.00667106,0,0,3.43217,-1
1777409984402,0.252409,0.98883,-0.0812646,-0.00332108,-0.0228611,0.00669507,0,0,3.43288,-1
1777409984416,0.25315,0.988553,-0.0806777,-0.00320758,-0.0224609,0.00667064,0,0,3.43544,-1
1777409984429,0.253152,0.987401,-0.0801784,-0.00332311,-0.0222629,0.00654482,0,0,3.45853,-1
1777409984443,0.252619,0.986656,-0.080118,-0.00323091,-0.0219647,0.00647315,0,0,3.42451,-1
1777409984456,0.252965,0.986377,-0.0799241,-0.00322524,-0.0215462,0.00637125,0,0,3.44708,-1
1777409984470,0.253291,0.98595,-0.0801107,-0.00318134,-0.0209628,0.00625794,0,0,3.4371,-1
1777409984483,0.253518,0.986026,-0.0802732,-0.0030243,-0.0205705,0.00620665,0,0,3.43056,-1
1777409984497,0.253361,0.985564,-0.0804266,-0.00297884,-0.0203458,0.0061668,0,0,3.43969,-1
1777409984510,0.253091,0.985757,-0.0807357,-0.00288454,-0.0202836,0.00614631,0,0,3.42962,-1
1777409984524,0.253013,0.985378,-0.0806852,-0.0029454,-0.0204004,0.00599423,0,0,3.44095,-1
1777409984537,0.25268,0.985541,-0.0808428,-0.0030114,-0.0209003,0.00600055,0,0,3.43214,-1
1777409984551,0.252927,0.985421,-0.0807452,-0.00303089,-0.0214793,0.00587806,0,0,3.43973,-1
1777409984564,0.252995,0.98465,-0.0813377,-0.0030921,-0.0220172,0.00579241,0,0,3.43627,-1
1777409984578,0.252964,0.984511,-0.0815409,-0.00306852,-0.0220924,0.00578436,0,0,3.43021,-1
1777409984592,0.252551,0.984339,-0.0818834,-0.00308908,-0.0223818,0.00571253,0,0,4.13699,-1
1777409984607,0.254161,0.983684,-0.0830557,-0.00314275,-0.0232545,0.00570467,0,0,3.49658,-1
1777409984620,0.255818,0.983312,-0.0842308,-0.00354452,-0.0249046,0.00580431,0,0,3.46238,-1
1777409984634,0.255259,0.983632,-0.0826284,-0.00380385,-0.0264407,0.00579131,0,0,3.42977,-1
1777409984647,0.253964,0.983181,-0.0812665,-0.00408718,-0.0269058,0.00582185,0,0,3.48018,-1
1777409984661,0.253769,0.983028,-0.0809808,-0.00414053,-0.0271693,0.00593204,0,0,3.43534,-1
1777409984675,0.25212,0.983214,-0.0799304,-0.00407098,-0.026643,0.00589903,0,0,3.43547,-1
1777409984688,0.252151,0.983183,-0.0803495,-0.00389402,-0.0254397,0.00590212,0,0,3.43682,-1
1777409984702,0.25251,0.983222,-0.0804165,-0.00364134,-0.0245265,0.00593074,0,0,3.43238,-1
1777409984715,0.252684,0.983068,-0.0805755,-0.00336001,-0.0235361,0.00590208,0,0,3.43664,-1
1777409984729,0.252671,0.983073,-0.0802737,-0.00320579,-0.0226141,0.00599492,0,0,3.43042,-1
1777409984742,0.253014,0.983105,-0.0802217,-0.00302169,-0.0217738,0.00604402,0,0,3.44197,-1
1777409984756,0.253324,0.983614,-0.0798713,-0.00283507,-0.0209079,0.00615887,0,0,3.44918,-1
1777409984769,0.253274,0.983547,-0.079924,-0.00272743,-0.020159,0.0062159,0,0,3.43449,-1
1777409984783,0.253351,0.983073,-0.0800011,-0.00267292,-0.0194093,0.00620979,0,0,3.43703,-1
1777409984796,0.253615,0.982886,-0.0797726,-0.00274565,-0.0187959,0.00619117,0,0,3.42673,-1
1777409984810,0.25359,0.983983,-0.0798719,-0.00245034,-0.018371,0.0064091,0,0,3.43395,-1
1777409984824,0.253868,0.98421,-0.0800341,-0.00241566,-0.0179101,0.00637502,0,0,3.43477,-1
1777409984837,0.253829,0.984179,-0.0801872,-0.00233582,-0.0173807,0.00638138,0,0,3.44212,-1
1777409984851,0.253943,0.984217,-0.0805645,-0.00211916,-0.0167526,0.00633601,0,0,3.69206,-1
1777409984864,0.254037,0.98376,-0.0801538,-0.0020688,-0.0162454,0.00642164,0,0,3.44079,-1
1777409984878,0.253879,0.983781,-0.0801085,-0.00199986,-0.0159379,0.00648962,0,0,3.43321,-1
1777409984891,0.254209,0.983787,-0.0801479,-0.00172925,-0.0154678,0.00639964,0,0,3.42882,-1
1777409984905,0.254083,0.984313,-0.0803768,-0.00157659,-0.0149599,0.00656306,0,0,3.43512,-1
1777409984918,0.253867,0.984084,-0.0805928,-0.00159092,-0.0145189,0.00656744,0,0,3.43286,-1
1777409984932,0.253459,0.984073,-0.0809611,-0.0015445,-0.0142783,0.00655874,0,0,3.43549,-1
1777409984946,0.252416,0.985486,-0.080624,-0.00089266,-0.012484,0.0068374,0,0,3.43306,-1
1777409984959,0.252677,0.984863,-0.0808125,-0.00066275,-0.0115996,0.00674504,0,0,3.44782,-1
1777409984973,0.252637,0.984643,-0.0808671,-0.000604166,-0.0112487,0.00682058,0,0,3.4349,-1
1777409984986,0.252557,0.985204,-0.0805901,-0.000617377,-0.0110331,0.00684905,0,0,3.43377,-1
1777409985000,0.252715,0.984596,-0.0806846,-0.00061272,-0.0108595,0.00678601,0,0,3.43169,-1
1777409985013,0.252563,0.984515,-0.080363,-0.00059976,-0.0107043,0.00676076,0,0,3.4359,-1
1777409985027,0.252665,0.984548,-0.080347,-0.000578964,-0.010592,0.00670267,0,0,3.43114,-1
1777409985040,0.252735,0.984689,-0.0803182,-0.000507952,-0.0102847,0.00670779,0,0,3.43508,-1
1777409985054,0.252801,0.984754,-0.0802911,-0.000496587,-0.0100461,0.00667408,0,0,3.69058,-1
1777409985067,0.253054,0.984801,-0.0802654,-0.000511551,-0.00992362,0.00672362,0,0,3.43019,-1
1777409985081,0.253047,0.984613,-0.0800769,-0.00049142,-0.00980801,0.00666762,0,0,3.44853,-1
1777409985095,0.252945,0.984791,-0.0800222,-0.000502392,-0.00963894,0.00667042,0,0,3.43488,-1
1777409985108,0.252985,0.984439,-0.0798062,-0.00058554,-0.00957356,0.00668591,0,0,3.44034,-1
1777409985122,0.252982,0.984244,-0.0792052,-0.000646897,-0.00940479,0.00676048,0,0,3.44442,-1
1777409985135,0.253007,0.984155,-0.0789666,-0.000602047,-0.0093868,0.00684799,0,0,3.43429,-1
1777409985149,0.253139,0.984031,-0.0791933,-0.000551149,-0.00911718,0.00684495,0,0,3.44597,-1
1777409985162,0.253182,0.984406,-0.0791334,-0.000468852,-0.00895261,0.00682496,0,0,3.43792,-1
1777409985176,0.253319,0.984747,-0.0788166,-0.000468244,-0.00890859,0.00680609,0,0,3.44401,-1
1777409985189,0.253242,0.984466,-0.0787915,-0.000489079,-0.00884992,0.006784,0,0,3.4356,-1
1777409985203,0.253074,0.984187,-0.0790691,-0.000461646,-0.00871318,0.00681024,0,0,3.4376,-1
1777409985216,0.252984,0.984307,-0.0793448,-0.000470006,-0.0085884,0.00682646,0,0,3.44038,-1
1777409985230,0.253049,0.984379,-0.0792901,-0.000413669,-0.0084492,0.00684604,0,0,3.43355,-1
1777409985243,0.252755,0.984036,-0.0793069,-0.000390465,-0.0085576,0.00671038,0,0,3.4373,-1
1777409985257,0.252737,0.984165,-0.0792543,-0.00077534,-0.0104326,0.00653522,0,0,3.62473,-1
1777409985271,0.253501,0.984642,-0.0803276,-0.000753259,-0.0117357,0.00636989,0,0,3.44295,-1
1777409985284,0.253182,0.984011,-0.0802725,-0.00115204,-0.0137193,0.00610679,0,0,3.43493,-1
1777409985298,0.253797,0.984415,-0.0804533,-0.00155842,-0.0145855,0.00602544,0,0,3.4461,-1
1777409985311,0.257022,0.983892,-0.0833218,-0.00257573,-0.0196635,0.00583732,0,0,3.43462,-1
1777409985325,0.260791,0.981879,-0.0858651,-0.00434096,-0.0273126,0.00557412,0,0,3.75973,-1
1777409985339,0.26098,0.982813,-0.0845408,-0.00583162,-0.0343871,0.00564254,0,0,3.45816,-1
1777409985352,0.25616,0.984079,-0.0807847,-0.00693893,-0.0373995,0.00569428,0,0,3.43005,-1
1777409985366,0.251953,0.984698,-0.0775131,-0.00678093,-0.0360425,0.00579878,0,0,3.44369,-1
1777409985379,0.251651,0.985638,-0.0781089,-0.00627212,-0.0343976,0.00600874,0,0,3.43501,-1
1777409985393,0.251408,0.985088,-0.0784248,-0.00596312,-0.0329991,0.00591148,0,0,3.45256,-1
1777409985406,0.251918,0.985473,-0.0785312,-0.00556869,-0.0317732,0.00589675,0,0,3.43593,-1
1777409985420,0.251495,0.985671,-0.0786728,-0.00532912,-0.0307103,0.00587856,0,0,3.43992,-1
1777409985433,0.251453,0.985311,-0.0786968,-0.00512011,-0.0297542,0.00578432,0,0,3.43819,-1
1777409985447,0.251672,0.9853,-0.0788291,-0.00479866,-0.0287146,0.00583239,0,0,3.43195,-1
1777409985460,0.25162,0.985275,-0.079132,-0.00463654,-0.0278918,0.0058906,0,0,3.44784,-1
1777409985474,0.251529,0.985005,-0.0794178,-0.0045563,-0.0269781,0.00584707,0,0,3.43342,-1
1777409985488,0.251621,0.985121,-0.0794138,-0.00436924,-0.026317,0.005943,0,0,3.43342,-1
1777409985501,0.252023,0.984832,-0.079095,-0.00411131,-0.02577,0.00585799,0,0,3.43401,-1
1777409985515,0.252457,0.984095,-0.0787393,-0.00325555,-0.0231812,0.00615884,0,0,3.44158,-1
1777409985528,0.252018,0.986041,-0.0786912,-0.00257624,-0.0221078,0.0063957,0,0,3.43282,-1
1777409985542,0.251864,0.984839,-0.0785909,-0.00261157,-0.0214587,0.00619538,0,0,3.42753,-1
1777409985555,0.251814,0.985196,-0.0781814,-0.00244795,-0.020696,0.00636169,0,0,3.43071,-1
1777409985569,0.251808,0.984794,-0.0781645,-0.00232349,-0.0199762,0.00642447,0,0,3.43686,-1
1777409985582,0.251748,0.984579,-0.0784088,-0.00221457,-0.0190826,0.00650942,0,0,3.43734,-1
1777409985596,0.251896,0.984458,-0.0785298,-0.00198758,-0.0181064,0.00659389,0,0,3.42664,-1
1777409985609,0.251859,0.983631,-0.0785619,-0.00181186,-0.0167225,0.00657942,0,0,3.44845,-1
1777409985623,0.25196,0.984235,-0.078332,-0.001646,-0.0159858,0.00671134,0,0,3.42819,-1
1777409985636,0.252343,0.984133,-0.0778137,-0.0014766,-0.0153589,0.00683158,0,0,3.42669,-1
1777409985650,0.252485,0.984023,-0.0782283,-0.00129101,-0.0143089,0.00695792,0,0,3.43008,-1
1777409985663,0.252716,0.983892,-0.0783868,-0.00106873,-0.0133222,0.00708146,0,0,3.43647,-1
1777409985677,0.252536,0.98396,-0.0782352,-0.00077328,-0.0119498,0.00708674,0,0,3.43355,-1
1777409985690,0.252462,0.984258,-0.078092,-0.000391638,-0.0105473,0.00719877,0,0,3.42577,-1
1777409985704,0.252872,0.984141,-0.0779022,-0.000159859,-0.00920205,0.00721031,0,0,3.43943,-1
1777409985717,0.253258,0.984154,-0.0777093,6.74831e-05,-0.00807357,0.00725546,0,0,3.42703,-1
1777409985731,0.253062,0.984427,-0.0774861,0.000247818,-0.00706835,0.00730665,0,0,3.43293,-1
1777409985744,0.252767,0.984821,-0.0775904,0.000456574,-0.00596536,0.00732927,0,0,3.43032,-1
1777409985758,0.252817,0.984864,-0.0774971,0.000610802,-0.00477438,0.00732921,0,0,3.43312,-1
1777409985772,0.253125,0.984412,-0.0774091,0.000842016,-0.00323914,0.00727349,0,0,3.44203,-1
1777409985785,0.254114,0.984082,-0.0783257,0.000991751,-0.00218395,0.00728084,0,0,3.43316,-1
1777409985799,0.254951,0.983701,-0.0791772,0.000692055,-0.0026138,0.00718074,0,0,3.44095,-1
1777409985812,0.25507,0.983643,-0.079214,0.000503371,-0.00297673,0.0072404,0,0,3.43645,-1
1777409985826,0.254704,0.983917,-0.0793857,0.000338116,-0.00325079,0.00715112,0,0,3.45364,-1
1777409985839,0.254111,0.983901,-0.0794246,0.000160721,-0.00348807,0.00715249,0,0,3.42693,-1
1777409985853,0.254155,0.984024,-0.0798036,4.03777e-05,-0.00371632,0.00708528,0,0,3.42714,-1
1777409985866,0.253867,0.983824,-0.0797642,-4.32426e-05,-0.00403025,0.00703468,0,0,3.43962,-1
1777409985880,0.253883,0.983869,-0.079686,-0.000177837,-0.00423237,0.00704258,0,0,3.44138,-1
1777409985893,0.25398,0.983719,-0.0795026,-0.000219244,-0.00447453,0.00704576,0,0,3.43332,-1
1777409985907,0.253661,0.9834,-0.0795348,-0.000301147,-0.00468599,0.00697169,0,0,3.42819,-1
1777409985920,0.253702,0.983222,-0.0794284,-0.000374174,-0.00491127,0.00690177,0,0,3.43449,-1
1777409985934,0.253659,0.983328,-0.0791909,-0.000348904,-0.00506826,0.00686146,0,0,3.43153,-1
1777409985947,0.253727,0.983236,-0.0793639,-0.000436379,-0.00537058,0.00690905,0,0,3.4406,-1
1777409985961,0.253847,0.983067,-0.0793081,-0.000463284,-0.00556603,0.00690688,0,0,3.44836,-1
1777409985974,0.253658,0.983264,-0.0796389,-0.000600008,-0.00566916,0.0070033,0,0,3.43008,-1
1777409985988,0.25396,0.98297,-0.0792938,-0.000600607,-0.00574081,0.00695302,0,0,3.44062,-1
1777409986001,0.253642,0.983144,-0.0793789,-0.000673964,-0.00591121,0.00690128,0,0,3.43751,-1
1777409986015,0.253383,0.983035,-0.0791716,-0.000786025,-0.0061063,0.00689097,0,0,3.43234,-1
1777409986028,0.253248,0.983152,-0.0790444,-0.000836136,-0.00632043,0.00685983,0,0,3.42693,-1
1777409986042,0.253052,0.983261,-0.0790339,-0.000977637,-0.00637696,0.00688183,0,0,3.44842,-1
1777409986056,0.252963,0.983598,-0.0791747,-0.00102128,-0.00648598,0.00691543,0,0,3.42673,-1
1777409986069,0.25318,0.983819,-0.0790062,-0.000998251,-0.0065632,0.00683582,0,0,3.43458,-1
1777409986083,0.253426,0.983645,-0.0792992,-0.00101933,-0.00658042,0.00679493,0,0,3.43843,-1
1777409986096,0.253316,0.983631,-0.0791648,-0.00104351,-0.00666947,0.006812,0,0,3.42725,-1
1777409986110,0.253076,0.984221,-0.079668,-0.0010749,-0.00685629,0.00681955,0,0,3.43255,-1
1777409986123,0.25315,0.984394,-0.0791569,-0.00107455,-0.00689561,0.00675388,0,0,3.42655,-1
1777409986137,0.253329,0.984283,-0.079236,-0.00106137,-0.00703548,0.00670474,0,0,3.43434,-1
1777409986150,0.253115,0.984083,-0.0793928,-0.00108319,-0.00714182,0.00666693,0,0,3.42795,-1
1777409986164,0.253187,0.984031,-0.079801,-0.00110379,-0.00722936,0.00665264,0,0,3.69388,-1
1777409986178,0.253364,0.983776,-0.07957,-0.00113608,-0.00734623,0.00661346,0,0,3.43171,-1
1777409986191,0.253477,0.983796,-0.0795848,-0.00117084,-0.00741373,0.00670922,0,0,3.43308,-1
1777409986205,0.253596,0.983596,-0.0797905,-0.00119936,-0.00752026,0.00664118,0,0,3.43934,-1
1777409986218,0.253532,0.983612,-0.0792726,-0.00123913,-0.00756516,0.00673538,0,0,3.43801,-1
1777409986232,0.253156,0.98371,-0.0793862,-0.00118675,-0.00767176,0.00674295,0,0,3.43293,-1
1777409986245,0.253129,0.983679,-0.0795209,-0.00113731,-0.00774241,0.00681859,0,0,3.42879,-1
1777409986259,0.253118,0.983197,-0.079826,-0.00110777,-0.00777484,0.00686431,0,0,3.44029,-1
1777409986272,0.253313,0.983044,-0.0796621,-0.00116125,-0.00787825,0.00676188,0,0,3.43986,-1
1777409986286,0.253237,0.983119,-0.0798087,-0.00111324,-0.00800583,0.00672942,0,0,3.43366,-1
1777409986299,0.25311,0.983134,-0.0795773,-0.00116212,-0.00804061,0.00676301,0,0,3.43223,-1
1777409986313,0.253072,0.983108,-0.0796876,-0.00118685,-0.00813339,0.00672192,0,0,3.42832,-1
1777409986326,0.253215,0.98296,-0.0791343,-0.00114169,-0.00828948,0.00672596,0,0,3.43032,-1
1777409986340,0.253144,0.983081,-0.0791188,-0.00119754,-0.00838971,0.00672977,0,0,3.43406,-1
1777409986353,0.253009,0.983003,-0.0790768,-0.00125026,-0.00838583,0.00670767,0,0,3.43393,-1
1777409986367,0.253155,0.982997,-0.0789412,-0.00128718,-0.00836076,0.00672107,0,0,3.45677,-1
1777409986380,0.253211,0.98302,-0.0793473,-0.00134343,-0.00834138,0.00666521,0,0,3.43816,-1
1777409986394,0.253099,0.983123,-0.0793199,-0.00143507,-0.00829312,0.00670669,0,0,3.43612,-1
1777409986407,0.253281,0.983303,-0.0793624,-0.00135885,-0.00826897,0.00672014,0,0,3.43432,-1
1777409986421,0.253412,0.983062,-0.0791697,-0.00144534,-0.00832753,0.00668574,0,0,3.43342,-1
1777409986434,0.253289,0.982971,-0.0790837,-0.00141137,-0.0082886,0.00667896,0,0,3.42708,-1
1777409986448,0.253132,0.982899,-0.0786328,-0.0013579,-0.00830753,0.006664,0,0,3.44034,-1
1777409986461,0.253258,0.98279,-0.0787687,-0.00135452,-0.00827401,0.00673551,0,0,3.42731,-1
1777409986475,0.253349,0.982441,-0.0788969,-0.00138559,-0.00822524,0.00674307,0,0,3.45797,-1
1777409986488,0.253339,0.982591,-0.0784565,-0.00132928,-0.00830338,0.00672451,0,0,3.43158,-1
1777409986502,0.253618,0.982691,-0.0785748,-0.00140458,-0.00828294,0.00672412,0,0,3.42869,-1
1777409986515,0.253497,0.982703,-0.0791247,-0.00136433,-0.00837925,0.00672804,0,0,3.42929,-1
1777409986529,0.253492,0.982893,-0.0790687,-0.00143338,-0.00848301,0.00668891,0,0,3.43343,-1
1777409986543,0.25357,0.982757,-0.078824,-0.00146431,-0.0084739,0.00670336,0,0,3.43142,-1
1777409986556,0.253562,0.982724,-0.0789902,-0.00143356,-0.00848671,0.00669988,0,0,3.42703,-1
1777409986570,0.253609,0.982858,-0.0789143,-0.00133174,-0.00844742,0.0066709,0,0,3.45442,-1
1777409986583,0.253666,0.982546,-0.078692,-0.00130842,-0.00844031,0.00663926,0,0,3.42769,-1
1777409986597,0.25357,0.982772,-0.0786876,-0.00129497,-0.00845928,0.00667362,0,0,3.43086,-1
1777409986610,0.253616,0.982779,-0.0787382,-0.00126943,-0.00843866,0.00662042,0,0,3.43155,-1
1777409986624,0.253482,0.982896,-0.0784162,-0.00131812,-0.00841919,0.00661303,0,0,3.42729,-1
1777409986637,0.253451,0.983089,-0.0783314,-0.00127844,-0.00832374,0.00664886,0,0,3.43223,-1
1777409986651,0.253436,0.983229,-0.0783883,-0.00125811,-0.00827647,0.00663987,0,0,3.42712,-1
1777409986664,0.253791,0.983266,-0.0781407,-0.00129887,-0.00827894,0.00665707,0,0,3.43247,-1
1777409986678,0.253989,0.983411,-0.0786328,-0.00131165,-0.00833694,0.00663049,0,0,3.43716,-1
1777409986691,0.253792,0.983259,-0.0788782,-0.00129802,-0.00843879,0.00657543,0,0,3.44758,-1
1777409986705,0.253539,0.983144,-0.0789592,-0.00125947,-0.00843645,0.00659625,0,0,3.43162,-1
1777409986718,0.253422,0.983295,-0.0790494,-0.00120167,-0.00837428,0.00662446,0,0,3.42956,-1
1777409986732,0.253381,0.983109,-0.079203,-0.00120277,-0.00842694,0.0066254,0,0,3.43688,-1
1777409986745,0.253493,0.982715,-0.0793616,-0.00125092,-0.00835246,0.00664342,0,0,3.42697,-1
1777409986759,0.253749,0.982986,-0.0793196,-0.001215,-0.00820938,0.00663901,0,0,3.43329,-1
1777409986772,0.253401,0.983255,-0.0796498,-0.00118539,-0.00830125,0.00659632,0,0,3.44862,-1
1777409986786,0.253471,0.983305,-0.079263,-0.00113602,-0.00836228,0.00656886,0,0,3.4456,-1
1777409986799,0.253577,0.983543,-0.0790759,-0.00114509,-0.00843702,0.00661146,0,0,3.42731,-1
1777409986813,0.253322,0.983411,-0.0788171,-0.00121788,-0.00848187,0.00659172,0,0,3.43227,-1
1777409986826,0.25319,0.983383,-0.0790659,-0.00125233,-0.00839147,0.00668441,0,0,3.43149,-1
1777409986840,0.253176,0.983548,-0.079287,-0.00130198,-0.00842603,0.00668199,0,0,3.4328,-1
1777409986853,0.252984,0.98328,-0.0794409,-0.00126748,-0.0085186,0.00671824,0,0,3.43114,-1
1777409986867,0.252926,0.983396,-0.0793123,-0.00127774,-0.00861883,0.00667538,0,0,3.4258,-1
1777409986880,0.252858,0.983643,-0.0792457,-0.00131312,-0.00868774,0.00667775,0,0,3.45714,-1
1777409986894,0.252643,0.983766,-0.079402,-0.00132082,-0.00869283,0.00665001,0,0,3.4293,-1
1777409986907,0.252618,0.983978,-0.0792756,-0.00131952,-0.00875759,0.00661526,0,0,3.43295,-1
1777409986921,0.252759,0.983973,-0.078855,-0.00129261,-0.00878875,0.00660815,0,0,3.4376,-1
1777409986935,0.252878,0.983749,-0.0784306,-0.00127577,-0.00869826,0.00663142,0,0,3.43375,-1
1777409986948,0.252661,0.983798,-0.0785915,-0.00128984,-0.00874559,0.00667479,0,0,3.43362,-1
1777409986962,0.252457,0.983666,-0.0786064,-0.00123034,-0.00868321,0.00666006,0,0,3.43131,-1
1777409986975,0.25247,0.983747,-0.0783466,-0.0012384,-0.00866287,0.00668469,0,0,3.45453,-1
1777409986989,0.252496,0.983727,-0.0787176,-0.00130595,-0.00875072,0.00666941,0,0,3.43423,-1
1777409987002,0.252644,0.983736,-0.0788898,-0.00126267,-0.00882936,0.00658219,0,0,3.44212,-1
1777409987016,0.252646,0.983457,-0.0790249,-0.00129461,-0.00878798,0.00661976,0,0,3.43669,-1
1777409987029,0.252895,0.983577,-0.0792072,-0.00132476,-0.00885596,0.00663809,0,0,3.43493,-1
1777409987043,0.252705,0.983635,-0.0793519,-0.00129755,-0.00895011,0.00666396,0,0,3.43845,-1
1777409987056,0.252827,0.983691,-0.0793653,-0.00136607,-0.008842,0.00670978,0,0,3.43123,-1
1777409987070,0.252983,0.983373,-0.0789534,-0.00143931,-0.00883417,0.0067616,0,0,3.43856,-1
1777409987083,0.25283,0.983813,-0.0788795,-0.00140996,-0.00882677,0.00675057,0,0,3.43645,-1
1777409987097,0.252644,0.983762,-0.0790974,-0.00144648,-0.00893112,0.00674015,0,0,3.45119,-1
1777409987110,0.253043,0.983769,-0.0791798,-0.00143385,-0.00905102,0.00667037,0,0,3.45412,-1
1777409987124,0.253037,0.983461,-0.0790384,-0.00143478,-0.00905287,0.00662592,0,0,3.44047,-1
1777409987138,0.253181,0.98369,-0.0786038,-0.0014485,-0.00902036,0.00663534,0,0,3.56684,-1
1777409987151,0.253359,0.98366,-0.078618,-0.00148714,-0.00904533,0.00661426,0,0,3.57473,-1
1777409987165,0.253403,0.983604,-0.0784808,-0.00145511,-0.0090946,0.00649588,0,0,3.58149,-1
1777409987179,0.253254,0.983771,-0.0785567,-0.00148053,-0.00899552,0.00645265,0,0,3.58049,-1
1777409987192,0.253359,0.983626,-0.0786694,-0.00147028,-0.00910325,0.00651461,0,0,3.58512,-1
1777409987206,0.253444,0.983573,-0.0785841,-0.00144775,-0.00901225,0.00661591,0,0,3.57584,-1
1777409987220,0.253443,0.983426,-0.0788596,-0.00138367,-0.00905481,0.00660877,0,0,3.58553,-1
1777409987233,0.25366,0.983507,-0.0787636,-0.0014388,-0.00905644,0.00661915,0,0,3.58779,-1
1777409987247,0.253592,0.983446,-0.0787141,-0.00136665,-0.0090794,0.00661611,0,0,3.60308,-1
1777409987261,0.253514,0.98306,-0.0788317,-0.0013842,-0.00898973,0.00663036,0,0,3.61056,-1
1777409987275,0.25355,0.983257,-0.0791892,-0.00138363,-0.00913632,0.00663954,0,0,3.6049,-1
1777409987288,0.253159,0.98284,-0.07902,-0.0013574,-0.00913767,0.00661822,0,0,3.61779,-1
1777409987302,0.25357,0.98331,-0.0788876,-0.00138831,-0.00904045,0.006551,0,0,3.60527,-1
1777409987316,0.253767,0.982986,-0.0788585,-0.00142176,-0.00894869,0.00654322,0,0,3.62269,-1
1777409987329,0.253611,0.983392,-0.0791187,-0.00151757,-0.00898197,0.00657012,0,0,3.6059,-1
1777409987343,0.253655,0.983228,-0.0794601,-0.00150095,-0.00897913,0.00665975,0,0,3.60423,-1
1777409987357,0.253546,0.983265,-0.0794262,-0.00150668,-0.0090107,0.00675291,0,0,3.60732,-1
1777409987371,0.253155,0.983382,-0.0796545,-0.0014607,-0.00910473,0.00671239,0,0,3.6021,-1
1777409987384,0.252992,0.983411,-0.0797468,-0.00142587,-0.00907788,0.00665273,0,0,3.61445,-1
1777409987398,0.25292,0.983561,-0.0796969,-0.00138014,-0.00907822,0.00654504,0,0,3.6236,-1
1777409987412,0.252865,0.98336,-0.0799374,-0.0013798,-0.009207,0.00664036,0,0,3.6256,-1
1777409987425,0.252842,0.983157,-0.0796577,-0.00145655,-0.00907164,0.00661471,0,0,3.60184,-1
1777409987439,0.253038,0.983102,-0.0801606,-0.00140482,-0.00890534,0.00663333,0,0,3.60527,-1
1777409987453,0.253087,0.982803,-0.079841,-0.00143735,-0.00879118,0.00662093,0,0,3.60475,-1
1777409987467,0.253421,0.983261,-0.080046,-0.00144665,-0.00878192,0.00661778,0,0,3.6024,-1
1777409987480,0.253283,0.983379,-0.0800204,-0.00147255,-0.00887165,0.0065463,0,0,3.68631,-1
1777409987494,0.254277,0.982517,-0.0773532,-0.00182242,-0.00953012,0.0068899,0,0,3.59519,-1
1777409987508,0.2549,0.985305,-0.0786564,-0.00119781,-0.00975344,0.00708148,0,0,3.60803,-1
1777409987521,0.254392,0.98335,-0.0802015,-0.00144319,-0.00957887,0.00675277,0,0,3.59599,-1
1777409987535,0.252694,0.98453,-0.0813038,-0.00131942,-0.00902872,0.00694776,0,0,3.63769,-1
1777409987549,0.252078,0.984823,-0.0811392,-0.0012968,-0.00877491,0.00703761,0,0,3.5704,-1
1777409987563,0.252564,0.984688,-0.0806825,-0.00132682,-0.00896352,0.00696828,0,0,3.56468,-1
1777409987576,0.252748,0.984492,-0.0799365,-0.00138513,-0.00898741,0.00698847,0,0,3.56929,-1
1777409987590,0.252498,0.984157,-0.079876,-0.00149156,-0.00891147,0.00696043,0,0,3.57481,-1
1777409987604,0.251988,0.984197,-0.0797093,-0.00155348,-0.0089083,0.00704957,0,0,3.57168,-1
1777409987617,0.252192,0.984289,-0.0795109,-0.00150059,-0.00883251,0.00698384,0,0,3.57425,-1
1777409987631,0.25237,0.984321,-0.0792003,-0.00149349,-0.00876526,0.00702885,0,0,3.58095,-1
1777409987645,0.252607,0.984064,-0.0793591,-0.00156387,-0.00877886,0.00704565,0,0,3.59306,-1
1777409987658,0.252776,0.984013,-0.0790571,-0.00155322,-0.00878313,0.00705722,0,0,3.60251,-1
1777409987672,0.25262,0.983746,-0.0796758,-0.00148322,-0.00866726,0.00699963,0,0,3.59732,-1
1777409987686,0.252569,0.983808,-0.079178,-0.00142572,-0.00871633,0.00694527,0,0,3.60988,-1
1777409987700,0.252124,0.983881,-0.079475,-0.00138856,-0.00866416,0.00694962,0,0,3.59986,-1
1777409987713,0.252361,0.984046,-0.0794951,-0.00140488,-0.00871768,0.00698371,0,0,3.59456,-1
1777409987727,0.252187,0.984242,-0.0795689,-0.00141599,-0.00867828,0.00695593,0,0,3.6024,-1
1777409987741,0.252242,0.984373,-0.079351,-0.00129803,-0.00870104,0.00704104,0,0,3.59481,-1
1777409987754,0.25224,0.984305,-0.0794739,-0.0013237,-0.00870111,0.0070229,0,0,3.61236,-1
1777409987768,0.252443,0.984131,-0.0793983,-0.0014036,-0.00867548,0.00687303,0,0,3.59308,-1
1777409987782,0.252292,0.984089,-0.0794501,-0.00136769,-0.00865129,0.00682578,0,0,3.59284,-1
1777409987796,0.252479,0.98442,-0.0792251,-0.00136804,-0.00868841,0.00687965,0,0,3.60984,-1
1777409987809,0.252394,0.984486,-0.0793962,-0.00130844,-0.00874913,0.00683202,0,0,3.59942,-1
1777409987823,0.252479,0.984412,-0.0793523,-0.00134209,-0.00885355,0.0068727,0,0,3.59688,-1
1777409987837,0.252422,0.984327,-0.0791876,-0.0012925,-0.00889645,0.00686828,0,0,3.59356,-1
1777409987851,0.252423,0.984412,-0.0795115,-0.00133561,-0.00887271,0.00678275,0,0,3.60925,-1
1777409987864,0.252137,0.984191,-0.0790365,-0.00135489,-0.00890597,0.00675769,0,0,3.59342,-1
1777409987878,0.25251,0.984188,-0.0790128,-0.00132599,-0.00889027,0.00678113,0,0,3.59938,-1
1777409987892,0.252479,0.98413,-0.0791273,-0.00137151,-0.0089097,0.00674331,0,0,3.60679,-1
1777409987905,0.252545,0.984089,-0.0792081,-0.00138878,-0.00881242,0.00676755,0,0,3.60008,-1
1777409987919,0.252416,0.983927,-0.0790514,-0.00140936,-0.00890901,0.00678188,0,0,3.59821,-1
1777409987933,0.252198,0.983829,-0.0794377,-0.00139453,-0.00888029,0.00677827,0,0,3.5931,-1
1777409987946,0.252335,0.983846,-0.0798845,-0.00136769,-0.00882749,0.00677915,0,0,3.60527,-1
1777409987960,0.252026,0.983875,-0.0798816,-0.00145797,-0.00880334,0.00675,0,0,3.59375,-1
1777409987974,0.252337,0.983985,-0.0796872,-0.00140616,-0.00880195,0.00676531,0,0,3.60501,-1
1777409987988,0.252083,0.983911,-0.0793257,-0.00145574,-0.0087878,0.00674122,0,0,3.86977,-1
1777409988001,0.251843,0.98365,-0.0793405,-0.00137837,-0.00897568,0.00674417,0,0,3.59442,-1
1777409988015,0.251575,0.98354,-0.0792587,-0.00130533,-0.00901173,0.00670843,0,0,3.59732,-1
1777409988029,0.251432,0.983573,-0.0793457,-0.00131347,-0.00905004,0.00669181,0,0,3.59286,-1
1777409988043,0.251406,0.983454,-0.0790581,-0.00132971,-0.0090134,0.00668897,0,0,3.59949,-1
1777409988056,0.251341,0.984053,-0.0791838,-0.00134505,-0.00913725,0.00681903,0,0,3.59395,-1
1777409988070,0.250882,0.982811,-0.0789738,-0.00132955,-0.00913855,0.00668488,0,0,3.60773,-1
1777409988084,0.251326,0.982296,-0.0794329,-0.00143909,-0.00905413,0.00663534,0,0,3.5921,-1
1777409988097,0.25121,0.983605,-0.0791541,-0.00132411,-0.00905152,0.00676412,0,0,3.60486,-1
1777409988111,0.251266,0.983579,-0.0790416,-0.0014939,-0.0091347,0.00666731,0,0,3.6026,-1
1777409988125,0.250852,0.983514,-0.0792641,-0.00134588,-0.00910616,0.00670866,0,0,3.59593,-1
1777409988138,0.251325,0.982371,-0.0792276,-0.00151445,-0.00928047,0.00664493,0,0,3.59958,-1
1777409988152,0.251333,0.983661,-0.0790288,-0.00134387,-0.00926089,0.00670895,0,0,3.59362,-1
1777409988166,0.251203,0.983304,-0.0793752,-0.00137553,-0.00915248,0.00657242,0,0,3.60718,-1
1777409988179,0.25167,0.983707,-0.0796748,-0.0013155,-0.00915292,0.00666191,0,0,3.59421,-1
1777409988193,0.251905,0.98373,-0.0796975,-0.00128025,-0.0091619,0.00670357,0,0,3.64979,-1
1777409988207,0.25188,0.984027,-0.0797051,-0.00129407,-0.00913183,0.00674717,0,0,3.59708,-1
1777409988221,0.25209,0.983786,-0.0796986,-0.00128143,-0.0091163,0.00675836,0,0,3.60762,-1
1777409988234,0.252246,0.984668,-0.0797062,-0.00125237,-0.00908452,0.00679033,0,0,3.60705,-1
1777409988248,0.252312,0.984707,-0.0793026,-0.00119925,-0.00905451,0.00679909,0,0,3.60903,-1
1777409988262,0.252415,0.984565,-0.0794693,-0.00120049,-0.00901763,0.00673457,0,0,3.57801,-1
1777409988275,0.252348,0.984636,-0.0792981,-0.00112031,-0.0089614,0.00675074,0,0,3.57236,-1
1777409988289,0.252614,0.984676,-0.0789447,-0.00108744,-0.0090111,0.00673604,0,0,3.71334,-1
1777409988303,0.252412,0.984399,-0.0787344,-0.0011078,-0.00894239,0.00679066,0,0,3.57219,-1
1777409988317,0.252277,0.98437,-0.0789741,-0.00114414,-0.00888611,0.00689789,0,0,3.56803,-1
1777409988330,0.252437,0.984179,-0.0788854,-0.00118701,-0.00894431,0.00690062,0,0,3.57784,-1
1777409988344,0.252341,0.984423,-0.0787879,-0.00117181,-0.00887935,0.00696743,0,0,3.5819,-1
1777409988358,0.252402,0.984365,-0.0785727,-0.00127307,-0.00890367,0.00701764,0,0,3.57995,-1
1777409988371,0.252404,0.984078,-0.0788763,-0.00121451,-0.00891807,0.00704791,0,0,3.60506,-1
1777409988385,0.252255,0.984177,-0.0790532,-0.0012149,-0.00887599,0.0070722,0,0,3.60918,-1
1777409988399,0.252006,0.983873,-0.0789875,-0.00114675,-0.00893048,0.00712509,0,0,3.6071,-1
1777409988412,0.252318,0.983778,-0.0793089,-0.00124942,-0.00893052,0.00712364,0,0,3.60962,-1
1777409988426,0.252448,0.983839,-0.0795437,-0.00122644,-0.00887918,0.00720363,0,0,3.60327,-1
1777409988440,0.252625,0.983664,-0.0795463,-0.00126469,-0.00884357,0.00718065,0,0,3.60769,-1
1777409988454,0.252697,0.984114,-0.0797816,-0.00126654,-0.00881852,0.00715467,0,0,3.60814,-1
1777409988467,0.252847,0.983992,-0.0797434,-0.00128542,-0.00888907,0.00712587,0,0,3.60432,-1
1777409988481,0.252934,0.984,-0.0795705,-0.0012176,-0.00891713,0.00714579,0,0,3.62093,-1
1777409988495,0.252989,0.983706,-0.0794346,-0.00118783,-0.00901213,0.00715174,0,0,3.61551,-1
1777409988508,0.252972,0.983648,-0.079772,-0.00115546,-0.00902044,0.00708885,0,0,3.60818,-1
1777409988522,0.253161,0.983565,-0.0799946,-0.00116344,-0.00899403,0.00701236,0,0,3.60023,-1
1777409988536,0.253025,0.983693,-0.0800814,-0.00105964,-0.00911468,0.00704292,0,0,3.61023,-1
1777409988550,0.252978,0.983485,-0.0800128,-0.00115435,-0.0091044,0.00703323,0,0,3.60608,-1
1777409988563,0.253195,0.983315,-0.0800712,-0.00111529,-0.00903474,0.00706263,0,0,3.5986,-1
1777409988577,0.253098,0.983416,-0.0801538,-0.00111696,-0.00896899,0.00703043,0,0,3.60236,-1
1777409988591,0.25317,0.98336,-0.0800811,-0.0011742,-0.00898829,0.00699575,0,0,3.62799,-1
1777409988604,0.253239,0.983376,-0.0800946,-0.00109549,-0.00899794,0.00697158,0,0,3.60319,-1
1777409988618,0.252989,0.983405,-0.0798609,-0.00113253,-0.00900704,0.00693592,0,0,3.57021,-1
1777409988632,0.252821,0.983377,-0.0796539,-0.00117605,-0.00898139,0.00687229,0,0,3.58862,-1
1777409988646,0.252855,0.983542,-0.0796093,-0.00120428,-0.00885868,0.00683364,0,0,3.57464,-1
1777409988659,0.252763,0.98363,-0.0795671,-0.00124378,-0.00886704,0.00682713,0,0,3.5861,-1
1777409988673,0.252896,0.983439,-0.080034,-0.00126393,-0.00889634,0.00682098,0,0,3.57914,-1
1777409988687,0.253117,0.98367,-0.0800775,-0.0013429,-0.00888545,0.00688369,0,0,3.57121,-1
1777409988700,0.25301,0.983613,-0.0798311,-0.00137034,-0.00890943,0.00694288,0,0,3.58451,-1
1777409988714,0.25291,0.983697,-0.0797491,-0.00133629,-0.00894491,0.00692596,0,0,3.58201,-1
1777409988728,0.252829,0.983804,-0.0796717,-0.00122708,-0.0089313,0.00696565,0,0,3.58844,-1
1777409988741,0.252807,0.98374,-0.0796808,-0.00121391,-0.00895699,0.0070074,0,0,3.57219,-1
1777409988755,0.252787,0.983776,-0.0795661,-0.00121861,-0.00908401,0.00686697,0,0,3.58025,-1
1777409988769,0.252603,0.983672,-0.0794853,-0.00117595,-0.00905832,0.00677723,0,0,3.60599,-1
1777409988782,0.252306,0.983657,-0.079409,-0.00119562,-0.00908545,0.0068424,0,0,3.60719,-1
1777409988796,0.25256,0.983738,-0.0796245,-0.00124417,-0.00917528,0.00680542,0,0,3.60875,-1
1777409988810,0.252718,0.983733,-0.0799239,-0.0012172,-0.00917872,0.00678765,0,0,3.59675,-1
1777409988824,0.25299,0.983878,-0.0799462,-0.00123028,-0.00907064,0.00689932,0,0,3.60016,-1
1777409988837,0.252959,0.983673,-0.0798577,-0.00123406,-0.00907996,0.00686344,0,0,3.60151,-1
1777409988851,0.25304,0.983836,-0.0799112,-0.00128045,-0.00905449,0.00678675,0,0,3.61427,-1
1777409988865,0.25313,0.983839,-0.0799753,-0.00131139,-0.0089962,0.00671435,0,0,3.61416,-1
1777409988879,0.253173,0.983896,-0.0796661,-0.00131491,-0.00896258,0.00666315,0,0,3.6022,-1
1777409988892,0.253379,0.984046,-0.0794427,-0.00126684,-0.00908072,0.00670046,0,0,3.60718,-1
1777409988906,0.253258,0.984037,-0.0799166,-0.00130711,-0.00906806,0.00671426,0,0,3.6062,-1
1777409988920,0.253705,0.984139,-0.0796792,-0.00132371,-0.0090818,0.00676155,0,0,3.61014,-1
1777409988933,0.253785,0.983988,-0.0801398,-0.00121092,-0.0091333,0.00676764,0,0,3.60197,-1
1777409988947,0.254079,0.984023,-0.0800404,-0.00116869,-0.00908343,0.00678624,0,0,3.60918,-1
1777409988961,0.254302,0.983947,-0.0804808,-0.00116308,-0.0090749,0.00678667,0,0,3.60292,-1
1777409988975,0.254252,0.983765,-0.0804034,-0.00119204,-0.00917389,0.00688984,0,0,3.60169,-1
1777409988988,0.254247,0.983895,-0.0810151,-0.00120653,-0.00919454,0.00679454,0,0,3.60499,-1
1777409989002,0.254104,0.984046,-0.0809899,-0.00109604,-0.00914552,0.00675169,0,0,3.60684,-1
1777409989016,0.253943,0.984215,-0.0812127,-0.00102171,-0.00913778,0.00668554,0,0,3.59984,-1
1777409989029,0.253858,0.983868,-0.0808341,-0.0010115,-0.00916046,0.0066959,0,0,3.60388,-1
1777409989043,0.253532,0.983677,-0.0810793,-0.000976174,-0.00904912,0.00665002,0,0,3.60605,-1
1777409989057,0.253636,0.983648,-0.0806944,-0.0010199,-0.00899541,0.00668378,0,0,3.60251,-1
1777409989070,0.253651,0.983784,-0.0807283,-0.00105261,-0.00902179,0.00668139,0,0,3.60979,-1
1777409989084,0.253583,0.983694,-0.0804043,-0.00106636,-0.00907666,0.00661491,0,0,3.57512,-1
1777409989098,0.253765,0.983815,-0.0805777,-0.00106221,-0.0090685,0.00665921,0,0,3.57244,-1
1777409989111,0.253951,0.983545,-0.0803169,-0.00109683,-0.00902655,0.00666248,0,0,3.58686,-1
1777409989125,0.253894,0.983687,-0.0805089,-0.00110381,-0.00898267,0.006657,0,0,3.56966,-1
1777409989139,0.25384,0.983342,-0.0801698,-0.00115323,-0.00890272,0.0065191,0,0,3.57788,-1
1777409989152,0.254076,0.983441,-0.0803563,-0.00122984,-0.0089557,0.00654308,0,0,3.57219,-1
1777409989166,0.254163,0.98348,-0.0800121,-0.00125934,-0.00895433,0.00659568,0,0,3.58477,-1
1777409989180,0.254326,0.983119,-0.0797282,-0.00135141,-0.00902155,0.00662821,0,0,3.58201,-1
1777409989193,0.254317,0.983067,-0.0799532,-0.00132699,-0.00899936,0.00665035,0,0,3.57458,-1
1777409989207,0.254417,0.98288,-0.0799192,-0.0012183,-0.00898698,0.00668837,0,0,3.58029,-1
1777409989221,0.254251,0.982991,-0.0799281,-0.00121847,-0.00902239,0.00682275,0,0,3.56686,-1
1777409989235,0.254533,0.983151,-0.07969,-0.00125717,-0.00913289,0.00676975,0,0,3.59293,-1
1777409989250,0.254429,0.982932,-0.0798487,-0.00128086,-0.00918153,0.00669403,0,0,5.32146,-1
1777409989264,0.254332,0.983136,-0.0797931,-0.00131177,-0.00912039,0.00670391,0,0,3.57395,-1
1777409989277,0.254431,0.983151,-0.0799734,-0.00131099,-0.00908838,0.00664473,0,0,3.56818,-1
1777409989291,0.254292,0.983096,-0.0795548,-0.00123317,-0.00907957,0.006606,0,0,3.57506,-1
1777409989305,0.253873,0.98299,-0.0798169,-0.00115971,-0.00913976,0.00663795,0,0,3.59999,-1
1777409989318,0.254053,0.983273,-0.0795988,-0.00113748,-0.00909809,0.00665098,0,0,3.56527,-1
1777409989332,0.254209,0.983581,-0.0793244,-0.00115931,-0.00916581,0.00656479,0,0,3.58321,-1
1777409989346,0.254274,0.983694,-0.0794078,-0.00113282,-0.00907987,0.00659049,0,0,3.57703,-1
1777409989359,0.254322,0.983486,-0.0793495,-0.00120202,-0.00914004,0.00662759,0,0,3.57971,-1
1777409989373,0.254477,0.9837,-0.0793767,-0.00122451,-0.00910692,0.00667117,0,0,3.57629,-1
1777409989387,0.256924,0.983067,-0.0671184,-0.00206786,-0.00826211,0.00499957,0,0,3.61336,-1
1777409989400,0.258083,0.983181,-0.069653,-0.00256418,-0.0101623,0.00570396,0,0,3.60468,-1
1777409989414,0.258355,0.982386,-0.0697859,-0.0029513,-0.0117717,0.00534975,0,0,3.60632,-1
1777409989428,0.257325,0.983127,-0.0709931,-0.00258022,-0.0124388,0.00554637,0,0,3.61138,-1
1777409989442,0.257161,0.983197,-0.0717629,-0.0024098,-0.0119766,0.00577906,0,0,3.60134,-1
1777409989455,0.25754,0.982332,-0.0705723,-0.00277561,-0.0129533,0.00533928,0,0,3.60527,-1
1777409989469,0.25624,0.980529,-0.0685994,-0.00366897,-0.0128433,0.00494131,0,0,3.60038,-1
1777409989483,0.255466,0.980718,-0.0663538,-0.00401125,-0.01369,0.00474549,0,0,3.61716,-1
1777409989496,0.254748,0.981881,-0.0675344,-0.00426154,-0.0150802,0.00446646,0,0,3.60162,-1
1777409989510,0.25429,0.985281,-0.0699909,-0.00340163,-0.0180794,0.00549192,0,0,3.62319,-1
1777409989524,0.254597,0.988325,-0.0715701,-0.00318513,-0.0162817,0.00623292,0,0,3.61806,-1
1777409989538,0.253038,0.982352,-0.0722939,-0.00372154,-0.0174323,0.00599035,0,0,3.6084,-1
1777409989551,0.25106,0.980698,-0.0767293,-0.00367122,-0.0159278,0.00612534,0,0,3.60788,-1
1777409989565,0.251015,0.979097,-0.0768076,-0.0036751,-0.015317,0.00603439,0,0,3.6069,-1
1777409989579,0.25067,0.978969,-0.0775662,-0.003576,-0.0150487,0.0060984,0,0,3.61612,-1
1777409989593,0.250564,0.978573,-0.0778988,-0.00345677,-0.0147056,0.00597042,0,0,3.61136,-1
1777409989606,0.250505,0.979282,-0.0781854,-0.00328,-0.0143902,0.0059952,0,0,3.61834,-1
1777409989620,0.250463,0.979253,-0.0781135,-0.00316881,-0.0141611,0.00603572,0,0,3.61664,-1
1777409989634,0.250642,0.979759,-0.0777307,-0.00296109,-0.0136451,0.00594551,0,0,3.60444,-1
1777409989647,0.251387,0.979238,-0.0779309,-0.0030776,-0.0134321,0.00595884,0,0,3.60366,-1
1777409989661,0.251364,0.979266,-0.0774488,-0.00317044,-0.0133509,0.00610416,0,0,3.60262,-1
1777409989675,0.252041,0.979402,-0.0774319,-0.00327093,-0.0135098,0.00613429,0,0,3.61177,-1
1777409989688,0.252104,0.979571,-0.0777584,-0.00331867,-0.0145718,0.00617985,0,0,3.61056,-1
1777409989702,0.251918,0.980443,-0.0767929,-0.00346223,-0.0145551,0.00626996,0,0,3.60593,-1
1777409989716,0.252495,0.979732,-0.0781002,-0.00369621,-0.0164491,0.00620086,0,0,3.61577,-1
1777409989730,0.252752,0.979965,-0.0783754,-0.00394704,-0.0178044,0.00620416,0,0,3.60906,-1
1777409989743,0.252735,0.979733,-0.077978,-0.00443643,-0.0193063,0.00629718,0,0,3.62184,-1
1777409989757,0.252759,0.979569,-0.0792735,-0.00479988,-0.0214219,0.00620087,0,0,3.60284,-1
1777409989771,0.25066,0.979675,-0.0813728,-0.00486891,-0.0222842,0.00603289,0,0,3.60473,-1
1777409989784,0.250678,0.980226,-0.0817247,-0.00474567,-0.0230124,0.00600706,0,0,3.60299,-1
1777409989798,0.251133,0.979924,-0.0821253,-0.00452657,-0.0224966,0.00592274,0,0,3.60953,-1
1777409989812,0.252397,0.979982,-0.0813942,-0.00429836,-0.0216158,0.00592451,0,0,3.67551,-1
1777409989826,0.252537,0.98027,-0.0816765,-0.00412148,-0.0210113,0.00587907,0,0,3.61103,-1
1777409989839,0.252682,0.9805,-0.0816553,-0.00410011,-0.0202824,0.00591754,0,0,3.60308,-1
1777409989853,0.252641,0.980745,-0.0813203,-0.00402427,-0.0197013,0.00592388,0,0,3.61218,-1
1777409989867,0.252863,0.982852,-0.08173,-0.00340461,-0.0201805,0.00620818,0,0,3.60221,-1
1777409989880,0.252798,0.983869,-0.0818701,-0.0027726,-0.0203417,0.00640803,0,0,3.60701,-1
1777409989894,0.253641,0.98198,-0.0814683,-0.00258283,-0.0191064,0.00622414,0,0,3.57362,-1
1777409989908,0.253491,0.982662,-0.0820887,-0.00251502,-0.0184201,0.00625182,0,0,3.57079,-1
1777409989921,0.254583,0.982347,-0.0844684,-0.00260945,-0.0194165,0.00647491,0,0,3.57825,-1
1777409989935,0.252367,0.985323,-0.0811135,-0.00267718,-0.0168415,0.00676684,0,0,3.56729,-1
1777409989949,0.252372,0.981463,-0.0830411,-0.00189757,-0.0167147,0.00686684,0,0,3.58673,-1
1777409989962,0.250472,0.983557,-0.0827653,-0.00122593,-0.0160726,0.00716248,0,0,3.56555,-1
1777409989976,0.251254,0.983096,-0.0835458,-0.00103727,-0.0170122,0.00715465,0,0,3.56675,-1
1777409989990,0.251621,0.983415,-0.0831733,-0.000824939,-0.0163192,0.00725859,0,0,3.56725,-1
1777409990003,0.251161,0.981524,-0.0851223,-0.000881431,-0.0156607,0.0072625,0,0,3.58958,-1
1777409990017,0.251027,0.981136,-0.0848941,-0.00103324,-0.0149064,0.0072148,0,0,3.60901,-1
1777409990031,0.250997,0.981824,-0.0845966,-0.00102666,-0.0138177,0.00749092,0,0,3.59245,-1
1777409990044,0.251256,0.982022,-0.0843295,-0.00101618,-0.0132524,0.00755031,0,0,3.60457,-1
1777409990058,0.251254,0.98199,-0.0837349,-0.00112617,-0.012706,0.00752929,0,0,3.59942,-1
1777409990072,0.250622,0.981754,-0.0836941,-0.001063,-0.0127127,0.00753086,0,0,3.62127,-1
1777409990086,0.250765,0.982723,-0.0837926,-0.00108901,-0.0126247,0.0075409,0,0,3.60173,-1
1777409990099,0.250092,0.982226,-0.0839951,-0.00115638,-0.0116297,0.0075932,0,0,3.60214,-1
1777409990113,0.249403,0.982005,-0.0844327,-0.00110436,-0.0101038,0.00778387,0,0,3.60703,-1
1777409990127,0.249669,0.980837,-0.0842158,-0.00117087,-0.00964843,0.00763842,0,0,3.60305,-1
1777409990140,0.249838,0.981651,-0.0841481,-0.00118655,-0.00918858,0.00768953,0,0,3.59931,-1
1777409990154,0.249697,0.981325,-0.0837965,-0.00125701,-0.00868601,0.00769067,0,0,3.60549,-1
1777409990168,0.249864,0.981373,-0.0837934,-0.00117794,-0.00833153,0.00771316,0,0,3.61958,-1
1777409990182,0.249844,0.981281,-0.0834754,-0.00106477,-0.00790273,0.00781146,0,0,3.60384,-1
1777409990195,0.250059,0.981427,-0.0829288,-0.00105214,-0.0073995,0.00778436,0,0,3.60342,-1
1777409990209,0.250302,0.981743,-0.0827278,-0.0010231,-0.00691594,0.00770739,0,0,3.60632,-1
1777409990223,0.250367,0.981863,-0.0822916,-0.00106419,-0.00658795,0.00767756,0,0,3.60608,-1
1777409990236,0.250648,0.981881,-0.0820305,-0.000965963,-0.00647533,0.00762799,0,0,3.60064,-1
1777409990250,0.25042,0.982034,-0.0821538,-0.000757632,-0.00624485,0.00757693,0,0,3.60979,-1
1777409990264,0.250204,0.982084,-0.0825167,-0.000526733,-0.00568475,0.00750731,0,0,3.62062,-1
1777409990277,0.25022,0.982363,-0.0826401,-0.000338758,-0.00499336,0.00732171,0,0,3.60482,-1
1777409990291,0.251057,0.982517,-0.0814967,-0.000276938,-0.00461478,0.00739487,0,0,3.60886,-1
1777409990305,0.251573,0.982005,-0.081376,-0.000394141,-0.00480124,0.00732262,0,0,3.57466,-1
1777409990319,0.251663,0.982795,-0.0814402,-0.000444825,-0.00480597,0.00742142,0,0,3.91918,-1
1777409990333,0.251994,0.982582,-0.0815692,-0.000561175,-0.00494317,0.00737766,0,0,3.57164,-1
1777409990346,0.252279,0.982847,-0.0815951,-0.000568234,-0.00510693,0.00738345,0,0,3.57379,-1
1777409990360,0.252603,0.982782,-0.0814963,-0.000759017,-0.00520583,0.00735038,0,0,3.58479,-1
1777409990374,0.252471,0.982666,-0.0815674,-0.000853462,-0.00531204,0.00738768,0,0,3.5729,-1
1777409990387,0.252415,0.982735,-0.0812511,-0.000891226,-0.00555359,0.00737578,0,0,3.5723,-1
1777409990401,0.252416,0.982895,-0.0810483,-0.0008969,-0.00572164,0.00733029,0,0,3.57379,-1
1777409990415,0.25265,0.982814,-0.0809939,-0.000876563,-0.0058032,0.00728736,0,0,3.57379,-1
1777409990428,0.252502,0.983011,-0.0807097,-0.000848804,-0.00595297,0.00731963,0,0,3.58038,-1
1777409990442,0.252895,0.983129,-0.0804415,-0.000852575,-0.00623564,0.0072045,0,0,3.57834,-1
1777409990456,0.253322,0.982788,-0.0801472,-0.000830443,-0.00618988,0.00716006,0,0,3.58214,-1
1777409990469,0.253464,0.982548,-0.0798968,-0.000835244,-0.00604821,0.00717806,0,0,3.5779,-1
1777409990483,0.253913,0.982596,-0.0799344,-0.000822648,-0.00603437,0.0071822,0,0,3.58321,-1
1777409990497,0.253721,0.982559,-0.0795453,-0.000870705,-0.00610266,0.00715614,0,0,3.57727,-1
1777409990510,0.253636,0.983044,-0.0800408,-0.00102311,-0.00627846,0.00712725,0,0,3.61882,-1
1777409990524,0.25361,0.982831,-0.0795499,-0.00115413,-0.00622601,0.00710855,0,0,3.61062,-1
1777409990538,0.253339,0.982356,-0.0794563,-0.00115362,-0.00619792,0.00701383,0,0,3.59716,-1
1777409990551,0.253165,0.982332,-0.0794227,-0.00126446,-0.00631271,0.00701006,0,0,3.60712,-1
1777409990565,0.253522,0.982502,-0.0793362,-0.00137766,-0.00651953,0.00698937,0,0,3.60179,-1
1777409990579,0.253393,0.982634,-0.0790903,-0.00142884,-0.00663769,0.00693987,0,0,3.60912,-1
1777409990593,0.253408,0.982554,-0.0788581,-0.00146002,-0.00671924,0.00703016,0,0,3.60386,-1
1777409990606,0.253244,0.982642,-0.0788854,-0.00154083,-0.00681763,0.00705116,0,0,3.60245,-1
1777409990620,0.253144,0.98289,-0.0789112,-0.00153576,-0.00709034,0.00706242,0,0,3.62305,-1
1777409990634,0.253009,0.982713,-0.0796751,-0.00183926,-0.00727068,0.00699598,0,0,3.60434,-1
1777409990647,0.253183,0.982368,-0.0801359,-0.00199301,-0.0072054,0.00694611,0,0,3.61245,-1
1777409990661,0.252826,0.981851,-0.079804,-0.00206533,-0.00742638,0.00684765,0,0,3.60847,-1
1777409990675,0.253298,0.982458,-0.0795318,-0.002018,-0.00779768,0.00678897,0,0,3.60964,-1
1777409990688,0.253551,0.983113,-0.0791516,-0.00191765,-0.00790408,0.00688345,0,0,3.6054,-1
1777409990702,0.253393,0.982499,-0.0793542,-0.00195566,-0.00796599,0.00680135,0,0,3.64153,-1
1777409990716,0.253107,0.982112,-0.0797783,-0.00201296,-0.00793449,0.00672814,0,0,3.61132,-1
1777409990730,0.252932,0.981677,-0.0798773,-0.00210558,-0.00789621,0.00672326,0,0,3.61167,-1
1777409990743,0.253138,0.981486,-0.0794777,-0.00204313,-0.00806131,0.00670154,0,0,3.60408,-1
1777409990757,0.253126,0.981648,-0.0796073,-0.00198848,-0.00816578,0.00672384,0,0,3.60231,-1
1777409990771,0.253402,0.981308,-0.0800171,-0.00205249,-0.00809311,0.00664642,0,0,3.60658,-1
1777409990784,0.253431,0.981562,-0.0801849,-0.00204869,-0.008123,0.00668038,0,0,3.60301,-1
1777409990798,0.253005,0.982172,-0.0804117,-0.00203654,-0.00837815,0.00660539,0,0,3.60625,-1
1777409990812,0.252878,0.982022,-0.0804477,-0.00195228,-0.00844343,0.00657315,0,0,3.60688,-1
1777409990826,0.252826,0.981866,-0.0806872,-0.00200548,-0.00863351,0.00649989,0,0,4.09431,-1
1777409990840,0.252818,0.981678,-0.0810091,-0.0020557,-0.00871444,0.00643503,0,0,3.59316,-1
1777409990853,0.252797,0.98187,-0.0809432,-0.00228294,-0.00838833,0.00647657,0,0,3.61034,-1
1777409990867,0.252777,0.980751,-0.0810042,-0.00246318,-0.00893261,0.00640873,0,0,3.60699,-1
1777409990881,0.253032,0.981119,-0.0811851,-0.00244062,-0.00880408,0.00644746,0,0,3.60345,-1
1777409990894,0.253191,0.98111,-0.0808902,-0.00244503,-0.00904672,0.00638126,0,0,3.60314,-1
1777409990908,0.253094,0.981087,-0.0806666,-0.0023507,-0.00895889,0.00637443,0,0,3.60597,-1
1777409990922,0.253112,0.981231,-0.0808253,-0.00228735,-0.00890596,0.00636798,0,0,3.60625,-1
1777409990936,0.253033,0.981243,-0.0804684,-0.0021933,-0.00883031,0.00632765,0,0,3.61073,-1
1777409990949,0.25326,0.981076,-0.0807067,-0.0021345,-0.00883597,0.00628957,0,0,3.61553,-1
1777409990963,0.253242,0.981028,-0.0804387,-0.00206187,-0.00871715,0.00628361,0,0,3.60434,-1
1777409990977,0.253142,0.981421,-0.0807197,-0.0020447,-0.00874201,0.00640643,0,0,3.60486,-1
1777409990990,0.252993,0.981313,-0.0807933,-0.00191288,-0.0087826,0.00644101,0,0,3.60801,-1
1777409991004,0.252935,0.981499,-0.080808,-0.00173279,-0.0087995,0.00648221,0,0,3.60506,-1
1777409991018,0.252565,0.981523,-0.0806712,-0.00178974,-0.00891394,0.00646972,0,0,3.60482,-1
1777409991032,0.252517,0.981861,-0.0808296,-0.00185206,-0.00921893,0.00642796,0,0,3.60468,-1
1777409991045,0.252814,0.981824,-0.0806916,-0.00194086,-0.00932268,0.00642279,0,0,3.60479,-1
1777409991059,0.252985,0.981899,-0.0802327,-0.00201611,-0.00942062,0.00634085,0,0,3.6043,-1
1777409991073,0.253105,0.982038,-0.0807033,-0.00199294,-0.00971003,0.00640908,0,0,3.6106,-1
1777409991086,0.252917,0.98158,-0.0806545,-0.0020824,-0.00954646,0.00645635,0,0,3.60701,-1
1777409991100,0.253219,0.981709,-0.0808276,-0.00191421,-0.00934496,0.00650526,0,0,3.61344,-1
1777409991114,0.253559,0.981311,-0.0805254,-0.00185822,-0.00904772,0.0064872,0,0,3.59156,-1
1777409991127,0.253565,0.981442,-0.0805962,-0.00168548,-0.00925528,0.00655578,0,0,3.59279,-1
1777409991141,0.252748,0.981483,-0.0815805,-0.00189923,-0.00992221,0.00635076,0,0,3.57195,-1
1777409991155,0.253074,0.985151,-0.0836462,-0.00256772,-0.0111341,0.00585323,0,0,3.57608,-1
1777409991169,0.252326,0.98597,-0.0831037,-0.00215821,-0.0113573,0.00598307,0,0,3.58238,-1
1777409991182,0.253592,0.985429,-0.0826327,-0.00215276,-0.0110157,0.00594719,0,0,3.57245,-1
1777409991196,0.253432,0.985246,-0.0827223,-0.00221613,-0.0110572,0.00588764,0,0,3.58243,-1
1777409991210,0.253404,0.985828,-0.0822727,-0.00208754,-0.0108181,0.00599842,0,0,3.57405,-1
1777409991223,0.253418,0.985719,-0.0819168,-0.00196616,-0.0107636,0.00588889,0,0,3.60308,-1
1777409991237,0.253021,0.985561,-0.0818273,-0.00198433,-0.0108707,0.00593109,0,0,3.61929,-1
1777409991251,0.25303,0.985618,-0.0816881,-0.00197579,-0.0107405,0.00598377,0,0,3.59538,-1
1777409991264,0.252819,0.986055,-0.0818169,-0.00179217,-0.010609,0.00593929,0,0,3.60399,-1
1777409991278,0.253167,0.985605,-0.0817331,-0.00164883,-0.0107633,0.0058759,0,0,3.59377,-1
1777409991292,0.252716,0.985426,-0.0821743,-0.00153493,-0.0107633,0.00585032,0,0,3.61727,-1
1777409991305,0.252782,0.985107,-0.0814953,-0.00142314,-0.0108446,0.00580048,0,0,3.60805,-1
1777409991319,0.252832,0.984888,-0.0810597,-0.00137329,-0.0109728,0.00570634,0,0,3.60575,-1
1777409991333,0.252468,0.985023,-0.081347,-0.00132623,-0.0110681,0.00566458,0,0,3.61727,-1
1777409991347,0.252535,0.984823,-0.0813854,-0.00128181,-0.0109996,0.00562944,0,0,3.59745,-1
1777409991360,0.252666,0.984784,-0.0814079,-0.00123132,-0.0109735,0.00568191,0,0,3.59992,-1
1777409991374,0.252572,0.984775,-0.0814292,-0.00123504,-0.0106577,0.00575713,0,0,3.60247,-1
1777409991388,0.252304,0.984588,-0.0810658,-0.00138842,-0.0104496,0.0057896,0,0,3.61738,-1
1777409991401,0.252271,0.984617,-0.0811474,-0.00172588,-0.010146,0.00586306,0,0,3.60103,-1
1777409991415,0.252294,0.984617,-0.0810463,-0.00202301,-0.0101207,0.0059324,0,0,3.60673,-1
1777409991429,0.251412,0.985548,-0.0819095,-0.00188384,-0.0100454,0.00605351,0,0,3.60306,-1
1777409991443,0.251744,0.985291,-0.0817657,-0.00185524,-0.0102698,0.00612073,0,0,3.61664,-1
1777409991456,0.252454,0.984925,-0.0820271,-0.00194386,-0.0104302,0.00619275,0,0,3.60425,-1
1777409991470,0.252837,0.98525,-0.0823697,-0.00192903,-0.0103162,0.00626929,0,0,3.60006,-1
1777409991484,0.252814,0.985009,-0.0821727,-0.00193643,-0.010033,0.00619595,0,0,3.62377,-1
1777409991498,0.252917,0.985275,-0.0823565,-0.00191345,-0.00990695,0.00631941,0,0,3.60318,-1
1777409991511,0.252876,0.985183,-0.0822287,-0.00187035,-0.00977087,0.00631605,0,0,3.60977,-1
1777409991525,0.252879,0.985028,-0.082067,-0.00189389,-0.00960816,0.00636854,0,0,3.60458,-1
1777409991539,0.252622,0.985238,-0.0815857,-0.00185189,-0.00945459,0.00642238,0,0,3.60558,-1
1777409991552,0.25242,0.984245,-0.0815833,-0.00204774,-0.00957082,0.00631048,0,0,3.60238,-1
1777409991566,0.252257,0.984499,-0.0815399,-0.00194573,-0.00963343,0.00638898,0,0,3.60251,-1
1777409991580,0.252801,0.984026,-0.0808554,-0.0016439,-0.00942705,0.00646307,0,0,3.61634,-1
1777409991594,0.252877,0.983703,-0.0812363,-0.00165446,-0.00946347,0.00643025,0,0,3.60086,-1
1777409991607,0.253455,0.984152,-0.0804181,-0.0014803,-0.00915958,0.00665189,0,0,3.60932,-1
1777409991621,0.253617,0.983439,-0.0802484,-0.00154285,-0.00912965,0.00662132,0,0,3.60327,-1
1777409991635,0.25373,0.982916,-0.0802937,-0.00152482,-0.00919988,0.00645544,0,0,3.61993,-1
1777409991648,0.253288,0.983299,-0.0802268,-0.00150351,-0.0093518,0.0064573,0,0,3.60493,-1
1777409991662,0.253309,0.982976,-0.0798624,-0.00162471,-0.00963651,0.00633916,0,0,3.60188,-1
1777409991676,0.252849,0.983082,-0.0795048,-0.00139227,-0.00957126,0.00639464,0,0,3.61331,-1
1777409991690,0.252854,0.983346,-0.0796191,-0.00138697,-0.00968951,0.00635281,0,0,3.60449,-1
1777409991703,0.253529,0.98287,-0.0798366,-0.00148901,-0.00971121,0.00640324,0,0,3.61329,-1
1777409991717,0.253783,0.983502,-0.0794119,-0.0014483,-0.00967603,0.00649794,0,0,3.59921,-1
1777409991731,0.253242,0.983825,-0.0801203,-0.00137991,-0.0094587,0.00651883,0,0,3.61034,-1
1777409991744,0.252636,0.983335,-0.0797071,-0.00132392,-0.00972884,0.00660705,0,0,3.60921,-1
1777409991758,0.253748,0.982709,-0.0798922,-0.00144234,-0.00938438,0.00669032,0,0,3.5993,-1
1777409991772,0.253305,0.98246,-0.0795877,-0.0014642,-0.00929474,0.00668328,0,0,3.60864,-1
1777409991785,0.253065,0.983006,-0.0797384,-0.00139491,-0.00914589,0.00676656,0,0,3.59797,-1
1777409991799,0.252893,0.983028,-0.0797438,-0.00126957,-0.00944643,0.00666961,0,0,3.60923,-1
1777409991813,0.252648,0.982336,-0.0795297,-0.00103993,-0.00926767,0.00658238,0,0,3.60179,-1
1777409991826,0.253472,0.98204,-0.0796016,-0.00124279,-0.00944149,0.00637159,0,0,3.61629,-1
1777409991840,0.253373,0.982061,-0.0796694,-0.00124587,-0.00949851,0.00637815,0,0,3.60584,-1
1777409991854,0.253006,0.982232,-0.0791446,-0.00117599,-0.00924403,0.00654705,0,0,3.59769,-1
1777409991868,0.252837,0.982106,-0.0794023,-0.00118281,-0.0095091,0.00650095,0,0,3.60673,-1
1777409991882,0.251897,0.982548,-0.0797552,-0.00127061,-0.00957089,0.00650026,0,0,3.59884,-1
1777409991895,0.25379,0.982555,-0.0793762,-0.00131923,-0.00943225,0.00652957,0,0,3.59969,-1
1777409991909,0.254194,0.983684,-0.0797442,-0.00130946,-0.00925856,0.00666001,0,0,3.60105,-1
1777409991923,0.254849,0.982928,-0.0793658,-0.0013816,-0.00930015,0.00649625,0,0,3.61221,-1
1777409991936,0.25518,0.983393,-0.0798166,-0.00131694,-0.0091296,0.00663712,0,0,3.60375,-1
1777409991950,0.254725,0.98353,-0.0798176,-0.00137581,-0.00913132,0.00662878,0,0,3.61305,-1
1777409991964,0.254843,0.983358,-0.0798048,-0.00132861,-0.00923999,0.00663804,0,0,3.61518,-1
1777409991978,0.254215,0.983101,-0.0799845,-0.00124124,-0.00950956,0.00665107,0,0,3.60075,-1
1777409991991,0.254458,0.98283,-0.0800856,-0.00123585,-0.00936151,0.00664623,0,0,3.60651,-1
1777409992005,0.254208,0.983505,-0.0800304,-0.00111514,-0.00928172,0.00671018,0,0,3.59732,-1
1777409992019,0.254,0.983499,-0.0804576,-0.00112538,-0.00932201,0.00680051,0,0,3.6106,-1
1777409992032,0.255062,0.982891,-0.0794229,-0.0011222,-0.009086,0.00675732,0,0,3.59629,-1
1777409992046,0.255436,0.982454,-0.0795966,-0.00123909,-0.00858919,0.00673368,0,0,3.61666,-1
1777409992060,0.256117,0.982589,-0.0796921,-0.0012852,-0.00889955,0.0066343,0,0,3.61045,-1
1777409992074,0.25613,0.982361,-0.0795494,-0.00137154,-0.00914111,0.00660043,0,0,3.59755,-1
1777409992087,0.25606,0.982254,-0.0800447,-0.00140165,-0.00929205,0.00650852,0,0,3.60608,-1
1777409992101,0.255693,0.982565,-0.0800876,-0.00143436,-0.0095116,0.00649455,0,0,3.59903,-1
1777409992115,0.255387,0.982886,-0.080676,-0.00134962,-0.00986442,0.00651562,0,0,3.60129,-1
1777409992128,0.255687,0.983147,-0.0811491,-0.0014666,-0.0099491,0.00644131,0,0,3.60212,-1
1777409992142,0.255218,0.983545,-0.0811849,-0.00149995,-0.0100419,0.00640543,0,0,3.96918,-1
1777409992156,0.255404,0.983619,-0.081027,-0.00137299,-0.0100181,0.00642722,0,0,3.59945,-1
1777409992170,0.25517,0.983743,-0.0809601,-0.00127457,-0.00979872,0.00648632,0,0,3.60842,-1
1777409992184,0.254811,0.983464,-0.0802533,-0.00105749,-0.00942465,0.00657208,0,0,3.59603,-1
1777409992197,0.253008,0.983515,-0.0805858,-0.000788363,-0.00970527,0.00660593,0,0,3.60225,-1
1777409992211,0.256783,0.980126,-0.0818172,-0.00208008,-0.00918228,0.00673209,0,0,3.60114,-1
1777409992225,0.256471,0.983925,-0.0815964,-0.00168509,-0.00963493,0.00696678,0,0,3.60531,-1
1777409992238,0.255889,0.983512,-0.080895,-0.00143214,-0.00997655,0.0068329,0,0,3.60784,-1
1777409992252,0.25586,0.982095,-0.0816024,-0.00159159,-0.0100678,0.00676221,0,0,3.5791,-1
1777409992266,0.25538,0.983072,-0.0819003,-0.00157939,-0.0101154,0.00674257,0,0,3.58301,-1
1777409992279,0.255476,0.982501,-0.0816885,-0.00157643,-0.010263,0.00665125,0,0,3.56529,-1
1777409992293,0.255155,0.982511,-0.0818447,-0.00158649,-0.0101155,0.00673633,0,0,3.58319,-1
1777409992307,0.254428,0.982615,-0.0820332,-0.00157457,-0.0100877,0.00678666,0,0,3.57969,-1
1777409992320,0.254302,0.982536,-0.0818277,-0.00151622,-0.00997141,0.00680847,0,0,3.56701,-1
1777409992334,0.254513,0.982817,-0.0820582,-0.00149112,-0.0102085,0.00679053,0,0,3.57351,-1
1777409992348,0.253726,0.983329,-0.0818102,-0.00136466,-0.00973866,0.00691489,0,0,3.61153,-1
1777409992361,0.254024,0.983114,-0.0815761,-0.00130096,-0.00969337,0.00678821,0,0,3.61395,-1
1777409992375,0.253716,0.982842,-0.0815605,-0.00131362,-0.00959924,0.00669433,0,0,3.59277,-1
1777409992389,0.253658,0.983147,-0.0812309,-0.00124422,-0.00933912,0.00673845,0,0,3.61884,-1
1777409992403,0.254069,0.982641,-0.080865,-0.00130717,-0.00891803,0.00671587,0,0,3.6049,-1
1777409992416,0.253827,0.982793,-0.080725,-0.00130236,-0.00899157,0.00668171,0,0,3.60173,-1
1777409992430,0.253681,0.982717,-0.0804285,-0.0012764,-0.0089625,0.00662377,0,0,3.60103,-1
1777409992444,0.253776,0.982797,-0.080491,-0.00126475,-0.00891364,0.00656909,0,0,3.59729,-1
1777409992458,0.253509,0.983337,-0.0804404,-0.00123663,-0.00894033,0.00655601,0,0,3.60555,-1
1777409992471,0.253668,0.983368,-0.0800367,-0.00121865,-0.00896551,0.00652225,0,0,3.59781,-1
1777409992485,0.253586,0.983835,-0.0798747,-0.00125305,-0.00885655,0.0065803,0,0,3.62162,-1
1777409992499,0.25348,0.983674,-0.0800093,-0.0013155,-0.00894209,0.006588,0,0,3.59555,-1
1777409992512,0.253792,0.982782,-0.0795339,-0.00135304,-0.00822214,0.0065182,0,0,3.60358,-1
1777409992526,0.253031,0.983666,-0.0795096,-0.000720505,-0.00708868,0.00688906,0,0,3.60347,-1
1777409992540,0.252848,0.983171,-0.0781036,-0.000650117,-0.00684521,0.00688372,0,0,3.5961,-1
1777409992553,0.252989,0.983225,-0.0783102,-0.000712134,-0.00662396,0.00704995,0,0,3.6116,-1
1777409992567,0.252698,0.983509,-0.0782861,-0.000783517,-0.00688184,0.00697136,0,0,3.58947,-1
1777409992581,0.252985,0.982914,-0.0785784,-0.000623957,-0.00683408,0.00690574,0,0,3.60495,-1
1777409992594,0.247272,0.983379,-0.0743761,0.00037018,-0.00407859,0.00723774,0,0,3.59816,-1
1777409992608,0.249616,0.982148,-0.074559,0.000447898,-0.00416239,0.00700731,0,0,3.59964,-1
1777409992622,0.249199,0.98408,-0.0747864,0.000624022,-0.00408734,0.00723084,0,0,3.60882,-1
1777409992635,0.24971,0.984042,-0.0748642,0.000623274,-0.00441471,0.00712926,0,0,3.59492,-1
1777409992650,0.249849,0.982171,-0.0738009,0.000729615,-0.00453532,0.00702481,0,0,4.08203,-1
1777409992663,0.249953,0.983048,-0.0739065,0.000590206,-0.00480331,0.00699473,0,0,3.55868,-1
1777409992677,0.250339,0.98341,-0.0744033,0.00048859,-0.0051205,0.0069749,0,0,3.5801,-1
1777409992691,0.250362,0.982875,-0.0746258,0.000439775,-0.00544558,0.00686627,0,0,3.57479,-1
1777409992704,0.25056,0.982781,-0.0748905,0.000338033,-0.00546127,0.00693928,0,0,3.57586,-1
1777409992718,0.250611,0.983651,-0.0749487,0.000250562,-0.00537759,0.00700392,0,0,3.56834,-1
1777409992732,0.250741,0.982788,-0.0754144,4.38236e-05,-0.00550841,0.0069065,0,0,3.57047,-1
1777409992745,0.251138,0.982535,-0.0757034,-0.000112782,-0.00571754,0.00685308,0,0,3.58377,-1
1777409992759,0.251088,0.983144,-0.075894,-0.000123583,-0.00591065,0.00677697,0,0,3.60856,-1
1777409992773,0.251451,0.982967,-0.0767176,-0.000309335,-0.00620854,0.00670085,0,0,3.60827,-1
1777409992786,0.251794,0.982841,-0.0764816,-0.000471822,-0.0062371,0.00681739,0,0,3.60162,-1
1777409992800,0.252022,0.98268,-0.0768887,-0.000655167,-0.00663229,0.00674757,0,0,3.60401,-1
1777409992814,0.251703,0.983323,-0.0771635,-0.000734028,-0.00714233,0.00669022,0,0,3.59612,-1
1777409992827,0.251854,0.983135,-0.0770942,-0.000876974,-0.00769227,0.00649479,0,0,3.6109,-1
1777409992841,0.252065,0.982904,-0.0775902,-0.00104616,-0.00788595,0.00644305,0,0,3.60362,-1
1777409992855,0.25221,0.983534,-0.077853,-0.00102601,-0.0082229,0.0064242,0,0,3.60521,-1
1777409992869,0.252086,0.983321,-0.0774985,-0.00111833,-0.00856665,0.00635501,0,0,3.59512,-1
1777409992882,0.252215,0.983229,-0.0779719,-0.00115408,-0.00883974,0.00630256,0,0,3.59173,-1
1777409992896,0.252173,0.983266,-0.0781859,-0.00109791,-0.0092859,0.00630871,0,0,3.60932,-1
1777409992910,0.252092,0.983205,-0.0777032,-0.00113053,-0.00970276,0.0063188,0,0,3.59875,-1
1777409992923,0.252222,0.983312,-0.0775625,-0.00121698,-0.0100363,0.00629406,0,0,3.59899,-1
1777409992937,0.252467,0.983372,-0.0777173,-0.0012472,-0.0104282,0.00628785,0,0,3.59799,-1
1777409992951,0.252931,0.982606,-0.0780278,-0.00110445,-0.0099246,0.00632051,0,0,3.61103,-1
1777409992964,0.253328,0.984664,-0.0766775,-0.000815557,-0.00983035,0.00666392,0,0,3.63918,-1
1777409992978,0.253799,0.984004,-0.0773064,-0.000983903,-0.0102295,0.00646997,0,0,3.59644,-1
1777409992992,0.253312,0.98434,-0.0781603,-0.000980096,-0.010298,0.00653095,0,0,3.60434,-1
1777409993005,0.252975,0.984054,-0.0781994,-0.00100219,-0.0103712,0.0064986,0,0,3.60623,-1
1777409993019,0.252671,0.984442,-0.0781679,-0.00100592,-0.0105088,0.00654086,0,0,3.60006,-1
1777409993033,0.252563,0.98426,-0.0785763,-0.000970909,-0.0105531,0.00649082,0,0,3.59657,-1
1777409993047,0.252775,0.984308,-0.0788386,-0.000903603,-0.0104578,0.00651639,0,0,3.6064,-1
1777409993060,0.25277,0.984435,-0.0792504,-0.000852917,-0.010308,0.00651054,0,0,3.58049,-1
1777409993074,0.25256,0.984171,-0.0798036,-0.000873585,-0.0103549,0.00643652,0,0,3.56297,-1
1777409993087,0.252238,0.984388,-0.0795451,-0.000760356,-0.0102579,0.00649082,0,0,3.57556,-1
1777409993101,0.252195,0.984127,-0.0796845,-0.000811906,-0.010282,0.00633226,0,0,3.57299,-1
1777409993115,0.252072,0.98384,-0.0795423,-0.000864847,-0.0103989,0.00620401,0,0,3.57671,-1
1777409993128,0.251873,0.984226,-0.0797367,-0.000914819,-0.0104964,0.00625423,0,0,3.56816,-1
1777409993142,0.25207,0.983522,-0.0802488,-0.000794995,-0.0102288,0.00615604,0,0,3.57875,-1
1777409993156,0.252241,0.983693,-0.0802666,-0.000673328,-0.0100318,0.00617469,0,0,3.93231,-1
1777409993171,0.25243,0.983526,-0.0801602,-0.000537077,-0.00964041,0.00621799,0,0,4.3234,-1
1777409993184,0.252527,0.983313,-0.0801419,-0.000498387,-0.00912963,0.00628455,0,0,3.61293,-1
1777409993198,0.252371,0.984085,-0.080289,-0.000341975,-0.00871173,0.00627458,0,0,3.60495,-1
1777409993212,0.252499,0.983663,-0.0796883,-0.000254283,-0.00821879,0.00624805,0,0,3.61549,-1
1777409993225,0.252386,0.983703,-0.0797101,-0.000304248,-0.00779631,0.0063172,0,0,3.60301,-1
1777409993239,0.25232,0.983741,-0.0801827,-0.000248645,-0.00737612,0.00631397,0,0,3.61186,-1
1777409993253,0.252971,0.983722,-0.0800399,-0.000209007,-0.00741626,0.00626381,0,0,3.66543,-1
1777409993267,0.25264,0.984306,-0.0799188,-0.000141619,-0.00697457,0.00640487,0,0,4.11455,-1
1777409993281,0.252629,0.984132,-0.0799825,-5.66016e-05,-0.00659191,0.00647808,0,0,3.5721,-1
1777409993295,0.253303,0.98405,-0.0805083,-0.000134782,-0.00647907,0.00644869,0,0,3.5739,-1
1777409993308,0.253433,0.984396,-0.0805526,2.69253e-05,-0.00623125,0.00663933,0,0,3.57429,-1
1777409993322,0.253309,0.983793,-0.0807725,-2.16855e-05,-0.00582606,0.00662231,0,0,3.57555,-1
1777409993336,0.253137,0.983565,-0.080309,-5.90059e-05,-0.00600024,0.00660196,0,0,3.57071,-1
1777409993349,0.253344,0.983693,-0.0803919,-0.000372554,-0.00666991,0.00651424,0,0,3.57064,-1
1777409993363,0.253773,0.983457,-0.0803058,-0.000685642,-0.00736196,0.00640147,0,0,3.60492,-1
1777409993377,0.253767,0.983714,-0.0804985,-0.000856994,-0.00784821,0.00629931,0,0,3.59432,-1
1777409993390,0.253528,0.984217,-0.0809953,-0.000873151,-0.00820869,0.0061986,0,0,3.61773,-1
1777409993404,0.253974,0.984212,-0.0804782,-0.000888402,-0.00760266,0.00626196,0,0,3.60393,-1
1777409993418,0.253477,0.985276,-0.0802093,-0.000735805,-0.00731751,0.00645451,0,0,3.60518,-1
1777409993432,0.252926,0.983938,-0.0812427,-0.000685968,-0.0076521,0.00623376,0,0,3.59738,-1
1777409993445,0.253022,0.984154,-0.0805064,-0.000801637,-0.00822055,0.00595689,0,0,3.6062,-1
1777409993459,0.252798,0.984837,-0.0804686,-0.000726698,-0.00852589,0.00582828,0,0,3.61003,-1
1777409993473,0.252887,0.984332,-0.0816929,-0.000655963,-0.00836879,0.00576683,0,0,3.60714,-1
1777409993486,0.252917,0.983855,-0.0812326,-0.000683397,-0.00840891,0.00575165,0,0,3.60593,-1
1777409993500,0.253192,0.983912,-0.0803325,-0.000897693,-0.00902911,0.00575017,0,0,3.63332,-1
1777409993514,0.254423,0.982993,-0.0809071,-0.00121558,-0.00915208,0.00584297,0,0,3.59812,-1
1777409993528,0.254011,0.983125,-0.0825587,-0.00150279,-0.0109466,0.00570791,0,0,3.62979,-1
1777409993542,0.253087,0.983346,-0.0819676,-0.00171822,-0.0114031,0.0056318,0,0,3.62332,-1
1777409993555,0.253024,0.983034,-0.0825601,-0.00171176,-0.0106436,0.00586398,0,0,3.73197,-1
1777409993570,0.25332,0.981274,-0.0838725,-0.00161575,-0.0101022,0.00583907,0,0,4.19344,-1
1777409993584,0.252312,0.981448,-0.0830571,-0.00137953,-0.00940281,0.00606818,0,0,3.62586,-1
1777409993597,0.252456,0.981489,-0.0834378,-0.00135782,-0.00899099,0.00610889,0,0,3.57477,-1
1777409993612,0.252661,0.981774,-0.0830302,-0.00132447,-0.00827686,0.0060788,0,0,4.28221,-1
1777409993626,0.252429,0.98229,-0.0827277,-0.0012459,-0.00800099,0.00619171,0,0,3.75621,-1
1777409993639,0.252676,0.982037,-0.0824832,-0.00113747,-0.00779198,0.00618266,0,0,3.54445,-1
1777409993653,0.252992,0.982182,-0.0822113,-0.000953779,-0.00745767,0.00628546,0,0,3.5609,-1
1777409993667,0.253002,0.982497,-0.0823519,-0.00087887,-0.00725345,0.00627116,0,0,3.43771,-1
1777409993680,0.252765,0.982479,-0.0821011,-0.000795317,-0.00688084,0.00633045,0,0,3.48344,-1
1777409993694,0.253048,0.982434,-0.0817411,-0.000866316,-0.00667043,0.00634789,0,0,3.44275,-1
1777409993707,0.252754,0.983338,-0.0816204,-0.000667857,-0.00618923,0.00645854,0,0,3.47592,-1
1777409993721,0.253147,0.982259,-0.0807944,-0.000814515,-0.00601761,0.00633177,0,0,3.44636,-1
1777409993735,0.252916,0.982652,-0.0807816,-0.000927256,-0.0063566,0.00642192,0,0,4.15577,-1
1777409993749,0.252876,0.982529,-0.0807422,-0.00102511,-0.00669371,0.00640425,0,0,3.42269,-1
1777409993762,0.25318,0.982742,-0.0808419,-0.00116457,-0.00676784,0.00627196,0,0,3.4206,-1
1777409993776,0.252961,0.98282,-0.0807032,-0.00118061,-0.00680356,0.00627554,0,0,3.43875,-1
1777409993789,0.252973,0.982798,-0.0806955,-0.00107156,-0.00669168,0.00624467,0,0,3.42599,-1
1777409993803,0.252724,0.982681,-0.0807841,-0.00102859,-0.00664604,0.00624979,0,0,3.43371,-1
1777409993816,0.252817,0.982858,-0.0806623,-0.000863843,-0.00660295,0.00637451,0,0,3.4196,-1
1777409993831,0.251961,0.982587,-0.0809446,-0.00075116,-0.00665219,0.00638947,0,0,3.44719,-1
1777409993844,0.252166,0.982619,-0.0807042,-0.000730435,-0.00644177,0.00665622,0,0,3.42729,-1
1777409993858,0.25199,0.982389,-0.0810389,-0.000835046,-0.00636732,0.00662969,0,0,3.90182,-1
1777409993872,0.252316,0.982897,-0.0807111,-0.000826743,-0.00635699,0.00662605,0,0,3.42273,-1
1777409993885,0.252515,0.98283,-0.080566,-0.000904543,-0.00637293,0.00663547,0,0,3.44317,-1
1777409993899,0.252182,0.983218,-0.0807304,-0.000866651,-0.00627665,0.00672143,0,0,3.4284,-1
1777409993912,0.252087,0.98383,-0.0808444,-0.000865139,-0.00598025,0.006794,0,0,3.42108,-1
1777409993926,0.252354,0.983806,-0.0809658,-0.000803765,-0.00565336,0.00689676,0,0,3.43225,-1
1777409993939,0.252646,0.984221,-0.0805599,-0.000720144,-0.00534053,0.00690384,0,0,3.42371,-1
1777409993953,0.252772,0.984285,-0.0805877,-0.000671185,-0.00500672,0.00692764,0,0,4.11583,-1
1777409993967,0.252561,0.983989,-0.0804085,-0.000552181,-0.00454176,0.00698437,0,0,3.4219,-1
1777409993980,0.252568,0.983942,-0.0804036,-0.000328524,-0.00404721,0.0070165,0,0,3.42442,-1
1777409993994,0.25304,0.983774,-0.0805223,-0.000305815,-0.00378166,0.00695691,0,0,3.4291,-1
1777409994007,0.253007,0.983616,-0.0798127,-0.000151641,-0.00317989,0.0069649,0,0,3.42258,-1
1777409994021,0.252975,0.98333,-0.0798413,8.80853e-05,-0.002629,0.00697672,0,0,3.42819,-1
1777409994034,0.25248,0.983361,-0.080238,0.000267265,-0.00203194,0.00700072,0,0,3.43099,-1
1777409994048,0.252505,0.983131,-0.0806536,0.00033791,-0.0012243,0.0068992,0,0,3.44479,-1
1777409994061,0.252734,0.983009,-0.0805254,0.000485949,-0.000560445,0.00700462,0,0,3.4206,-1
1777409994075,0.250746,0.983674,-0.0788844,0.00080124,0.000965362,0.00693713,0,0,3.78923,-1
1777409994089,0.245664,0.98485,-0.0752812,0.00235771,0.00743249,0.00710037,0,0,3.42269,-1
1777409994102,0.243059,0.984289,-0.0724964,0.00494873,0.0189406,0.00731012,0,0,3.46744,-1
1777409994116,0.239641,0.989416,-0.0720042,0.00901723,0.0314559,0.00827884,0,0,3.42499,-1
1777409994129,0.244591,0.994679,-0.0715395,0.0126092,0.0420789,0.00878216,0,0,3.42053,-1
1777409994143,0.246182,0.993923,-0.0732647,0.0147536,0.0512111,0.00900462,0,0,3.43797,-1
1777409994156,0.247697,0.99473,-0.0716475,0.0169191,0.0580327,0.00923173,0,0,3.43127,-1
1777409994170,0.248387,0.995929,-0.0706825,0.0183336,0.0648827,0.00945466,0,0,3.80379,-1
1777409994184,0.25045,0.995555,-0.0724146,0.0197759,0.0708133,0.00979354,0,0,3.43901,-1
1777409994197,0.254136,0.994188,-0.0764735,0.0199897,0.0722963,0.00983081,0,0,3.43586,-1
1777409994211,0.258642,0.992501,-0.0792913,0.019211,0.0691188,0.00965618,0,0,3.44199,-1
1777409994224,0.257459,0.992183,-0.0803488,0.0180007,0.0647365,0.00957699,0,0,3.43673,-1
1777409994238,0.257246,0.991498,-0.0794846,0.0169781,0.0613579,0.00945085,0,0,3.45119,-1
1777409994251,0.257483,0.990619,-0.0793399,0.0157517,0.0579333,0.00948593,0,0,3.43016,-1
1777409994265,0.257132,0.99031,-0.0787103,0.0146755,0.0543154,0.0093649,0,0,3.45201,-1
1777409994278,0.256718,0.989648,-0.0785542,0.0137196,0.0504809,0.00918215,0,0,3.44043,-1
1777409994292,0.256423,0.989147,-0.078174,0.0129029,0.0472468,0.00906532,0,0,3.83731,-1
1777409994306,0.256159,0.989099,-0.0782124,0.0120421,0.0442498,0.00889937,0,0,3.44425,-1
1777409994319,0.256279,0.988779,-0.0782759,0.0111868,0.0413823,0.00871276,0,0,3.43553,-1
1777409994333,0.255995,0.988135,-0.0783907,0.010418,0.0385516,0.00859656,0,0,3.64095,-1
1777409994347,0.255919,0.988061,-0.0785402,0.00965382,0.036038,0.00852542,0,0,3.4309,-1
1777409994360,0.255902,0.987635,-0.0789414,0.00891963,0.0335712,0.00845398,0,0,3.44006,-1
1777409994374,0.256023,0.987562,-0.0788682,0.0083251,0.0312,0.00834802,0,0,3.43454,-1
1777409994387,0.255425,0.987424,-0.0786211,0.00768685,0.0288976,0.00829082,0,0,3.46543,-1
1777409994401,0.255244,0.987075,-0.0788809,0.00722142,0.0269512,0.00823683,0,0,3.43517,-1
1777409994414,0.255279,0.986896,-0.0791671,0.00665364,0.0249513,0.0081302,0,0,3.43425,-1
1777409994428,0.255174,0.986659,-0.0796701,0.00615625,0.0230336,0.00808093,0,0,3.4401,-1
1777409994442,0.255021,0.986572,-0.0798437,0.00567391,0.021322,0.00806868,0,0,3.44045,-1
1777409994455,0.254931,0.986449,-0.0797473,0.00522291,0.0195608,0.00795436,0,0,3.44325,-1
1777409994469,0.254901,0.986113,-0.0798069,0.00483575,0.0179712,0.00787642,0,0,3.43579,-1
1777409994482,0.254708,0.985619,-0.0800138,0.00443176,0.0164878,0.00774719,0,0,3.44169,-1
1777409994496,0.254608,0.985604,-0.0799901,0.00397764,0.0149592,0.00767231,0,0,3.44169,-1
1777409994510,0.254172,0.985576,-0.0798307,0.00377594,0.0136534,0.00768726,0,0,3.79127,-1
1777409994523,0.253993,0.985522,-0.0802006,0.00344424,0.0124936,0.00771423,0,0,3.43334,-1
1777409994537,0.2537,0.98543,-0.0802211,0.00311403,0.011249,0.00760694,0,0,3.44912,-1
1777409994550,0.253712,0.985111,-0.080309,0.00282802,0.0101342,0.0075913,0,0,3.43842,-1
1777409994564,0.254106,0.985357,-0.0804193,0.00247671,0.0089877,0.00743097,0,0,3.43458,-1
1777409994578,0.254068,0.985398,-0.0805919,0.00215795,0.00803396,0.00741236,0,0,3.44855,-1
1777409994591,0.254154,0.985382,-0.0806315,0.00195555,0.00706521,0.00734341,0,0,3.4403,-1
1777409994605,0.254072,0.985024,-0.0807237,0.00164889,0.00612083,0.007334,0,0,3.46216,-1
1777409994618,0.254063,0.985316,-0.080619,0.00144079,0.00529793,0.00733796,0,0,3.43468,-1
1777409994632,0.253985,0.985414,-0.0802463,0.00126149,0.00450406,0.00729459,0,0,3.44075,-1
1777409994645,0.253926,0.985219,-0.0802506,0.00102802,0.00379754,0.00740353,0,0,3.44638,-1
1777409994659,0.254035,0.985144,-0.080282,0.000888999,0.0029765,0.00745497,0,0,3.42943,-1
1777409994672,0.253795,0.985005,-0.0800925,0.000667858,0.00240705,0.00744358,0,0,3.44564,-1
1777409994686,0.253623,0.984627,-0.0801739,0.000519068,0.00182243,0.00753987,0,0,3.43569,-1
1777409994699,0.253543,0.984737,-0.0802918,0.000378624,0.00116357,0.00749375,0,0,3.44382,-1
1777409994713,0.253413,0.98436,-0.0808002,0.000237494,0.000601604,0.00750587,0,0,3.43551,-1
1777409994727,0.25355,0.984375,-0.0807871,0.000142817,0.000199618,0.00741884,0,0,3.82192,-1
1777409994740,0.253625,0.98421,-0.0808432,-1.07774e-05,-0.000363939,0.00740947,0,0,3.44038,-1
1777409994754,0.253476,0.98437,-0.0809783,-0.000245675,-0.000805966,0.0073621,0,0,3.43897,-1
1777409994767,0.253555,0.984425,-0.0804211,-0.000356069,-0.00132168,0.00741586,0,0,3.4439,-1
1777409994781,0.253534,0.984149,-0.0802786,-0.000451706,-0.00181275,0.00734244,0,0,3.43505,-1
1777409994795,0.253664,0.983942,-0.0803769,-0.000640462,-0.00224202,0.0072817,0,0,3.4414,-1
1777409994808,0.253335,0.98398,-0.0805656,-0.000758684,-0.00263008,0.00723293,0,0,3.43469,-1
1777409994822,0.253491,0.983756,-0.0798946,-0.000771792,-0.00290646,0.00718261,0,0,3.4699,-1
1777409994835,0.253432,0.983695,-0.0798227,-0.000805574,-0.00327438,0.00703235,0,0,3.43512,-1
1777409994849,0.253595,0.983678,-0.0804396,-0.00092738,-0.00353603,0.00701897,0,0,3.43917,-1
1777409994862,0.253366,0.983347,-0.0806247,-0.000939589,-0.00381725,0.00698494,0,0,3.44695,-1
1777409994876,0.253246,0.983802,-0.0804571,-0.000938268,-0.00407414,0.00695709,0,0,3.44314,-1
1777409994889,0.25305,0.983916,-0.0804633,-0.000996966,-0.00443651,0.00693509,0,0,3.44321,-1
1777409994903,0.253016,0.983723,-0.0800171,-0.00108663,-0.00459015,0.00693146,0,0,3.43531,-1
1777409994916,0.252984,0.983842,-0.0794728,-0.0011627,-0.00475658,0.00692802,0,0,3.44519,-1
1777409994930,0.253487,0.984228,-0.0796574,-0.00120452,-0.0049308,0.00699757,0,0,3.43551,-1
1777409994944,0.253867,0.984085,-0.0795988,-0.0012226,-0.00520658,0.00699471,0,0,3.89969,-1
1777409994957,0.25391,0.984417,-0.0793792,-0.00130388,-0.00541551,0.00697488,0,0,3.43453,-1
1777409994971,0.253896,0.984524,-0.0793225,-0.00143199,-0.00555706,0.00712316,0,0,3.43399,-1
1777409994984,0.253294,0.984639,-0.0792143,-0.00142446,-0.00575917,0.0071261,0,0,3.44086,-1
1777409994998,0.253425,0.984405,-0.0793449,-0.00148158,-0.00584718,0.00714172,0,0,3.43505,-1
1777409995012,0.253356,0.984335,-0.0795093,-0.00156547,-0.00603731,0.00712649,0,0,3.44003,-1
1777409995025,0.253181,0.984611,-0.0794453,-0.00155045,-0.00607975,0.00718063,0,0,3.43468,-1
1777409995039,0.25303,0.984406,-0.0791658,-0.00153627,-0.00620116,0.00707758,0,0,3.47105,-1
1777409995052,0.253189,0.983966,-0.0789568,-0.00161709,-0.00632004,0.00704454,0,0,3.43947,-1
1777409995066,0.253339,0.984523,-0.0787595,-0.00162058,-0.00641085,0.00714181,0,0,3.43462,-1
1777409995080,0.253357,0.984254,-0.0785185,-0.00166242,-0.0065351,0.00707091,0,0,3.45005,-1
1777409995093,0.253826,0.983933,-0.078113,-0.00171904,-0.006601,0.00701683,0,0,3.43358,-1
1777409995107,0.253652,0.983903,-0.0782232,-0.00173822,-0.0066632,0.00703002,0,0,3.44092,-1
1777409995121,0.253543,0.983778,-0.0789709,-0.00184197,-0.00673476,0.00703818,0,0,3.43405,-1
1777409995134,0.25344,0.983497,-0.0790741,-0.00188851,-0.00687082,0.00702448,0,0,3.43944,-1
1777409995148,0.253015,0.983519,-0.0789113,-0.00184681,-0.00702065,0.00703296,0,0,3.44517,-1
1777409995162,0.252969,0.983649,-0.0790178,-0.0018417,-0.00711069,0.00706665,0,0,3.95897,-1
1777409995175,0.252967,0.983457,-0.0792417,-0.00190111,-0.00721282,0.00705563,0,0,3.43369,-1
1777409995189,0.253047,0.983344,-0.0790968,-0.00197002,-0.00728352,0.00701098,0,0,3.4358,-1
1777409995203,0.253232,0.98295,-0.0789739,-0.00202223,-0.00741448,0.00693029,0,0,3.4423,-1
