timestamp,ax,ay,az,gx,gy,gz,roll,pitch_k,acc_norm,gyro_norm,classe_prevista_raw,classe_prevista,delay_ms
1778532213192,0.0252363,0.668028,-0.124228,0.0375547,-0.161,0.133194,91.4033,-1.93383,1.01958,0.360764,0,0,3.288
1778532213205,0.028,0.799,-0.151,0.028,-0.109,0.078,95.924,-1.893,1.014,0.028,0,0,3.323
1778532213219,0.030,0.856,-0.163,0.023,-0.083,0.057,97.610,-1.918,1.016,0.019,0,0,3.297
1778532213232,0.031,0.889,-0.167,0.020,-0.069,0.044,98.222,-1.929,1.020,0.019,0,0,3.277
1778532213246,0.032,0.910,-0.170,0.019,-0.059,0.037,98.702,-1.940,1.017,0.017,0,0,3.271
1778532213259,0.032,0.924,-0.173,0.017,-0.052,0.032,99.053,-1.931,1.021,0.018,0,0,3.269
1778532213272,0.033,0.935,-0.175,0.016,-0.047,0.028,99.320,-1.967,1.019,0.015,0,0,3.256
1778532213286,0.033,0.943,-0.177,0.015,-0.043,0.026,99.501,-1.919,1.017,0.018,0,0,3.244
1778532213299,0.033,0.949,-0.177,0.014,-0.040,0.024,99.608,-1.924,1.017,0.015,0,0,3.266
1778532213312,0.033,0.954,-0.178,0.013,-0.037,0.022,99.703,-1.944,1.021,0.014,0,0,3.248
1778532213326,0.033,0.959,-0.179,0.013,-0.035,0.021,99.823,-1.923,1.020,0.016,0,0,3.283
1778532213339,0.034,0.963,-0.180,0.012,-0.033,0.019,99.934,-1.983,1.023,0.014,0,0,3.247
1778532213352,0.034,0.966,-0.180,0.012,-0.031,0.018,99.976,-1.985,1.016,0.014,0,0,3.262
1778532213366,0.034,0.968,-0.181,0.011,-0.030,0.017,100.042,-1.980,1.017,0.014,0,0,3.250
1778532213379,0.034,0.971,-0.181,0.011,-0.028,0.016,100.096,-1.969,1.016,0.013,0,0,3.266
1778532213392,0.034,0.972,-0.182,0.010,-0.027,0.016,100.158,-1.973,1.016,0.012,0,0,3.263
1778532213406,0.034,0.975,-0.182,0.010,-0.026,0.015,100.184,-1.959,1.020,0.014,0,0,3.263
1778532213419,0.034,0.976,-0.181,0.010,-0.025,0.014,100.151,-1.953,1.018,0.013,0,0,3.276
1778532213433,0.034,0.978,-0.182,0.009,-0.024,0.014,100.181,-1.952,1.022,0.014,0,0,3.286
1778532213446,0.034,0.980,-0.182,0.009,-0.024,0.013,100.239,-1.948,1.022,0.015,0,0,3.275
1778532213459,0.034,0.981,-0.182,0.009,-0.023,0.013,100.245,-1.965,1.022,0.013,0,0,3.280
1778532213473,0.035,0.982,-0.182,0.009,-0.022,0.013,100.259,-1.999,1.019,0.012,0,0,3.267
1778532213486,0.035,0.984,-0.182,0.008,-0.022,0.012,100.273,-1.992,1.024,0.015,0,0,3.272
1778532213500,0.035,0.984,-0.183,0.008,-0.021,0.012,100.325,-2.000,1.012,0.015,0,0,3.267
1778532213513,0.035,0.985,-0.183,0.008,-0.021,0.012,100.342,-1.972,1.015,0.013,0,0,3.284
1778532213526,0.035,0.986,-0.183,0.008,-0.020,0.012,100.367,-2.000,1.017,0.010,0,0,3.269
1778532213540,0.035,0.987,-0.183,0.008,-0.019,0.011,100.382,-2.004,1.024,0.011,0,0,3.266
1778532213553,0.035,0.987,-0.183,0.007,-0.019,0.011,100.374,-1.989,1.013,0.014,0,0,3.270
1778532213566,0.035,0.988,-0.184,0.007,-0.019,0.011,100.413,-1.970,1.017,0.012,0,0,3.281
1778532213580,0.035,0.989,-0.184,0.007,-0.018,0.011,100.434,-1.964,1.021,0.012,2,2,12.937
1778532213603,0.035,0.989,-0.184,0.007,-0.018,0.011,100.461,-1.985,1.018,0.015,2,2,3.281
1778532213616,0.035,0.989,-0.184,0.007,-0.017,0.011,100.478,-1.972,1.013,0.014,2,2,3.273
1778532213630,0.035,0.990,-0.184,0.006,-0.017,0.011,100.490,-1.975,1.021,0.018,2,2,3.248
1778532213643,0.035,0.990,-0.185,0.006,-0.017,0.011,100.519,-1.974,1.017,0.019,2,2,3.284
1778532213656,0.035,0.991,-0.185,0.006,-0.017,0.011,100.549,-1.976,1.022,0.022,2,2,3.867
1778532213670,0.035,0.991,-0.185,0.006,-0.016,0.012,100.540,-1.988,1.015,0.020,2,2,3.297
1778532213684,0.035,0.992,-0.185,0.006,-0.016,0.012,100.555,-1.995,1.017,0.017,2,2,3.260
1778532213697,0.035,0.992,-0.185,0.006,-0.016,0.012,100.558,-2.006,1.016,0.017,2,2,3.281
1778532213710,0.035,0.992,-0.185,0.005,-0.016,0.012,100.576,-2.014,1.017,0.018,2,2,3.258
1778532213724,0.035,0.993,-0.185,0.005,-0.015,0.012,100.569,-2.003,1.023,0.016,2,2,3.874
1778532213738,0.035,0.993,-0.186,0.005,-0.015,0.012,100.588,-1.994,1.018,0.016,2,2,3.292
1778532213751,0.035,0.994,-0.185,0.005,-0.015,0.012,100.560,-1.952,1.018,0.014,2,2,3.254
1778532213764,0.035,0.994,-0.186,0.004,-0.015,0.012,100.593,-1.970,1.018,0.015,2,2,3.271
1778532213778,0.035,0.994,-0.186,0.004,-0.014,0.012,100.587,-1.991,1.021,0.012,2,2,3.274
1778532213791,0.035,0.994,-0.186,0.004,-0.014,0.012,100.584,-1.992,1.016,0.013,2,2,3.945
1778532213805,0.035,0.995,-0.186,0.004,-0.014,0.011,100.604,-2.010,1.022,0.011,2,2,3.267
1778532213819,0.035,0.995,-0.186,0.003,-0.014,0.011,100.579,-2.013,1.017,0.012,2,2,3.266
1778532213832,0.035,0.995,-0.186,0.003,-0.014,0.011,100.561,-2.027,1.020,0.013,2,2,3.273
1778532213845,0.035,0.996,-0.186,0.003,-0.013,0.011,100.579,-1.994,1.021,0.016,2,2,3.261
1778532213859,0.035,0.996,-0.186,0.003,-0.013,0.011,100.550,-2.026,1.016,0.012,2,2,4.098
1778532213873,0.036,0.996,-0.186,0.003,-0.013,0.011,100.547,-2.051,1.017,0.013,2,2,3.268
1778532213886,0.036,0.996,-0.186,0.003,-0.013,0.011,100.521,-2.069,1.022,0.013,2,2,3.275
1778532213900,0.036,0.996,-0.186,0.003,-0.013,0.011,100.522,-2.079,1.013,0.012,2,2,3.274
1778532213913,0.036,0.997,-0.186,0.003,-0.013,0.011,100.526,-2.121,1.019,0.012,2,2,3.277
1778532213927,0.036,0.997,-0.185,0.002,-0.013,0.010,100.501,-2.116,1.013,0.011,2,2,3.938
1778532213941,0.036,0.997,-0.185,0.002,-0.012,0.010,100.496,-2.114,1.022,0.008,2,2,3.261
1778532213954,0.036,0.997,-0.186,0.002,-0.012,0.010,100.516,-2.109,1.015,0.010,2,2,3.290
1778532213967,0.037,0.997,-0.186,0.002,-0.012,0.009,100.524,-2.133,1.018,0.010,2,2,3.260
1778532213981,0.037,0.998,-0.185,0.002,-0.012,0.009,100.486,-2.112,1.025,0.011,2,2,3.274
1778532213994,0.037,0.998,-0.186,0.002,-0.012,0.009,100.527,-2.113,1.022,0.009,2,2,3.922
1778532214008,0.037,0.998,-0.186,0.002,-0.012,0.009,100.563,-2.100,1.020,0.011,2,2,3.289
1778532214022,0.037,0.998,-0.186,0.002,-0.012,0.009,100.511,-2.106,1.019,0.011,2,2,3.264
1778532214035,0.037,0.998,-0.186,0.002,-0.012,0.009,100.534,-2.087,1.021,0.011,2,2,3.270
1778532214048,0.037,0.998,-0.186,0.002,-0.012,0.008,100.607,-2.091,1.020,0.011,2,2,3.286
1778532214062,0.037,0.999,-0.186,0.002,-0.012,0.008,100.587,-2.079,1.024,0.014,2,2,3.917
1778532214076,0.036,0.999,-0.187,0.001,-0.012,0.009,100.596,-2.069,1.020,0.014,2,2,3.271
1778532214089,0.037,0.999,-0.186,0.001,-0.011,0.008,100.570,-2.072,1.021,0.011,2,2,3.259
1778532214102,0.037,0.999,-0.186,0.001,-0.011,0.008,100.531,-2.075,1.016,0.011,2,2,3.268
1778532214116,0.036,0.999,-0.186,0.001,-0.011,0.008,100.537,-2.060,1.024,0.012,2,2,3.266
1778532214129,0.036,1.000,-0.186,0.001,-0.011,0.008,100.524,-2.048,1.019,0.010,2,2,3.933
1778532214143,0.036,1.000,-0.186,0.001,-0.011,0.008,100.527,-2.050,1.022,0.015,2,2,3.257
1778532214157,0.036,1.000,-0.186,0.001,-0.011,0.008,100.537,-2.053,1.019,0.013,2,2,3.248
1778532214170,0.036,0.999,-0.186,0.000,-0.011,0.008,100.576,-2.030,1.011,0.012,2,2,3.305
1778532214183,0.036,0.999,-0.187,0.000,-0.011,0.008,100.588,-2.050,1.018,0.011,2,2,3.259
1778532214197,0.036,1.000,-0.187,0.000,-0.011,0.008,100.582,-2.038,1.021,0.014,2,2,3.893
1778532214211,0.037,1.000,-0.186,-0.000,-0.011,0.008,100.564,-2.099,1.017,0.014,2,2,3.267
1778532214224,0.037,1.000,-0.186,-0.000,-0.010,0.008,100.571,-2.106,1.018,0.013,2,2,3.264
1778532214237,0.037,0.999,-0.186,-0.001,-0.010,0.008,100.547,-2.103,1.013,0.015,2,2,3.265
1778532214251,0.037,0.999,-0.186,-0.001,-0.010,0.008,100.539,-2.082,1.017,0.016,2,2,3.248
1778532214264,0.037,0.999,-0.186,-0.002,-0.010,0.008,100.546,-2.078,1.013,0.019,2,2,3.906
1778532214278,0.037,1.000,-0.186,-0.002,-0.010,0.009,100.492,-2.088,1.022,0.020,2,2,3.255
1778532214291,0.037,1.000,-0.186,-0.003,-0.009,0.009,100.491,-2.113,1.022,0.021,2,2,3.278
1778532214305,0.037,1.000,-0.186,-0.004,-0.009,0.009,100.467,-2.148,1.015,0.023,2,2,3.271
1778532214318,0.037,0.999,-0.186,-0.004,-0.009,0.009,100.493,-2.131,1.011,0.023,2,2,3.271
1778532214332,0.037,0.999,-0.186,-0.005,-0.008,0.009,100.492,-2.137,1.019,0.026,2,2,3.887
1778532214346,0.037,1.000,-0.186,-0.005,-0.008,0.009,100.510,-2.106,1.022,0.027,2,2,3.271
1778532214359,0.037,1.000,-0.186,-0.006,-0.007,0.009,100.506,-2.105,1.016,0.031,2,2,3.264
1778532214372,0.037,1.000,-0.186,-0.007,-0.007,0.010,100.517,-2.103,1.019,0.032,2,2,3.272
1778532214386,0.037,1.000,-0.186,-0.008,-0.007,0.010,100.495,-2.133,1.023,0.028,2,2,3.292
1778532214400,0.038,1.000,-0.185,-0.008,-0.006,0.010,100.452,-2.156,1.019,0.024,2,2,3.880
1778532214414,0.038,1.000,-0.185,-0.009,-0.006,0.010,100.428,-2.168,1.024,0.022,2,2,3.270
1778532214427,0.038,1.000,-0.185,-0.009,-0.006,0.010,100.389,-2.160,1.020,0.025,2,2,3.265
1778532214440,0.038,1.000,-0.184,-0.010,-0.005,0.010,100.364,-2.140,1.012,0.028,2,2,3.273
1778532214454,0.038,1.001,-0.184,-0.010,-0.005,0.010,100.344,-2.163,1.024,0.030,2,2,3.259
1778532214467,0.038,1.001,-0.184,-0.011,-0.005,0.010,100.264,-2.143,1.022,0.032,2,2,3.904
1778532214481,0.038,1.001,-0.184,-0.012,-0.005,0.010,100.261,-2.143,1.027,0.034,2,2,3.265
1778532214494,0.038,1.001,-0.183,-0.013,-0.004,0.010,100.221,-2.170,1.020,0.034,2,2,3.253
1778532214508,0.038,1.002,-0.182,-0.013,-0.004,0.010,100.125,-2.167,1.022,0.036,2,2,3.273
1778532214521,0.038,1.002,-0.182,-0.014,-0.004,0.011,100.064,-2.159,1.021,0.036,2,2,3.259
1778532214535,0.038,1.002,-0.181,-0.014,-0.004,0.011,99.999,-2.177,1.030,0.032,2,2,3.983
1778532214549,0.038,1.003,-0.180,-0.015,-0.003,0.011,99.902,-2.130,1.036,0.026,2,2,3.266
1778532214562,0.038,1.005,-0.179,-0.014,-0.003,0.012,99.781,-2.155,1.043,0.024,2,2,3.258
1778532214575,0.038,1.007,-0.177,-0.013,-0.003,0.012,99.482,-2.177,1.071,0.023,2,2,3.264
1778532214589,0.041,1.016,-0.176,-0.009,-0.003,0.008,99.266,-2.433,1.233,0.124,2,2,3.261
1778532214602,0.063,1.053,-0.165,0.006,-0.005,-0.004,98.206,-3.720,1.927,0.522,3,3,3.914
1778532214616,0.071,1.079,-0.157,0.040,-0.013,-0.010,97.318,-4.209,1.677,0.970,3,3,3.261
1778532214630,0.095,1.099,-0.151,0.077,-0.028,-0.012,96.733,-5.933,1.644,1.127,3,3,3.276
1778532214643,0.097,1.100,-0.127,0.108,-0.044,-0.012,94.226,-5.958,1.202,0.997,3,3,3.260
1778532214656,0.087,1.104,-0.096,0.134,-0.048,-0.021,91.323,-4.829,1.332,0.864,3,3,3.263
1778532214670,0.081,1.089,-0.062,0.151,-0.039,-0.029,87.238,-4.158,1.025,0.675,4,4,3.871
1778532214684,0.086,1.072,-0.022,0.157,-0.022,-0.029,82.728,-4.677,1.125,0.520,4,4,3.252
1778532214697,0.098,1.057,0.023,0.157,-0.002,-0.024,78.248,-5.775,1.286,0.563,4,4,3.288
1778532214710,0.113,1.036,0.070,0.151,0.018,-0.014,73.495,-7.095,1.316,0.590,4,4,3.256
1778532214724,0.130,1.014,0.115,0.139,0.035,-0.001,68.909,-8.523,1.316,0.607,4,4,3.263
1778532214737,0.143,0.995,0.156,0.120,0.047,0.014,65.061,-9.601,1.279,0.654,4,4,3.875
1778532214751,0.152,0.978,0.190,0.093,0.055,0.030,62.066,-10.390,1.170,0.782,4,4,3.276
1778532214764,0.157,0.964,0.217,0.057,0.060,0.045,59.888,-10.715,1.066,1.023,4,4,3.261
1778532214778,0.157,0.957,0.236,0.011,0.064,0.059,59.020,-10.547,1.060,1.254,4,4,3.254
1778532214792,0.157,0.959,0.248,-0.039,0.068,0.071,59.390,-10.291,1.143,1.397,4,4,3.342
1778532214805,0.158,0.967,0.254,-0.089,0.071,0.083,60.575,-10.161,1.209,1.461,4,4,3.876
1778532214819,0.162,0.979,0.253,-0.139,0.072,0.093,62.293,-10.188,1.277,1.489,4,4,3.275
1778532214832,0.166,0.992,0.248,-0.188,0.071,0.103,64.393,-10.271,1.308,1.496,4,4,3.256
1778532214846,0.169,1.007,0.238,-0.234,0.070,0.114,66.702,-10.274,1.355,1.489,4,4,3.267
1778532214859,0.170,1.019,0.225,-0.279,0.069,0.127,69.211,-10.066,1.302,1.511,4,4,3.260
1778532214872,0.167,1.029,0.210,-0.324,0.069,0.139,71.659,-9.603,1.259,1.558,4,4,3.894
1778532214886,0.163,1.043,0.194,-0.366,0.073,0.149,74.051,-8.990,1.366,1.524,4,4,3.269
1778532214900,0.160,1.057,0.176,-0.402,0.077,0.159,76.415,-8.485,1.384,1.414,4,4,3.264
1778532214913,0.157,1.068,0.157,-0.432,0.083,0.169,78.806,-8.031,1.335,1.321,4,4,3.290
1778532214927,0.152,1.076,0.137,-0.458,0.089,0.179,81.121,-7.471,1.287,1.232,4,4,3.246
1778532214940,0.147,1.081,0.117,-0.479,0.096,0.188,83.435,-6.964,1.239,1.148,1,1,3.977
1778532214954,0.143,1.082,0.094,-0.498,0.104,0.195,85.971,-6.506,1.177,1.083,1,1,3.267
1778532214967,0.139,1.080,0.071,-0.514,0.112,0.200,88.480,-6.205,1.111,1.049,1,1,3.272
1778532214981,0.139,1.078,0.048,-0.528,0.118,0.205,90.886,-6.207,1.140,0.980,1,1,3.268
1778532214994,0.141,1.077,0.025,-0.537,0.123,0.209,93.188,-6.539,1.174,0.870,1,1,3.264
1778532215008,0.145,1.075,0.001,-0.541,0.125,0.212,95.436,-7.015,1.183,0.743,1,1,3.898
1778532215022,0.149,1.072,-0.025,-0.542,0.123,0.214,97.790,-7.417,1.199,0.608,1,1,3.255
1778532215035,0.153,1.070,-0.052,-0.538,0.118,0.212,100.117,-7.768,1.236,0.475,1,1,3.268
1778532215048,0.157,1.069,-0.080,-0.529,0.111,0.209,102.365,-8.093,1.278,0.336,1,1,3.258
1778532215062,0.161,1.067,-0.109,-0.515,0.102,0.204,104.572,-8.336,1.283,0.221,1,1,3.276
1778532215075,0.162,1.065,-0.137,-0.498,0.093,0.198,106.633,-8.316,1.264,0.162,1,1,3.887
1778532215089,0.158,1.064,-0.164,-0.475,0.085,0.190,108.502,-7.847,1.302,0.159,1,1,3.262
1778532215102,0.151,1.066,-0.192,-0.448,0.080,0.180,110.080,-7.065,1.374,0.288,1,1,3.263
1778532215116,0.148,0.998,-0.124,-0.392,0.103,0.119,97.656,-6.758,1.459,1.942,1,1,3.247
1778532215129,0.161,1.014,-0.088,-0.321,0.102,0.058,94.432,-7.627,1.601,2.145,1,1,3.270
1778532215142,0.155,1.025,-0.067,-0.230,0.119,0.022,92.340,-7.051,1.313,2.382,1,1,3.833
1778532215156,0.153,1.031,-0.062,-0.133,0.131,-0.005,91.886,-6.837,1.172,2.539,1,1,3.280
1778532215170,0.145,1.036,-0.064,-0.042,0.135,-0.025,92.186,-6.089,1.160,2.392,1,1,3.251
1778532215183,0.141,1.033,-0.071,0.034,0.129,-0.039,93.257,-5.720,0.989,2.049,1,1,3.266
1778532215197,0.134,1.032,-0.075,0.097,0.114,-0.050,93.754,-5.083,1.014,1.789,1,1,3.505
1778532215210,0.126,1.025,-0.083,0.145,0.103,-0.054,94.967,-4.388,0.906,1.412,1,1,3.874
1778532215224,0.119,1.019,-0.091,0.181,0.101,-0.054,96.160,-3.764,0.937,1.126,1,1,3.290
1778532215237,0.117,1.012,-0.099,0.206,0.101,-0.053,97.263,-3.749,0.910,0.858,1,1,3.255
1778532215251,0.115,1.007,-0.106,0.218,0.098,-0.052,98.102,-3.862,0.930,0.519,1,1,3.289
1778532215264,0.112,1.004,-0.110,0.223,0.096,-0.050,98.448,-3.767,0.964,0.347,1,1,3.260
1778532215278,0.111,1.003,-0.112,0.224,0.093,-0.050,98.538,-3.845,0.994,0.261,1,1,4.007
1778532215292,0.109,1.003,-0.113,0.224,0.090,-0.050,98.360,-3.823,1.023,0.224,1,1,3.261
1778532215305,0.107,1.004,-0.113,0.224,0.085,-0.050,98.192,-3.874,1.038,0.251,1,1,3.267
1778532215318,0.105,1.005,-0.114,0.225,0.081,-0.050,98.205,-3.759,1.021,0.264,1,1,3.279
1778532215332,0.101,1.006,-0.115,0.226,0.078,-0.048,98.066,-3.502,1.037,0.250,1,1,3.253
1778532215345,0.098,1.007,-0.117,0.228,0.073,-0.045,98.204,-3.333,1.060,0.290,1,1,3.910
1778532215359,0.092,1.006,-0.121,0.226,0.070,-0.041,98.564,-2.810,1.005,0.165,1,1,3.256
1778532215372,0.093,1.006,-0.123,0.224,0.065,-0.039,98.591,-3.188,1.031,0.176,1,1,3.273
1778532215386,0.092,1.007,-0.125,0.221,0.061,-0.038,98.704,-3.212,1.025,0.152,1,1,3.257
1778532215400,0.091,1.008,-0.127,0.218,0.056,-0.037,98.751,-3.233,1.044,0.165,1,1,3.808
1778532215413,0.088,1.007,-0.129,0.214,0.051,-0.035,98.905,-3.118,1.016,0.148,1,1,3.892
1778532215427,0.087,1.007,-0.131,0.211,0.047,-0.033,98.976,-3.122,1.031,0.130,1,1,3.250
1778532215440,0.085,1.007,-0.134,0.207,0.043,-0.030,99.123,-3.075,1.020,0.125,1,1,3.284
1778532215454,0.083,1.007,-0.136,0.203,0.040,-0.027,99.217,-3.025,1.025,0.131,1,1,3.259
1778532215467,0.082,1.009,-0.137,0.199,0.037,-0.023,99.215,-3.055,1.065,0.131,1,1,3.267
1778532215481,0.081,1.011,-0.139,0.196,0.034,-0.020,99.193,-3.044,1.075,0.141,1,1,3.889
1778532215495,0.080,1.015,-0.140,0.195,0.031,-0.016,99.197,-2.974,1.117,0.193,1,1,3.276
1778532215508,0.071,1.023,-0.143,0.196,0.028,-0.007,99.190,-2.207,1.218,0.301,1,1,3.275
1778532215521,0.081,1.040,-0.140,0.201,0.026,-0.002,98.618,-3.095,1.435,0.364,1,1,3.257
1778532215535,0.078,1.041,-0.143,0.209,0.024,0.004,98.859,-2.922,1.086,0.457,1,1,3.300
1778532215548,0.077,1.040,-0.146,0.218,0.022,0.011,99.170,-2.945,1.044,0.476,1,1,3.920
1778532215562,0.078,1.039,-0.149,0.226,0.020,0.019,99.454,-3.177,1.046,0.494,1,1,3.309
1778532215576,0.079,1.037,-0.153,0.234,0.018,0.025,99.820,-3.349,1.021,0.490,1,1,3.265
1778532215589,0.081,1.034,-0.157,0.242,0.017,0.030,100.266,-3.756,0.999,0.464,1,1,3.279
1778532215603,0.085,1.031,-0.162,0.249,0.015,0.034,100.693,-4.283,1.024,0.445,1,1,3.667
1778532215616,0.088,1.029,-0.166,0.254,0.013,0.035,101.143,-4.664,1.019,0.414,1,1,3.914
1778532215630,0.091,1.027,-0.171,0.259,0.011,0.034,101.529,-5.099,1.050,0.389,1,1,3.268
1778532215644,0.094,1.029,-0.175,0.265,0.009,0.030,101.809,-5.331,1.107,0.408,1,1,3.274
1778532215657,0.097,1.030,-0.180,0.270,0.007,0.024,102.099,-5.670,1.109,0.436,1,1,3.279
1778532215670,0.098,1.032,-0.185,0.276,0.006,0.016,102.349,-5.668,1.126,0.479,1,1,3.269
1778532215684,0.099,1.035,-0.189,0.283,0.005,0.007,102.627,-5.731,1.127,0.503,3,3,4.018
1778532215698,0.096,1.036,-0.195,0.290,0.005,-0.001,103.000,-5.357,1.123,0.512,3,3,3.271
1778532215711,0.092,1.040,-0.200,0.297,0.005,-0.006,103.253,-4.824,1.173,0.515,3,3,3.275
1778532215725,0.088,1.045,-0.205,0.306,0.005,-0.009,103.425,-4.457,1.193,0.547,3,3,3.279
1778532215738,0.084,1.052,-0.210,0.317,0.005,-0.011,103.557,-4.030,1.231,0.597,3,3,3.260
1778532215751,0.081,1.059,-0.214,0.330,0.006,-0.010,103.561,-3.687,1.250,0.676,3,3,3.939
1778532215765,0.079,1.068,-0.217,0.347,0.006,-0.007,103.497,-3.492,1.306,0.773,3,3,3.271
1778532215779,0.080,1.081,-0.220,0.367,0.006,-0.004,103.338,-3.555,1.388,0.890,3,3,3.280
1778532215792,0.084,1.094,-0.223,0.391,0.003,-0.000,103.223,-3.858,1.415,1.032,3,3,3.271
1778532215806,0.078,1.110,-0.224,0.421,0.002,0.005,102.862,-3.263,1.493,1.213,3,3,3.348
1778532215819,0.079,1.130,-0.223,0.458,-0.001,0.013,102.323,-3.308,1.581,1.425,3,3,3.931
1778532215833,0.080,1.158,-0.219,0.504,-0.004,0.022,101.553,-3.318,1.777,1.718,3,3,3.277
1778532215847,0.089,1.188,-0.211,0.561,-0.010,0.031,100.568,-3.858,1.862,2.078,3,3,3.281
1778532215860,0.094,1.227,-0.201,0.632,-0.016,0.039,99.488,-4.026,2.103,2.495,3,3,3.264
1778532215873,0.104,1.278,-0.185,0.702,-0.026,0.043,98.238,-4.345,2.412,2.522,3,3,3.277
1778532215887,0.114,1.338,-0.174,0.768,-0.035,0.038,97.307,-4.650,2.674,2.518,4,4,3.929
1778532215901,0.118,1.404,-0.178,0.833,-0.041,0.022,97.102,-4.569,2.874,2.542,4,4,3.271
1778532215914,0.126,1.459,-0.196,0.894,-0.047,0.006,97.659,-4.758,2.735,2.539,4,4,3.261
1778532215927,0.124,1.494,-0.207,0.954,-0.057,-0.004,97.961,-4.501,2.307,2.537,4,4,3.265
1778532215941,0.134,1.511,-0.223,1.011,-0.067,-0.028,98.833,-5.004,2.005,2.601,4,4,3.279
1778532215954,0.161,1.500,-0.227,1.067,-0.084,-0.041,99.342,-7.384,1.499,2.584,4,4,3.891
1778532215968,0.190,1.432,-0.193,1.120,-0.106,-0.026,89.223,-11.970,1.002,2.613,4,4,3.286
1778532215982,0.295,1.282,-0.133,1.111,-0.172,0.015,75.072,-15.442,3.465,2.356,4,4,3.258
1778532215995,0.281,1.213,-0.116,1.039,-0.245,0.056,63.308,-13.510,0.415,2.550,4,4,3.277
1778532216008,0.270,1.161,-0.071,0.936,-0.310,0.067,57.498,-12.485,0.916,2.659,4,4,3.268
1778532216022,0.236,1.148,-0.035,0.828,-0.357,0.055,56.683,-8.975,1.260,2.556,4,4,3.969
1778532216036,0.202,1.132,-0.006,0.729,-0.385,0.037,56.172,-5.404,1.136,2.210,4,4,3.273
1778532216049,0.171,1.102,0.019,0.631,-0.396,0.027,54.527,-1.562,0.874,2.028,4,4,3.268
1778532216063,0.148,1.068,0.038,0.532,-0.391,0.027,52.581,1.635,0.650,2.046,4,4,3.281
1778532216076,0.132,1.030,0.056,0.427,-0.374,0.032,50.043,3.739,0.541,2.304,4,4,3.260
1778532216089,0.122,1.000,0.071,0.319,-0.348,0.036,49.216,4.507,0.534,2.527,4,4,4.080
1778532216104,0.119,0.980,0.082,0.214,-0.317,0.040,50.049,3.493,0.644,2.554,4,4,3.265
1778532216117,0.125,0.967,0.092,0.113,-0.285,0.047,51.541,1.443,0.779,2.567,4,4,3.282
1778532216130,0.135,0.957,0.099,0.016,-0.257,0.061,53.378,-1.060,0.865,2.583,4,4,3.258
1778532216144,0.145,0.949,0.105,-0.077,-0.233,0.083,55.260,-3.279,0.892,2.613,4,4,3.273
1778532216157,0.152,0.946,0.110,-0.167,-0.211,0.107,57.238,-4.763,0.950,2.632,4,4,3.899
1778532216171,0.153,0.954,0.111,-0.253,-0.190,0.133,59.745,-5.099,1.143,2.654,4,4,3.262
1778532216185,0.148,0.973,0.107,-0.337,-0.165,0.162,62.496,-4.719,1.402,2.705,4,4,3.302
1778532216198,0.140,0.995,0.103,-0.417,-0.137,0.194,65.119,-4.202,1.466,2.768,4,4,3.280
1778532216211,0.133,1.018,0.101,-0.494,-0.107,0.229,67.288,-3.733,1.524,2.834,4,4,3.287
1778532216225,0.127,1.049,0.100,-0.569,-0.073,0.265,69.173,-3.353,1.730,2.885,5,5,3.913
1778532216239,0.127,1.092,0.096,-0.640,-0.037,0.296,71.143,-3.349,2.028,2.872,5,5,3.275
1778532216252,0.131,1.140,0.079,-0.709,-0.003,0.321,73.641,-3.569,2.218,2.829,5,5,3.271
1778532216266,0.140,1.196,0.047,-0.776,0.027,0.344,76.661,-3.968,2.530,2.788,5,5,3.258
1778532216279,0.162,1.260,0.001,-0.840,0.049,0.359,79.877,-4.817,2.914,2.684,5,5,3.288
1778532216292,0.195,1.324,-0.055,-0.902,0.060,0.364,83.212,-5.950,3.151,2.573,5,5,3.920
1778532216306,0.230,1.384,-0.120,-0.961,0.057,0.374,86.714,-7.060,3.267,2.581,5,5,3.273
1778532216320,0.256,1.430,-0.202,-1.018,0.038,0.404,90.752,-7.817,3.245,2.810,5,5,3.274
1778532216333,0.248,1.462,-0.287,-1.054,0.013,0.454,94.941,-7.187,3.059,2.710,5,5,3.274
1778532216347,0.207,1.477,-0.379,-1.071,-0.008,0.494,99.511,-5.257,3.074,2.238,5,5,3.267
1778532216360,0.157,1.478,-0.479,-1.076,-0.019,0.500,104.373,-3.133,3.187,1.410,5,5,3.896
1778532216374,0.119,1.483,-0.581,-1.061,-0.028,0.475,108.771,-1.674,3.310,0.736,5,5,3.269
1778532216387,0.108,1.489,-0.676,-1.023,-0.044,0.437,112.637,-1.270,3.208,0.716,5,5,3.265
1778532216401,0.099,1.488,-0.752,-0.968,-0.068,0.395,116.059,-0.994,2.814,1.075,5,5,3.299
1778532216414,0.106,1.598,-0.544,-0.840,-0.132,0.312,109.300,-1.137,5.662,3.593,5,5,3.259
1778532216427,0.107,1.563,-0.419,-0.741,-0.129,0.218,100.729,-1.310,2.454,2.870,5,5,3.981
1778532216442,0.090,1.550,-0.383,-0.620,-0.129,0.140,98.015,-0.035,1.357,3.134,5,5,3.260
1778532216455,0.043,1.528,-0.400,-0.505,-0.110,0.113,100.716,3.498,1.629,2.598,5,5,3.270
1778532216468,0.038,1.518,-0.389,-0.393,-0.088,0.093,100.389,3.396,1.303,2.585,5,5,3.268
1778532216482,0.033,1.491,-0.392,-0.288,-0.082,0.080,101.900,3.525,1.002,2.454,5,5,3.256
1778532216495,0.024,1.462,-0.390,-0.202,-0.075,0.079,102.915,4.174,0.930,2.027,1,1,3.939
1778532216509,0.029,1.428,-0.398,-0.142,-0.068,0.075,105.583,3.049,0.898,1.435,1,1,3.261
1778532216523,0.027,1.398,-0.400,-0.106,-0.055,0.071,106.964,2.756,0.852,0.880,1,1,3.569
1778532216536,0.032,1.379,-0.391,-0.083,-0.049,0.065,106.458,1.753,0.990,0.530,1,1,3.259
1778532216549,0.035,1.359,-0.383,-0.064,-0.046,0.061,106.123,1.031,0.962,0.425,1,1,3.283
1778532216563,0.037,1.341,-0.376,-0.052,-0.044,0.059,105.816,0.436,0.971,0.271,1,1,3.887
1778532216577,0.042,1.325,-0.367,-0.043,-0.046,0.055,105.264,-0.445,1.011,0.207,1,1,3.277
1778532216590,0.043,1.310,-0.359,-0.036,-0.046,0.051,104.871,-0.648,1.005,0.151,1,1,3.289
1778532216604,0.045,1.295,-0.353,-0.033,-0.047,0.047,104.580,-1.092,0.993,0.113,1,1,3.258
1778532216617,0.045,1.283,-0.344,-0.029,-0.048,0.044,104.016,-1.255,1.033,0.100,1,1,3.274
1778532216630,0.044,1.272,-0.336,-0.024,-0.048,0.044,103.484,-1.236,1.047,0.112,1,1,3.885
1778532216644,0.047,1.262,-0.328,-0.019,-0.048,0.043,103.016,-1.677,1.048,0.132,1,1,3.281
1778532216658,0.049,1.251,-0.320,-0.013,-0.048,0.041,102.561,-2.019,1.036,0.144,1,1,3.258
1778532216671,0.051,1.242,-0.312,-0.006,-0.050,0.038,102.052,-2.380,1.047,0.197,1,1,3.274
1778532216685,0.053,1.232,-0.306,0.001,-0.052,0.035,101.901,-2.690,1.043,0.231,1,1,3.273
1778532216698,0.056,1.221,-0.302,0.008,-0.055,0.030,101.901,-3.068,1.002,0.246,1,1,3.887
1778532216712,0.057,1.211,-0.297,0.014,-0.058,0.025,101.807,-3.166,1.027,0.225,1,1,3.291
1778532216725,0.059,1.203,-0.292,0.019,-0.061,0.019,101.605,-3.461,1.043,0.266,1,1,3.264
1778532216739,0.062,1.196,-0.289,0.024,-0.064,0.011,101.654,-3.723,1.069,0.293,1,1,3.276
1778532216752,0.063,1.188,-0.286,0.030,-0.065,-0.000,101.738,-3.772,1.047,0.350,1,1,3.257
1778532216766,0.060,1.184,-0.282,0.037,-0.066,-0.012,101.556,-3.486,1.109,0.392,1,1,4.006
1778532216780,0.062,1.181,-0.278,0.046,-0.066,-0.023,101.397,-3.585,1.135,0.436,1,1,3.265
1778532216793,0.060,1.179,-0.273,0.057,-0.066,-0.032,101.093,-3.317,1.136,0.425,1,1,3.261
1778532216806,0.051,1.184,-0.269,0.070,-0.065,-0.032,100.832,-2.467,1.325,0.408,1,1,3.292
1778532216820,0.048,1.182,-0.267,0.084,-0.064,-0.031,100.837,-2.098,1.154,0.465,1,1,3.251
1778532216833,0.044,1.180,-0.265,0.100,-0.062,-0.027,100.795,-1.710,1.169,0.508,1,1,3.905
1778532216847,0.043,1.177,-0.263,0.116,-0.059,-0.024,100.914,-1.663,1.130,0.535,1,1,3.258
1778532216861,0.044,1.176,-0.263,0.132,-0.056,-0.023,101.051,-1.835,1.178,0.553,1,1,3.277
1778532216874,0.045,1.178,-0.262,0.149,-0.052,-0.022,101.065,-1.956,1.251,0.597,1,1,3.257
1778532216887,0.046,1.177,-0.262,0.167,-0.049,-0.022,101.238,-2.060,1.185,0.632,1,1,3.271
1778532216901,0.046,1.175,-0.263,0.186,-0.046,-0.023,101.494,-2.107,1.159,0.667,1,1,3.894
1778532216915,0.045,1.173,-0.263,0.205,-0.044,-0.023,101.707,-1.951,1.174,0.700,1,1,3.260
1778532216929,0.042,1.175,-0.264,0.225,-0.041,-0.023,101.813,-1.641,1.238,0.751,1,1,3.942
1778532216942,0.039,1.179,-0.265,0.247,-0.038,-0.021,101.865,-1.436,1.301,0.834,1,1,3.262
1778532216955,0.036,1.186,-0.264,0.273,-0.035,-0.018,101.780,-1.130,1.362,0.938,1,1,3.289
1778532216969,0.031,1.191,-0.264,0.302,-0.032,-0.012,101.707,-0.690,1.345,1.065,3,3,3.873
1778532216984,0.026,1.200,-0.263,0.336,-0.029,-0.004,101.568,-0.332,1.408,1.238,3,3,4.363
1778532216997,0.027,1.214,-0.260,0.376,-0.027,0.006,101.128,-0.513,1.528,1.436,3,3,3.270
1778532217011,0.031,1.234,-0.255,0.424,-0.026,0.016,100.512,-0.779,1.696,1.684,3,3,3.258
1778532217024,0.040,1.265,-0.245,0.482,-0.027,0.024,99.611,-1.402,1.946,2.018,3,3,3.287
1778532217038,0.058,1.307,-0.229,0.555,-0.034,0.029,98.392,-2.342,2.277,2.468,3,3,3.893
1778532217053,0.079,1.364,-0.207,0.628,-0.046,0.029,97.044,-3.212,2.688,2.530,3,3,4.506
1778532217066,0.088,1.431,-0.191,0.697,-0.061,0.019,96.060,-3.457,2.898,2.550,3,3,3.253
1778532217080,0.091,1.494,-0.195,0.764,-0.071,-0.008,96.012,-3.417,2.893,2.624,3,3,3.262
1778532217093,0.098,1.542,-0.213,0.828,-0.078,-0.045,96.686,-3.623,2.666,2.704,3,3,3.257
1778532217106,0.101,1.579,-0.217,0.890,-0.088,-0.080,96.744,-3.628,2.413,2.716,3,3,3.972
1778532217120,0.127,1.603,-0.223,0.950,-0.100,-0.122,97.003,-5.007,2.278,2.806,3,3,3.263
1778532217134,0.166,1.568,-0.204,1.008,-0.119,-0.141,95.002,-9.339,1.315,2.653,3,3,3.265
1778532217147,0.246,1.352,-0.065,1.038,-0.154,-0.116,81.341,-10.722,4.929,2.185,3,3,3.261
1778532217161,0.277,1.289,-0.042,1.006,-0.223,-0.083,72.505,-15.721,1.057,2.151,3,3,3.257
1778532217174,0.276,1.239,0.011,0.938,-0.289,-0.061,66.327,-15.466,1.193,2.227,4,4,3.897
1778532217188,0.252,1.209,0.051,0.851,-0.338,-0.068,62.983,-12.630,1.126,2.167,4,4,3.265
1778532217201,0.221,1.185,0.081,0.764,-0.367,-0.082,60.890,-9.088,1.086,1.913,4,4,3.264
1778532217215,0.192,1.150,0.106,0.673,-0.375,-0.087,58.048,-5.285,0.871,1.807,4,4,3.257
1778532217228,0.170,1.120,0.124,0.580,-0.365,-0.082,56.533,-2.454,0.765,1.838,4,4,3.258
1778532217241,0.152,1.085,0.136,0.483,-0.340,-0.072,54.664,0.012,0.564,2.069,4,4,3.916
1778532217255,0.143,1.051,0.145,0.378,-0.303,-0.062,53.520,0.806,0.470,2.443,4,4,3.266
1778532217269,0.142,1.025,0.153,0.271,-0.261,-0.053,53.782,-0.406,0.575,2.647,4,4,3.264
1778532217282,0.150,1.007,0.158,0.168,-0.218,-0.042,54.864,-2.797,0.743,2.668,4,4,3.254
1778532217295,0.165,0.997,0.162,0.069,-0.179,-0.026,56.520,-5.533,0.963,2.665,4,4,3.269
1778532217309,0.183,0.993,0.165,-0.026,-0.147,-0.003,58.442,-8.075,1.096,2.664,4,4,3.866
1778532217323,0.199,0.993,0.164,-0.118,-0.121,0.029,60.636,-9.981,1.141,2.696,4,4,3.269
1778532217337,0.208,0.997,0.161,-0.206,-0.098,0.065,62.931,-11.033,1.157,2.740,4,4,3.882
1778532217350,0.213,1.010,0.158,-0.291,-0.075,0.102,65.143,-11.289,1.331,2.769,4,4,3.254
1778532217363,0.214,1.033,0.153,-0.373,-0.051,0.141,67.317,-11.025,1.567,2.814,4,4,3.270
1778532217377,0.211,1.065,0.147,-0.452,-0.024,0.181,69.416,-10.464,1.765,2.866,4,4,3.871
1778532217391,0.210,1.103,0.140,-0.528,0.005,0.223,71.400,-9.966,1.939,2.930,4,4,3.268
1778532217404,0.211,1.144,0.129,-0.601,0.035,0.267,73.499,-9.624,2.062,2.975,4,4,3.259
1778532217417,0.211,1.185,0.107,-0.672,0.065,0.308,76.029,-9.271,2.134,2.984,4,4,3.266
1778532217431,0.217,1.235,0.072,-0.740,0.094,0.343,78.923,-9.164,2.444,2.916,4,4,3.259
1778532217444,0.235,1.293,0.022,-0.805,0.116,0.365,82.165,-9.480,2.845,2.753,5,5,3.896
1778532217458,0.266,1.355,-0.045,-0.868,0.125,0.372,85.647,-10.192,3.247,2.590,5,5,3.273
1778532217471,0.301,1.412,-0.127,-0.929,0.121,0.380,89.484,-10.956,3.450,2.573,5,5,3.257
1778532217485,0.334,1.455,-0.226,-0.987,0.099,0.407,93.829,-11.546,3.541,2.774,5,5,3.255
1778532217498,0.322,1.481,-0.333,-1.022,0.069,0.461,98.449,-10.544,3.368,2.783,5,5,3.255
1778532217511,0.262,1.490,-0.451,-1.039,0.050,0.510,103.441,-7.938,3.621,2.344,1,1,3.850
1778532217525,0.183,1.492,-0.578,-1.039,0.052,0.508,108.390,-5.020,4.000,1.131,1,1,3.251
1778532217539,0.124,1.509,-0.701,-1.014,0.066,0.464,112.443,-2.969,4.040,0.893,1,1,3.251
1778532217552,0.159,1.617,-0.752,-1.069,0.157,0.354,112.691,-3.801,4.509,4.332,1,1,3.270
1778532217565,0.196,1.525,-0.642,-0.940,0.189,0.248,100.468,-6.161,2.076,3.630,1,1,3.245
1778532217579,0.139,1.518,-0.523,-0.812,0.201,0.162,94.077,-3.337,2.732,3.283,5,5,4.146
1778532217593,0.103,1.503,-0.522,-0.690,0.216,0.123,95.975,-0.261,1.447,2.724,5,5,3.258
1778532217607,0.091,1.491,-0.512,-0.571,0.231,0.099,96.688,0.470,1.277,2.631,5,5,3.248
1778532217620,0.090,1.458,-0.513,-0.457,0.218,0.082,99.371,0.063,0.915,2.530,5,5,3.249
1778532217633,0.079,1.422,-0.525,-0.375,0.202,0.077,103.370,0.866,1.018,1.787,5,5,3.264
1778532217647,0.073,1.389,-0.525,-0.326,0.199,0.072,105.818,1.207,0.849,0.941,1,1,3.842
1778532217661,0.076,1.371,-0.508,-0.295,0.195,0.067,105.026,0.350,1.014,0.535,1,1,3.249
1778532217677,0.079,1.356,-0.490,-0.263,0.184,0.059,104.105,-0.498,1.041,0.593,1,1,6.065
1778532217691,0.079,1.338,-0.480,-0.237,0.175,0.053,104.286,-0.833,0.978,0.440,1,1,3.747
1778532217704,0.082,1.320,-0.468,-0.221,0.162,0.045,104.041,-1.596,0.957,0.326,1,1,3.283
1778532217717,0.085,1.307,-0.452,-0.203,0.147,0.034,103.284,-2.228,1.050,0.422,1,1,3.819
1778532217731,0.084,1.297,-0.437,-0.185,0.131,0.024,102.577,-2.415,1.070,0.472,1,1,3.260
1778532217745,0.080,1.284,-0.426,-0.168,0.117,0.016,102.352,-2.160,1.026,0.414,1,1,3.276
1778532217759,0.073,1.272,-0.416,-0.154,0.107,0.013,102.284,-1.477,1.030,0.276,1,1,4.393
1778532217773,0.067,1.261,-0.406,-0.142,0.100,0.015,102.076,-1.060,1.042,0.198,1,1,3.247
1778532217791,0.067,1.250,-0.397,-0.131,0.095,0.018,101.977,-1.315,1.034,0.174,1,1,3.862
1778532217805,0.069,1.239,-0.390,-0.120,0.090,0.018,102.047,-1.731,1.032,0.167,1,1,3.248
1778532217818,0.073,1.231,-0.383,-0.110,0.085,0.015,102.118,-2.323,1.091,0.171,1,1,3.257
1778532217831,0.073,1.225,-0.374,-0.099,0.080,0.007,101.901,-2.551,1.107,0.281,1,1,3.253
1778532217845,0.074,1.220,-0.366,-0.086,0.076,-0.003,101.694,-2.726,1.135,0.358,1,1,3.295
1778532217858,0.069,1.218,-0.359,-0.071,0.072,-0.013,101.468,-2.276,1.193,0.422,1,1,3.955
1778532217872,0.064,1.224,-0.348,-0.052,0.067,-0.013,100.858,-1.858,1.366,0.443,1,1,3.249
1778532217886,0.059,1.220,-0.342,-0.032,0.065,-0.012,100.751,-1.510,1.140,0.492,1,1,3.269
1778532217899,0.056,1.215,-0.336,-0.012,0.063,-0.009,100.755,-1.270,1.116,0.528,1,1,3.248
1778532217912,0.054,1.208,-0.332,0.009,0.062,-0.007,100.941,-1.167,1.097,0.535,1,1,3.313
1778532217926,0.052,1.203,-0.328,0.028,0.061,-0.005,101.159,-1.113,1.112,0.538,1,1,3.916
1778532217940,0.051,1.197,-0.326,0.048,0.061,-0.004,101.429,-1.171,1.114,0.558,1,1,3.260
1778532217954,0.052,1.193,-0.323,0.067,0.060,-0.003,101.681,-1.382,1.133,0.573,1,1,3.619
1778532217967,0.052,1.188,-0.322,0.087,0.059,-0.002,101.956,-1.591,1.117,0.595,1,1,3.272
1778532217980,0.051,1.183,-0.321,0.106,0.058,-0.001,102.338,-1.501,1.107,0.609,1,1,3.302
1778532217994,0.049,1.181,-0.320,0.125,0.056,0.001,102.535,-1.424,1.187,0.625,1,1,3.885
1778532218008,0.051,1.175,-0.319,0.146,0.055,0.001,102.904,-1.719,1.082,0.679,1,1,3.282
1778532218021,0.046,1.168,-0.319,0.165,0.053,0.003,103.356,-1.275,1.082,0.679,1,1,3.258
1778532218035,0.046,1.172,-0.319,0.186,0.051,0.004,103.414,-1.330,1.284,0.736,1,1,3.313
1778532218048,0.054,1.177,-0.318,0.210,0.049,0.003,103.372,-2.152,1.345,0.823,1,1,3.285
1778532218061,0.054,1.184,-0.317,0.237,0.045,0.001,103.311,-2.170,1.381,0.940,3,3,3.920
1778532218075,0.048,1.195,-0.315,0.269,0.042,0.002,103.031,-1.615,1.446,1.090,3,3,3.264
1778532218089,0.039,1.205,-0.310,0.306,0.039,0.006,102.566,-0.930,1.448,1.284,3,3,3.256
1778532218102,0.036,1.220,-0.306,0.350,0.037,0.013,102.090,-0.721,1.566,1.510,3,3,3.309
1778532218116,0.041,1.238,-0.298,0.402,0.033,0.021,101.408,-1.168,1.645,1.766,3,3,3.259
1778532218129,0.044,1.265,-0.287,0.464,0.025,0.030,100.430,-1.334,1.857,2.094,3,3,3.905
1778532218143,0.062,1.300,-0.271,0.540,0.017,0.035,99.236,-2.402,2.130,2.514,3,3,3.273
1778532218156,0.084,1.343,-0.254,0.612,0.003,0.034,98.063,-3.498,2.340,2.526,3,3,3.258
1778532218170,0.091,1.404,-0.236,0.682,-0.011,0.020,97.013,-3.661,2.765,2.551,3,3,3.287
1778532218183,0.089,1.481,-0.239,0.750,-0.021,-0.011,96.857,-3.396,3.184,2.647,3,3,3.284
1778532218198,0.104,1.551,-0.262,0.815,-0.028,-0.053,97.520,-3.808,3.196,2.760,4,4,5.197
1778532218212,0.132,1.595,-0.268,0.877,-0.044,-0.088,97.644,-4.969,2.676,2.732,4,4,3.250
1778532218225,0.150,1.642,-0.259,0.938,-0.063,-0.125,97.069,-5.591,2.740,2.783,4,4,3.289
1778532218239,0.189,1.627,-0.242,0.996,-0.086,-0.142,95.870,-8.725,1.650,2.656,4,4,3.249
1778532218252,0.231,1.527,-0.177,1.051,-0.122,-0.124,84.166,-11.639,1.831,2.731,4,4,3.369
1778532218266,0.306,1.439,-0.131,1.066,-0.197,-0.091,73.323,-16.504,2.191,2.695,4,4,3.876
1778532218280,0.276,1.350,-0.104,1.003,-0.269,-0.054,61.649,-12.401,0.852,2.427,4,4,3.304
1778532218293,0.240,1.278,-0.064,0.895,-0.314,-0.060,53.772,-8.168,1.024,2.418,4,4,3.279
1778532218306,0.193,1.246,-0.032,0.776,-0.331,-0.085,52.500,-3.184,1.211,2.535,4,4,3.257
1778532218320,0.156,1.215,-0.001,0.658,-0.326,-0.106,51.060,0.642,1.080,2.507,4,4,3.283
1778532218333,0.131,1.190,0.027,0.545,-0.304,-0.114,50.656,2.951,0.999,2.436,4,4,3.855
1778532218347,0.123,1.163,0.048,0.438,-0.272,-0.114,50.337,2.937,0.777,2.400,4,4,3.320
1778532218361,0.128,1.126,0.065,0.331,-0.238,-0.112,48.974,0.456,0.581,2.527,4,4,3.402
1778532218374,0.141,1.082,0.080,0.226,-0.207,-0.108,45.746,-3.823,0.595,2.568,4,4,3.268
1778532218388,0.154,1.047,0.096,0.125,-0.182,-0.103,44.601,-7.378,0.688,2.546,4,4,3.265
1778532218401,0.169,1.032,0.109,0.028,-0.161,-0.093,46.058,-9.599,0.950,2.534,4,4,3.856
1778532218415,0.182,1.024,0.120,-0.066,-0.144,-0.078,48.035,-11.323,1.032,2.538,4,4,3.264
1778532218428,0.194,1.022,0.128,-0.156,-0.129,-0.057,50.428,-12.432,1.122,2.562,4,4,3.258
1778532218442,0.202,1.032,0.132,-0.243,-0.114,-0.032,53.229,-12.902,1.316,2.593,4,4,3.262
1778532218455,0.207,1.050,0.132,-0.327,-0.096,-0.002,56.236,-12.829,1.490,2.643,4,4,3.259
1778532218468,0.213,1.073,0.130,-0.408,-0.076,0.033,59.187,-12.774,1.609,2.716,4,4,3.918
1778532218482,0.221,1.101,0.124,-0.485,-0.055,0.075,62.092,-12.779,1.775,2.804,4,4,3.259
1778532218496,0.229,1.136,0.117,-0.560,-0.035,0.123,64.890,-12.742,1.939,2.882,4,4,3.255
1778532218509,0.237,1.177,0.104,-0.632,-0.017,0.172,67.751,-12.586,2.108,2.929,4,4,3.257
1778532218522,0.230,1.216,0.082,-0.702,0.003,0.224,70.868,-11.581,2.118,3.004,4,4,3.252
1778532218536,0.226,1.269,0.046,-0.768,0.023,0.285,74.332,-10.756,2.550,3.160,5,5,3.998
1778532218550,0.230,1.347,-0.013,-0.833,0.041,0.331,78.009,-10.252,3.314,2.983,5,5,3.268
1778532218564,0.255,1.431,-0.091,-0.894,0.050,0.352,81.878,-10.427,3.834,2.671,5,5,4.180
1778532218579,0.295,1.500,-0.188,-0.954,0.039,0.366,86.226,-11.094,3.955,2.617,5,5,3.265
1778532218592,0.334,1.544,-0.299,-1.002,0.004,0.402,91.108,-11.706,3.906,2.763,5,5,3.247
1778532218606,0.322,1.565,-0.416,-1.021,-0.045,0.469,96.280,-10.679,3.586,2.980,5,5,4.524
1778532218620,0.245,1.566,-0.543,-1.022,-0.083,0.527,101.815,-7.652,3.959,2.527,5,5,3.263
1778532218633,0.144,1.567,-0.671,-1.007,-0.096,0.529,106.932,-4.205,4.330,0.940,5,5,3.256
1778532218647,0.065,1.577,-0.789,-0.968,-0.086,0.484,111.203,-1.569,4.170,0.714,5,5,3.268
1778532218660,0.041,1.683,-0.849,-1.025,0.006,0.373,111.886,-0.854,4.571,4.280,5,5,3.280
1778532218674,0.035,1.606,-0.708,-0.916,0.068,0.266,101.046,-0.554,2.369,3.570,5,5,3.881
1778532218688,-0.039,1.606,-0.606,-0.789,0.108,0.196,95.682,2.899,2.833,3.196,5,5,3.275
1778532218701,-0.072,1.582,-0.631,-0.667,0.149,0.182,99.723,5.192,1.793,2.782,5,5,3.304
1778532218714,-0.062,1.568,-0.617,-0.549,0.159,0.167,100.098,3.992,1.305,2.543,5,5,3.263
1778532218728,-0.064,1.527,-0.618,-0.440,0.132,0.158,103.463,4.319,0.898,2.467,5,5,3.256
1778532218741,-0.069,1.484,-0.627,-0.365,0.125,0.156,107.589,4.844,0.994,1.589,1,1,3.893
1778532218755,-0.070,1.451,-0.619,-0.322,0.131,0.151,108.924,4.950,0.859,0.828,1,1,3.253
1778532218769,-0.056,1.434,-0.593,-0.284,0.125,0.143,107.234,3.248,1.108,0.720,1,1,3.460
1778532218782,-0.048,1.412,-0.576,-0.252,0.115,0.133,106.801,2.162,0.958,0.620,1,1,3.271
1778532218795,-0.041,1.382,-0.565,-0.231,0.104,0.122,107.546,1.247,0.796,0.409,1,1,3.263
1778532218809,-0.038,1.364,-0.550,-0.212,0.090,0.109,107.032,0.969,0.994,0.438,1,1,3.863
1778532218823,-0.033,1.349,-0.533,-0.193,0.077,0.096,106.259,0.531,1.034,0.455,1,1,3.294
1778532218836,-0.034,1.334,-0.518,-0.175,0.066,0.088,105.727,0.711,1.024,0.390,1,1,3.296
1778532218850,-0.036,1.316,-0.507,-0.159,0.059,0.086,105.761,1.175,0.977,0.281,1,1,3.440
1778532218863,-0.036,1.304,-0.494,-0.146,0.055,0.087,105.355,1.201,1.049,0.233,1,1,3.271
1778532218877,-0.033,1.290,-0.482,-0.135,0.051,0.090,105.091,0.900,1.012,0.241,1,1,3.968
1778532218891,-0.027,1.278,-0.470,-0.124,0.047,0.092,104.800,0.295,1.040,0.203,1,1,3.259
1778532218904,-0.018,1.267,-0.458,-0.114,0.044,0.089,104.386,-0.623,1.062,0.162,1,1,3.276
1778532218917,-0.007,1.258,-0.448,-0.104,0.040,0.082,104.205,-1.746,1.113,0.185,1,1,3.280
1778532218931,-0.001,1.249,-0.437,-0.094,0.036,0.072,103.805,-2.289,1.092,0.272,1,1,3.252
1778532218944,0.005,1.242,-0.427,-0.083,0.033,0.059,103.515,-2.683,1.103,0.351,1,1,3.997
1778532218958,0.008,1.236,-0.417,-0.070,0.030,0.045,103.260,-2.846,1.122,0.413,1,1,3.273
1778532218972,0.005,1.231,-0.408,-0.055,0.028,0.033,103.013,-2.286,1.146,0.433,1,1,3.389
1778532218985,0.004,1.225,-0.400,-0.037,0.026,0.029,102.842,-1.973,1.118,0.427,1,1,3.267
1778532218999,0.002,1.219,-0.392,-0.019,0.025,0.029,102.761,-1.566,1.106,0.457,1,1,3.272
1778532219012,0.002,1.213,-0.385,-0.001,0.024,0.029,102.674,-1.372,1.107,0.479,1,1,3.909
1778532219026,0.005,1.209,-0.379,0.018,0.024,0.027,102.647,-1.662,1.148,0.499,1,1,3.283
1778532219039,0.010,1.206,-0.373,0.037,0.025,0.024,102.615,-1.968,1.172,0.538,1,1,3.268
1778532219053,0.013,1.204,-0.368,0.057,0.025,0.020,102.557,-2.139,1.201,0.586,1,1,3.260
1778532219066,0.015,1.202,-0.363,0.078,0.024,0.016,102.593,-2.246,1.195,0.622,1,1,3.288
1778532219080,0.015,1.199,-0.360,0.100,0.024,0.012,102.738,-2.151,1.169,0.677,1,1,3.840
1778532219094,0.013,1.193,-0.358,0.122,0.023,0.010,103.045,-1.690,1.100,0.696,1,1,3.265
1778532219107,0.010,1.190,-0.355,0.144,0.024,0.009,103.249,-1.315,1.166,0.710,1,1,3.300
1778532219120,0.014,1.193,-0.353,0.167,0.024,0.007,103.235,-1.639,1.303,0.774,1,1,3.268
1778532219134,0.019,1.201,-0.349,0.193,0.023,0.004,103.076,-1.988,1.396,0.868,1,1,3.309
1778532219147,0.020,1.208,-0.346,0.222,0.022,0.000,102.898,-1.967,1.391,0.986,5,5,3.865
1778532219161,0.016,1.215,-0.342,0.256,0.021,0.000,102.667,-1.482,1.398,1.130,5,5,3.285
1778532219175,0.010,1.224,-0.337,0.293,0.020,0.003,102.382,-0.891,1.436,1.274,5,5,3.775
1778532219188,0.016,1.238,-0.330,0.338,0.017,0.006,101.767,-1.284,1.571,1.501,5,5,3.293
1778532219202,0.027,1.255,-0.323,0.390,0.012,0.007,101.226,-2.092,1.649,1.744,5,5,3.259
1778532219215,0.034,1.276,-0.313,0.450,0.004,0.008,100.492,-2.439,1.748,2.022,3,3,3.872
1778532219229,0.048,1.311,-0.298,0.524,-0.005,0.005,99.385,-3.115,2.119,2.456,3,3,3.286
1778532219243,0.078,1.347,-0.280,0.597,-0.022,-0.003,98.198,-4.645,2.257,2.549,3,3,3.275
1778532219256,0.085,1.404,-0.260,0.668,-0.041,-0.017,97.082,-4.704,2.677,2.590,3,3,3.266
1778532219269,0.089,1.473,-0.259,0.736,-0.059,-0.042,96.820,-4.553,2.985,2.646,3,3,3.278
1778532219283,0.097,1.543,-0.270,0.801,-0.075,-0.073,97.084,-4.624,3.129,2.696,3,3,3.953
1778532219297,0.114,1.582,-0.276,0.865,-0.092,-0.105,97.301,-5.243,2.517,2.723,3,3,3.259
1778532219310,0.128,1.624,-0.252,0.925,-0.112,-0.127,96.011,-5.621,2.578,2.673,3,3,3.282
1778532219324,0.150,1.646,-0.226,0.984,-0.137,-0.134,94.583,-6.658,2.264,2.642,3,3,3.260
1778532219337,0.188,1.603,-0.188,1.040,-0.174,-0.116,89.880,-10.591,1.380,2.762,3,3,3.259
1778532219350,0.234,1.475,-0.119,1.094,-0.223,-0.069,77.178,-12.699,2.266,3.132,4,4,3.867
1778532219364,0.241,1.329,-0.125,1.078,-0.289,-0.033,60.547,-12.642,1.924,2.307,4,4,3.258
1778532219378,0.202,1.232,-0.088,0.986,-0.332,-0.017,49.926,-8.655,1.321,2.055,4,4,3.465
1778532219391,0.159,1.190,-0.057,0.862,-0.343,-0.026,47.495,-3.168,1.034,2.440,4,4,3.269
1778532219405,0.129,1.162,-0.027,0.738,-0.333,-0.036,46.922,0.296,0.994,2.520,4,4,3.274
1778532219418,0.110,1.139,0.002,0.617,-0.308,-0.037,46.712,2.027,0.939,2.525,4,4,3.848
1778532219432,0.106,1.119,0.026,0.502,-0.274,-0.027,47.181,1.775,0.887,2.582,4,4,3.283
1778532219446,0.111,1.097,0.043,0.390,-0.238,-0.016,47.894,0.017,0.779,2.616,4,4,3.287
1778532219459,0.120,1.067,0.058,0.283,-0.203,-0.005,47.804,-2.945,0.642,2.614,4,4,3.271
1778532219472,0.132,1.033,0.071,0.180,-0.171,0.006,47.028,-6.475,0.617,2.601,4,4,3.264
1778532219486,0.143,1.009,0.086,0.080,-0.143,0.022,47.307,-8.790,0.738,2.605,4,4,3.848
1778532219500,0.153,1.000,0.099,-0.015,-0.118,0.041,48.862,-10.111,0.960,2.616,4,4,3.263
1778532219513,0.163,1.002,0.110,-0.108,-0.095,0.065,51.015,-10.954,1.170,2.639,4,4,3.256
1778532219527,0.171,1.010,0.118,-0.196,-0.073,0.094,53.422,-11.391,1.263,2.690,4,4,3.287
1778532219540,0.176,1.023,0.123,-0.282,-0.051,0.129,55.979,-11.457,1.367,2.752,4,4,3.261
1778532219553,0.177,1.042,0.124,-0.364,-0.028,0.166,58.656,-11.093,1.470,2.803,4,4,3.957
1778532219567,0.175,1.067,0.123,-0.443,-0.001,0.203,61.292,-10.503,1.617,2.850,4,4,3.299
1778532219581,0.173,1.101,0.120,-0.520,0.028,0.243,63.848,-9.876,1.848,2.912,4,4,3.659
1778532219595,0.173,1.143,0.115,-0.593,0.057,0.285,66.345,-9.413,2.072,2.979,4,4,3.262
1778532219608,0.176,1.191,0.103,-0.664,0.085,0.327,69.003,-9.070,2.254,2.980,4,4,3.259
1778532219621,0.174,1.240,0.074,-0.732,0.111,0.365,72.288,-8.541,2.399,2.948,5,5,4.001
1778532219636,0.176,1.311,0.026,-0.798,0.134,0.398,75.856,-8.096,3.033,2.896,5,5,3.267
1778532219649,0.191,1.386,-0.045,-0.861,0.149,0.417,79.810,-8.152,3.464,2.716,5,5,3.312
1778532219662,0.228,1.449,-0.138,-0.922,0.150,0.417,84.362,-8.930,3.707,2.541,5,5,3.252
1778532219676,0.279,1.501,-0.252,-0.980,0.126,0.427,89.283,-9.974,4.071,2.644,5,5,3.274
1778532219689,0.287,1.538,-0.371,-1.018,0.080,0.483,94.280,-9.691,3.806,2.992,5,5,3.899
1778532219703,0.239,1.551,-0.499,-1.026,0.033,0.544,99.669,-7.612,3.848,2.727,5,5,3.258
1778532219716,0.145,1.539,-0.641,-1.022,0.005,0.545,105.526,-4.452,4.410,1.307,5,5,3.272
1778532219730,0.061,1.548,-0.779,-0.999,-0.001,0.489,110.236,-1.841,4.539,1.063,5,5,3.258
1778532219743,0.029,1.571,-0.896,-0.947,0.008,0.414,113.943,-0.767,4.062,1.600,5,5,3.263
1778532219757,0.104,1.541,-0.754,-0.819,0.021,0.306,105.102,-4.003,3.045,3.556,5,5,3.878
1778532219771,0.032,1.541,-0.631,-0.696,0.043,0.212,98.582,-0.686,3.009,3.403,5,5,3.265
1778532219784,-0.030,1.519,-0.648,-0.578,0.098,0.183,102.014,3.533,2.019,2.987,5,5,3.393
1778532219798,-0.019,1.506,-0.633,-0.463,0.139,0.169,102.172,2.203,1.288,2.781,5,5,3.257
1778532219811,-0.008,1.475,-0.626,-0.354,0.123,0.153,104.004,0.690,0.956,2.531,5,5,3.262
1778532219824,-0.016,1.441,-0.620,-0.267,0.106,0.149,106.056,1.873,0.865,2.020,1,1,3.854
1778532219838,-0.016,1.406,-0.619,-0.217,0.108,0.143,108.620,1.769,0.882,1.083,1,1,3.271
1778532219852,-0.010,1.391,-0.596,-0.183,0.107,0.134,107.268,0.940,1.075,0.707,1,1,3.347
1778532219865,0.002,1.374,-0.576,-0.150,0.097,0.122,106.424,-0.529,1.053,0.756,1,1,3.276
1778532219878,0.007,1.353,-0.567,-0.122,0.081,0.109,106.935,-1.104,0.955,0.730,1,1,3.251
1778532219892,0.008,1.332,-0.555,-0.105,0.064,0.093,107.116,-1.206,0.936,0.585,1,1,3.872
1778532219906,0.011,1.313,-0.543,-0.090,0.050,0.079,107.095,-1.499,0.945,0.535,1,1,3.250
1778532219919,0.010,1.302,-0.525,-0.076,0.039,0.069,106.224,-1.325,1.058,0.418,1,1,3.262
1778532219933,0.007,1.284,-0.516,-0.066,0.032,0.063,106.499,-0.799,0.949,0.266,1,1,3.272
1778532219946,0.005,1.271,-0.503,-0.058,0.028,0.060,106.125,-0.558,1.023,0.170,1,1,3.246
1778532219959,0.001,1.258,-0.493,-0.052,0.026,0.061,106.029,-0.041,1.004,0.129,1,1,3.845
1778532219973,0.004,1.248,-0.480,-0.047,0.025,0.063,105.592,-0.366,1.057,0.136,1,1,3.267
1778532219987,0.013,1.241,-0.468,-0.042,0.025,0.059,105.154,-1.397,1.122,0.094,1,1,3.513
1778532220000,0.015,1.231,-0.458,-0.037,0.023,0.052,104.911,-1.603,1.045,0.165,1,1,3.250
1778532220014,0.017,1.223,-0.447,-0.031,0.022,0.045,104.579,-1.772,1.064,0.187,1,1,3.279
1778532220027,0.021,1.217,-0.436,-0.025,0.021,0.036,104.208,-2.096,1.104,0.245,1,1,3.893
1778532220041,0.023,1.212,-0.426,-0.017,0.020,0.025,103.793,-2.174,1.128,0.315,1,1,3.261
1778532220055,0.022,1.207,-0.416,-0.009,0.019,0.015,103.536,-1.958,1.113,0.331,1,1,3.266
1778532220068,0.018,1.201,-0.408,0.000,0.019,0.005,103.399,-1.456,1.113,0.343,1,1,3.246
1778532220081,0.010,1.200,-0.401,0.011,0.020,-0.003,103.193,-0.542,1.192,0.370,1,1,3.274
1778532220095,0.006,1.195,-0.394,0.024,0.021,-0.004,103.217,-0.161,1.127,0.354,1,1,3.883
1778532220109,0.006,1.190,-0.388,0.038,0.022,-0.005,103.174,-0.103,1.116,0.394,1,1,3.309
1778532220122,0.004,1.184,-0.382,0.051,0.023,-0.005,103.164,0.075,1.085,0.408,1,1,3.261
1778532220135,0.003,1.180,-0.376,0.065,0.024,-0.005,103.161,0.194,1.104,0.422,1,1,3.271
1778532220149,0.002,1.175,-0.371,0.079,0.025,-0.004,103.223,0.190,1.108,0.445,1,1,3.268
1778532220162,0.003,1.172,-0.367,0.094,0.026,-0.002,103.271,0.128,1.134,0.481,1,1,3.917
1778532220176,0.003,1.169,-0.363,0.109,0.027,-0.001,103.348,0.017,1.152,0.523,1,1,3.277
1778532220190,0.004,1.169,-0.359,0.126,0.028,-0.001,103.359,-0.083,1.189,0.569,1,1,3.274
1778532220203,0.007,1.165,-0.357,0.144,0.028,-0.001,103.564,-0.403,1.132,0.597,1,1,3.278
1778532220216,0.007,1.162,-0.355,0.162,0.028,-0.002,103.783,-0.409,1.139,0.625,1,1,3.316
1778532220230,0.008,1.164,-0.353,0.180,0.028,-0.003,103.871,-0.516,1.231,0.671,1,1,3.953
1778532220244,0.012,1.168,-0.351,0.202,0.027,-0.005,103.830,-0.833,1.309,0.756,1,1,3.296
1778532220257,0.013,1.175,-0.347,0.226,0.027,-0.008,103.643,-0.952,1.352,0.860,1,1,3.264
1778532220271,0.011,1.182,-0.344,0.254,0.026,-0.010,103.436,-0.697,1.357,0.979,1,1,3.283
1778532220284,0.006,1.190,-0.340,0.285,0.025,-0.008,103.182,-0.243,1.393,1.097,1,1,3.277
1778532220298,0.007,1.200,-0.336,0.322,0.023,-0.007,102.838,-0.322,1.453,1.288,3,3,4.042
1778532220312,0.013,1.215,-0.331,0.366,0.020,-0.006,102.377,-0.814,1.564,1.496,3,3,3.266
1778532220326,0.020,1.235,-0.321,0.418,0.012,-0.006,101.576,-1.267,1.683,1.784,3,3,4.155
1778532220339,0.032,1.267,-0.310,0.481,0.003,-0.007,100.620,-1.983,1.983,2.135,3,3,3.270
1778532220353,0.047,1.310,-0.293,0.556,-0.011,-0.012,99.463,-2.657,2.273,2.532,3,3,3.752
1778532220367,0.062,1.368,-0.275,0.628,-0.029,-0.022,98.285,-3.202,2.674,2.569,3,3,3.936
1778532220381,0.078,1.436,-0.270,0.698,-0.052,-0.039,97.787,-3.713,2.963,2.623,3,3,3.262
1778532220394,0.082,1.498,-0.280,0.765,-0.072,-0.060,98.018,-3.654,2.893,2.641,3,3,3.283
1778532220407,0.097,1.530,-0.285,0.829,-0.093,-0.084,98.184,-4.352,2.327,2.676,3,3,3.262
1778532220421,0.107,1.557,-0.276,0.891,-0.114,-0.100,97.602,-4.749,2.167,2.643,3,3,3.287
1778532220434,0.127,1.573,-0.258,0.951,-0.140,-0.105,96.483,-5.817,1.995,2.643,4,4,3.916
1778532220451,0.155,1.513,-0.230,1.008,-0.178,-0.087,90.117,-11.094,0.889,2.776,4,4,3.275
1778532220464,0.208,1.394,-0.140,1.058,-0.228,-0.039,78.374,-13.054,2.583,3.064,4,4,3.263
1778532220477,0.224,1.296,-0.134,1.049,-0.303,-0.000,62.348,-15.097,1.040,2.584,4,4,3.260
1778532220494,0.190,1.208,-0.095,0.961,-0.357,0.015,52.291,-10.981,1.172,2.247,4,4,6.820
1778532220508,0.142,1.172,-0.065,0.852,-0.381,0.015,50.506,-4.982,1.161,2.203,4,4,3.935
1778532220526,0.107,1.142,-0.038,0.742,-0.373,0.026,49.632,-0.550,0.984,2.144,4,4,7.128
1778532220539,0.087,1.118,-0.015,0.639,-0.347,0.044,49.721,1.875,0.843,2.146,4,4,3.267
1778532220553,0.081,1.092,0.002,0.541,-0.311,0.062,50.215,2.024,0.644,2.154,4,4,4.468
1778532220567,0.082,1.057,0.014,0.442,-0.272,0.077,49.639,0.693,0.400,2.289,4,4,3.252
1778532220582,0.086,1.017,0.025,0.334,-0.235,0.090,47.877,-2.270,0.349,2.613,4,4,5.694
1778532220596,0.095,0.985,0.034,0.229,-0.202,0.106,47.982,-5.740,0.484,2.637,4,4,3.263
1778532220609,0.106,0.963,0.043,0.128,-0.175,0.128,49.440,-8.220,0.630,2.648,4,4,3.293
1778532220623,0.112,0.953,0.050,0.030,-0.151,0.152,51.907,-9.256,0.804,2.663,4,4,3.264
1778532220637,0.113,0.954,0.054,-0.063,-0.128,0.178,54.797,-9.052,0.993,2.682,4,4,4.025
1778532220650,0.107,0.966,0.053,-0.154,-0.101,0.205,57.976,-8.060,1.238,2.727,4,4,3.954
1778532220664,0.097,0.988,0.046,-0.241,-0.069,0.235,61.392,-6.870,1.459,2.809,4,4,3.270
1778532220678,0.093,1.008,0.036,-0.325,-0.035,0.269,64.798,-6.272,1.476,2.879,4,4,3.316
1778532220693,0.095,1.026,0.028,-0.406,-0.005,0.305,67.781,-6.164,1.434,2.894,4,4,3.259
1778532220706,0.098,1.047,0.020,-0.483,0.019,0.339,70.406,-6.194,1.519,2.857,4,4,3.296
1778532220719,0.101,1.069,0.012,-0.558,0.035,0.366,72.922,-6.180,1.556,2.764,5,5,3.928
1778532220734,0.106,1.101,0.000,-0.630,0.044,0.386,75.275,-6.223,1.830,2.669,5,5,3.342
1778532220747,0.110,1.145,-0.017,-0.700,0.045,0.400,77.690,-6.145,2.168,2.615,5,5,3.256
1778532220760,0.113,1.195,-0.041,-0.766,0.043,0.413,80.204,-5.948,2.358,2.613,5,5,3.287
1778532220774,0.118,1.251,-0.071,-0.831,0.039,0.426,82.692,-5.851,2.581,2.617,5,5,3.290
1778532220787,0.125,1.308,-0.109,-0.893,0.036,0.440,85.314,-5.880,2.735,2.626,5,5,3.896
1778532220804,0.130,1.355,-0.157,-0.952,0.036,0.461,88.288,-5.778,2.679,2.696,5,5,5.965
1778532220817,0.124,1.385,-0.219,-1.006,0.042,0.491,92.035,-5.235,2.587,2.718,5,5,3.264
1778532220831,0.098,1.409,-0.290,-1.043,0.058,0.530,95.999,-3.767,2.722,2.569,5,5,3.289
1778532220844,0.059,1.421,-0.370,-1.063,0.088,0.559,100.330,-1.881,2.817,2.226,5,5,3.262
1778532220857,0.021,1.428,-0.458,-1.065,0.128,0.564,104.712,-0.203,2.971,1.765,5,5,3.976
1778532220871,-0.004,1.428,-0.552,-1.045,0.170,0.551,109.138,0.828,3.012,1.376,5,5,3.258
1778532220885,-0.020,1.425,-0.638,-1.010,0.204,0.530,113.215,1.459,2.892,1.095,5,5,3.931
1778532220899,0.025,1.537,-0.461,-0.880,0.182,0.483,107.144,0.285,5.365,2.638,5,5,3.265
1778532220913,0.046,1.468,-0.433,-0.784,0.227,0.418,95.206,-6.475,0.537,2.552,5,5,3.664
1778532220926,0.023,1.458,-0.342,-0.662,0.251,0.358,89.650,-4.590,2.127,2.902,5,5,3.896
1778532220940,0.000,1.448,-0.356,-0.545,0.260,0.337,92.398,-2.332,1.503,2.558,5,5,3.265
1778532220953,-0.004,1.435,-0.342,-0.432,0.260,0.321,92.323,-1.647,1.157,2.518,5,5,3.280
1778532220967,-0.003,1.410,-0.357,-0.323,0.255,0.313,95.697,-1.618,1.093,2.507,5,5,3.265
1778532220980,0.001,1.381,-0.357,-0.240,0.246,0.307,97.684,-1.997,0.818,1.914,5,5,3.294
1778532220994,0.006,1.346,-0.368,-0.181,0.242,0.295,101.364,-2.609,0.867,1.372,1,1,3.935
1778532221008,0.009,1.325,-0.365,-0.146,0.236,0.279,102.039,-2.739,0.915,0.782,1,1,3.660
1778532221021,0.014,1.313,-0.353,-0.114,0.224,0.265,101.371,-3.195,1.055,0.707,1,1,3.287
1778532221035,0.019,1.297,-0.346,-0.085,0.214,0.252,101.370,-3.551,0.981,0.674,1,1,3.276
1778532221048,0.032,1.276,-0.346,-0.070,0.199,0.236,102.406,-5.065,0.941,0.410,1,1,3.286
1778532221062,0.038,1.264,-0.338,-0.058,0.186,0.220,102.120,-5.541,1.019,0.361,1,1,3.929
1778532221076,0.040,1.251,-0.331,-0.048,0.172,0.204,101.999,-5.395,0.998,0.351,1,1,3.272
1778532221089,0.042,1.240,-0.324,-0.040,0.157,0.189,101.789,-5.337,1.010,0.343,1,1,3.267
1778532221104,0.046,1.229,-0.318,-0.032,0.141,0.174,101.666,-5.577,1.017,0.413,1,1,4.245
1778532221117,0.046,1.217,-0.314,-0.022,0.126,0.159,101.846,-5.257,0.993,0.412,1,1,3.273
1778532221130,0.044,1.207,-0.311,-0.015,0.114,0.146,102.057,-4.770,0.999,0.319,1,1,3.928
1778532221145,0.042,1.199,-0.306,-0.008,0.105,0.137,101.901,-4.382,1.042,0.233,1,1,3.281
1778532221158,0.042,1.190,-0.302,-0.003,0.097,0.128,101.928,-4.204,1.024,0.209,1,1,3.249
1778532221172,0.045,1.183,-0.298,0.003,0.090,0.117,101.884,-4.386,1.059,0.238,1,1,4.263
1778532221186,0.046,1.177,-0.293,0.008,0.085,0.106,101.761,-4.300,1.070,0.238,1,1,3.258
1778532221199,0.046,1.171,-0.290,0.013,0.080,0.095,101.727,-4.099,1.053,0.230,1,1,3.999
1778532221213,0.048,1.166,-0.286,0.018,0.076,0.084,101.657,-4.185,1.085,0.283,1,1,3.329
1778532221228,0.048,1.162,-0.282,0.025,0.072,0.072,101.509,-4.037,1.084,0.301,1,1,3.301
1778532221242,0.049,1.159,-0.278,0.032,0.069,0.059,101.425,-3.924,1.112,0.350,1,1,3.260
1778532221255,0.044,1.156,-0.275,0.040,0.067,0.047,101.380,-3.235,1.111,0.367,1,1,3.748
1778532221269,0.038,1.153,-0.273,0.050,0.066,0.039,101.371,-2.516,1.130,0.350,1,1,3.895
1778532221283,0.033,1.149,-0.271,0.061,0.064,0.037,101.428,-1.843,1.087,0.341,1,1,3.257
1778532221296,0.028,1.145,-0.269,0.072,0.063,0.035,101.471,-1.260,1.080,0.362,1,1,3.277
1778532221310,0.026,1.140,-0.268,0.082,0.063,0.033,101.686,-1.064,1.047,0.358,1,1,3.262
1778532221323,0.025,1.134,-0.267,0.092,0.063,0.030,101.855,-0.962,1.045,0.352,1,1,3.266
1778532221336,0.025,1.129,-0.267,0.102,0.063,0.027,102.156,-1.026,1.053,0.361,1,1,3.916
1778532221351,0.026,1.123,-0.267,0.111,0.062,0.024,102.468,-1.204,1.031,0.351,1,1,3.265
1778532221364,0.028,1.116,-0.268,0.119,0.061,0.020,102.911,-1.423,0.998,0.340,1,1,3.312
1778532221377,0.026,1.109,-0.270,0.126,0.060,0.016,103.296,-1.186,1.003,0.320,1,1,3.254
1778532221392,0.025,1.102,-0.270,0.132,0.059,0.014,103.592,-1.109,0.984,0.309,1,1,4.961
1778532221406,0.022,1.095,-0.272,0.138,0.058,0.012,104.035,-0.812,0.999,0.283,1,1,3.913
1778532221422,0.020,1.088,-0.273,0.142,0.057,0.011,104.452,-0.600,0.982,0.261,1,1,5.224
1778532221435,0.016,1.081,-0.276,0.146,0.056,0.012,104.888,-0.181,0.986,0.252,1,1,3.264
1778532221449,0.012,1.076,-0.277,0.149,0.057,0.014,105.219,0.296,1.021,0.254,1,1,3.283
1778532221462,0.008,1.073,-0.280,0.153,0.057,0.018,105.459,0.617,1.068,0.278,1,1,3.277
1778532221477,0.008,1.070,-0.282,0.157,0.057,0.021,105.771,0.602,1.054,0.294,1,1,5.131
1778532221491,0.008,1.068,-0.284,0.162,0.058,0.024,105.952,0.505,1.086,0.308,1,1,3.264
1778532221504,0.009,1.069,-0.286,0.167,0.058,0.027,106.050,0.266,1.138,0.335,1,1,3.271
1778532221517,0.010,1.071,-0.289,0.174,0.059,0.029,106.137,0.128,1.161,0.372,1,1,3.284
1778532221531,0.008,1.077,-0.290,0.184,0.060,0.032,106.012,0.261,1.247,0.454,1,1,3.266
1778532221548,0.008,1.083,-0.291,0.196,0.060,0.035,105.896,0.187,1.261,0.526,3,3,7.848
1778532221562,0.001,1.091,-0.291,0.212,0.062,0.038,105.614,0.769,1.316,0.653,3,3,3.257
1778532221580,0.002,1.100,-0.293,0.233,0.064,0.041,105.524,0.591,1.322,0.795,3,3,8.085
1778532221594,0.007,1.112,-0.295,0.258,0.065,0.043,105.316,0.140,1.416,0.899,3,3,3.253
1778532221608,0.016,1.127,-0.296,0.286,0.065,0.040,105.039,-0.659,1.528,1.024,3,3,4.565
1778532221622,0.029,1.149,-0.296,0.321,0.061,0.035,104.570,-1.591,1.677,1.237,3,3,3.937
1778532221636,0.037,1.177,-0.290,0.364,0.055,0.026,103.701,-2.132,1.802,1.509,3,3,3.281
1778532221649,0.034,1.198,-0.285,0.417,0.051,0.006,102.971,-1.781,1.662,1.858,3,3,3.256
1778532221663,0.026,1.205,-0.280,0.471,0.051,-0.031,102.437,-1.038,1.389,2.111,3,3,3.286
1778532221676,-0.004,1.203,-0.275,0.521,0.062,-0.094,101.996,1.824,1.336,2.548,3,3,3.267
1778532221690,-0.049,1.199,-0.271,0.564,0.090,-0.183,101.729,5.699,1.543,3.111,4,4,4.306
1778532221704,-0.089,1.192,-0.273,0.596,0.131,-0.269,102.251,9.118,1.441,3.128,4,4,3.274
1778532221717,-0.118,1.191,-0.287,0.622,0.183,-0.352,103.658,11.150,1.513,3.209,4,4,3.589
1778532221731,-0.132,1.179,-0.302,0.643,0.240,-0.432,105.628,12.046,1.207,3.254,4,4,3.270
1778532221744,-0.136,1.160,-0.311,0.656,0.299,-0.507,107.458,12.213,0.912,3.222,4,4,3.258
1778532221758,-0.119,1.128,-0.299,0.658,0.356,-0.554,106.057,8.220,0.497,2.661,4,4,4.018
1778532221772,-0.089,1.092,-0.272,0.643,0.405,-0.577,100.251,2.418,0.719,2.061,4,4,3.263
1778532221785,-0.060,1.073,-0.240,0.619,0.447,-0.590,95.952,-1.116,0.981,1.784,4,4,3.312
1778532221799,-0.036,1.051,-0.215,0.589,0.482,-0.605,92.565,-4.488,0.821,1.736,4,4,3.268
1778532221812,-0.017,1.028,-0.194,0.544,0.514,-0.626,89.641,-7.332,0.721,1.881,4,4,3.782
1778532221826,0.001,1.010,-0.175,0.491,0.542,-0.649,87.829,-9.602,0.776,1.995,4,4,4.336
1778532221840,0.017,0.995,-0.162,0.432,0.568,-0.669,86.858,-11.441,0.759,2.038,4,4,3.258
1778532221854,0.030,0.980,-0.150,0.367,0.592,-0.686,86.392,-12.698,0.743,2.117,4,4,3.273
1778532221867,0.042,0.969,-0.142,0.299,0.617,-0.702,86.474,-13.647,0.777,2.245,4,4,3.266
1778532221880,0.055,0.962,-0.136,0.227,0.643,-0.719,86.791,-14.461,0.878,2.382,4,4,3.280
1778532221894,0.068,0.962,-0.133,0.156,0.670,-0.735,87.540,-15.064,1.020,2.462,4,4,3.928
1778532221909,0.083,0.963,-0.136,0.086,0.699,-0.747,88.812,-15.711,1.085,2.509,4,4,3.283
1778532221923,0.097,0.962,-0.142,0.015,0.731,-0.756,90.415,-16.387,1.078,2.588,4,4,3.269
1778532221937,0.112,0.964,-0.148,-0.056,0.766,-0.763,91.917,-16.993,1.138,2.718,4,4,3.783
1778532221950,0.129,0.974,-0.157,-0.126,0.805,-0.768,93.262,-17.431,1.326,2.795,4,4,3.291
1778532221963,0.147,0.989,-0.166,-0.189,0.847,-0.771,94.483,-17.815,1.474,2.801,5,5,3.921
1778532221978,0.167,1.005,-0.177,-0.246,0.890,-0.772,95.670,-18.341,1.539,2.760,5,5,3.285
1778532221991,0.188,1.020,-0.189,-0.296,0.934,-0.771,96.832,-18.946,1.567,2.728,5,5,3.269
1778532222004,0.210,1.035,-0.199,-0.341,0.979,-0.770,97.866,-19.549,1.586,2.714,5,5,3.288
1778532222018,0.232,1.050,-0.210,-0.380,1.024,-0.769,98.808,-20.256,1.606,2.704,5,5,3.267
1778532222034,0.259,1.062,-0.220,-0.415,1.067,-0.766,99.725,-21.273,1.638,2.653,5,5,4.007
1778532222048,0.286,1.072,-0.231,-0.447,1.108,-0.760,100.704,-22.339,1.615,2.600,5,5,3.262
1778532222062,0.310,1.082,-0.242,-0.476,1.149,-0.750,101.629,-23.153,1.635,2.562,5,5,3.648
1778532222075,0.331,1.091,-0.254,-0.500,1.190,-0.738,102.590,-23.768,1.599,2.555,5,5,3.278
1778532222088,0.348,1.099,-0.266,-0.519,1.233,-0.724,103.518,-24.167,1.555,2.596,5,5,3.259
1778532222102,0.363,1.106,-0.276,-0.534,1.280,-0.709,104.270,-24.407,1.509,2.668,5,5,3.967
1778532222116,0.375,1.112,-0.282,-0.545,1.325,-0.692,104.713,-24.564,1.462,2.643,5,5,3.271
1778532222129,0.386,1.116,-0.287,-0.551,1.369,-0.674,104.996,-24.767,1.410,2.612,5,5,3.475
1778532222143,0.396,1.115,-0.289,-0.557,1.411,-0.658,105.153,-25.039,1.303,2.608,5,5,3.261
1778532222159,0.407,1.115,-0.290,-0.562,1.451,-0.643,105.225,-25.444,1.328,2.613,5,5,3.285
1778532222172,0.418,1.114,-0.292,-0.567,1.490,-0.627,105.405,-25.894,1.321,2.604,5,5,3.934
1778532222186,0.431,1.114,-0.295,-0.570,1.527,-0.609,105.649,-26.390,1.371,2.588,5,5,3.277
1778532222199,0.443,1.113,-0.299,-0.571,1.564,-0.592,105.999,-26.872,1.350,2.576,5,5,3.274
1778532222213,0.456,1.112,-0.303,-0.571,1.598,-0.577,106.404,-27.377,1.380,2.569,5,5,3.289
1778532222226,0.468,1.112,-0.309,-0.568,1.632,-0.563,106.850,-27.793,1.383,2.556,5,5,3.281
1778532222240,0.477,1.111,-0.314,-0.562,1.664,-0.546,107.316,-28.077,1.359,2.539,5,5,3.924
1778532222254,0.486,1.109,-0.319,-0.554,1.695,-0.526,107.746,-28.319,1.333,2.524,5,5,3.281
1778532222267,0.497,1.105,-0.325,-0.543,1.725,-0.503,108.280,-28.714,1.340,2.516,5,5,3.315
1778532222280,0.509,1.102,-0.333,-0.528,1.754,-0.475,109.049,-29.262,1.396,2.520,5,5,3.275
1778532222294,0.523,1.097,-0.344,-0.512,1.782,-0.445,110.194,-29.811,1.414,2.527,5,5,3.296
1778532222307,0.533,1.092,-0.360,-0.493,1.808,-0.415,111.653,-30.081,1.426,2.527,1,1,3.932
1778532222321,0.543,1.086,-0.379,-0.472,1.824,-0.387,113.377,-30.174,1.452,2.272,1,1,3.300
1778532222335,0.549,1.078,-0.400,-0.449,1.831,-0.361,115.335,-30.086,1.415,2.036,1,1,3.292
1778532222348,0.553,1.062,-0.421,-0.429,1.829,-0.338,117.798,-29.999,1.313,1.800,1,1,3.265
1778532222361,0.555,1.047,-0.443,-0.413,1.819,-0.317,120.038,-29.673,1.302,1.561,1,1,3.274
1778532222375,0.551,1.040,-0.464,-0.399,1.800,-0.292,121.634,-28.821,1.363,1.352,1,1,3.982
1778532222389,0.542,1.037,-0.485,-0.381,1.774,-0.264,122.821,-27.411,1.394,1.199,1,1,3.268
1778532222402,0.528,1.036,-0.505,-0.357,1.744,-0.238,123.740,-25.653,1.420,1.096,1,1,3.269
1778532222416,0.514,1.038,-0.524,-0.326,1.711,-0.215,124.489,-23.994,1.438,1.042,1,1,3.286
1778532222429,0.503,1.039,-0.542,-0.288,1.673,-0.195,125.089,-22.757,1.434,1.040,1,1,3.265
1778532222442,0.583,0.998,-0.610,-0.267,1.603,-0.233,130.047,-25.120,3.140,1.280,1,1,3.935
1778532222456,0.547,0.922,-0.624,-0.244,1.547,-0.270,104.293,-21.620,1.207,1.279,1,1,3.281
1778532222470,0.523,0.896,-0.623,-0.256,1.500,-0.292,108.715,-19.569,0.682,1.060,1,1,3.347
1778532222483,0.523,0.904,-0.600,-0.274,1.440,-0.295,107.463,-20.168,1.200,0.859,1,1,3.282
1778532222497,0.486,0.930,-0.575,-0.283,1.386,-0.294,105.940,-17.108,1.538,0.575,1,1,3.296
1778532222510,0.474,0.940,-0.556,-0.284,1.334,-0.295,105.011,-16.468,1.179,0.443,1,1,3.962
1778532222524,0.459,0.943,-0.541,-0.287,1.282,-0.295,104.723,-15.609,1.036,0.463,1,1,3.263
1778532222538,0.439,0.949,-0.526,-0.288,1.233,-0.295,104.292,-14.152,1.102,0.450,1,1,3.413
1778532222551,0.435,0.954,-0.512,-0.283,1.186,-0.306,104.044,-14.503,1.136,0.610,1,1,3.251
1778532222564,0.421,0.958,-0.499,-0.272,1.140,-0.299,103.789,-13.666,1.079,0.126,1,1,3.294
1778532222578,0.401,0.962,-0.485,-0.261,1.096,-0.289,103.392,-12.249,1.069,0.062,1,1,3.936
1778532222592,0.384,0.965,-0.472,-0.251,1.055,-0.276,103.099,-11.072,1.039,0.075,1,1,3.298
1778532222605,0.369,0.967,-0.460,-0.240,1.015,-0.262,102.896,-10.310,1.027,0.100,1,1,3.298
1778532222619,0.358,0.968,-0.448,-0.230,0.977,-0.250,102.675,-9.935,1.029,0.073,1,1,3.265
1778532222632,0.347,0.970,-0.437,-0.221,0.940,-0.239,102.491,-9.526,1.024,0.054,1,1,3.299
1778532222645,0.336,0.971,-0.426,-0.211,0.904,-0.230,102.399,-9.077,1.017,0.043,1,1,3.937
1778532222659,0.324,0.972,-0.416,-0.202,0.870,-0.221,102.248,-8.650,1.018,0.039,1,1,3.273
1778532222673,0.313,0.973,-0.406,-0.194,0.837,-0.213,102.110,-8.169,1.025,0.037,1,1,3.273
1778532222686,0.302,0.975,-0.397,-0.185,0.805,-0.204,102.044,-7.737,1.026,0.043,1,1,3.292
1778532222699,0.292,0.976,-0.388,-0.177,0.774,-0.196,101.951,-7.382,1.016,0.047,1,1,3.263
1778532222713,0.283,0.977,-0.380,-0.170,0.744,-0.189,101.879,-7.114,1.019,0.042,1,1,3.944
1778532222727,0.274,0.978,-0.372,-0.162,0.715,-0.182,101.799,-6.811,1.025,0.042,1,1,3.276
1778532222741,0.264,0.979,-0.365,-0.155,0.688,-0.175,101.752,-6.497,1.027,0.044,1,1,3.265
1778532222754,0.256,0.980,-0.358,-0.148,0.661,-0.168,101.721,-6.208,1.027,0.044,1,1,3.329
1778532222767,0.248,0.981,-0.350,-0.141,0.636,-0.161,101.656,-6.023,1.025,0.043,1,1,3.278
1778532222781,0.240,0.982,-0.344,-0.135,0.612,-0.155,101.619,-5.840,1.021,0.037,1,1,4.009
1778532222795,0.233,0.983,-0.338,-0.129,0.588,-0.149,101.613,-5.663,1.024,0.033,1,1,3.284
1778532222808,0.226,0.984,-0.332,-0.123,0.566,-0.144,101.567,-5.546,1.026,0.030,1,1,3.284
1778532222822,0.219,0.985,-0.326,-0.118,0.544,-0.138,101.561,-5.424,1.029,0.030,1,1,3.272
1778532222835,0.213,0.985,-0.321,-0.113,0.523,-0.133,101.547,-5.283,1.024,0.026,1,1,3.314
1778532222849,0.206,0.986,-0.315,-0.108,0.503,-0.128,101.530,-5.138,1.018,0.023,1,1,3.950
1778532222863,0.201,0.986,-0.311,-0.104,0.484,-0.123,101.597,-5.033,1.020,0.018,1,1,3.340
1778532222876,0.194,0.986,-0.307,-0.100,0.465,-0.118,101.624,-4.878,1.017,0.015,1,1,3.299
1778532222890,0.189,0.987,-0.302,-0.096,0.448,-0.113,101.619,-4.816,1.014,0.015,1,1,3.266
1778532222903,0.184,0.987,-0.298,-0.093,0.431,-0.109,101.652,-4.742,1.015,0.014,1,1,3.283
1778532222916,0.179,0.987,-0.294,-0.090,0.415,-0.105,101.660,-4.692,1.009,0.016,2,2,3.903
1778532222930,0.175,0.987,-0.290,-0.088,0.399,-0.101,101.671,-4.634,1.011,0.026,2,2,3.291
1778532222944,0.169,0.987,-0.286,-0.085,0.384,-0.098,101.632,-4.501,1.022,0.024,2,2,3.282
1778532222957,0.165,0.988,-0.282,-0.083,0.370,-0.094,101.608,-4.448,1.028,0.019,2,2,3.260
1778532222971,0.161,0.989,-0.279,-0.080,0.356,-0.091,101.558,-4.417,1.026,0.018,2,2,3.287
1778532222984,0.157,0.989,-0.275,-0.078,0.342,-0.088,101.533,-4.339,1.021,0.015,2,2,3.902
1778532222998,0.153,0.990,-0.272,-0.075,0.329,-0.085,101.488,-4.295,1.017,0.018,2,2,3.282
1778532223012,0.149,0.990,-0.269,-0.073,0.317,-0.082,101.473,-4.224,1.026,0.015,2,2,3.277
1778532223025,0.146,0.990,-0.266,-0.071,0.305,-0.079,101.460,-4.181,1.016,0.016,2,2,3.299
1778532223038,0.142,0.991,-0.263,-0.069,0.293,-0.076,101.477,-4.165,1.017,0.019,2,2,3.271
1778532223052,0.139,0.991,-0.260,-0.067,0.282,-0.074,101.503,-4.082,1.014,0.024,2,2,3.909
1778532223066,0.135,0.990,-0.258,-0.066,0.272,-0.071,101.523,-4.035,1.011,0.034,2,2,3.276
1778532223079,0.132,0.991,-0.256,-0.065,0.262,-0.067,101.523,-4.008,1.013,0.043,2,2,3.269
1778532223093,0.130,0.991,-0.253,-0.064,0.253,-0.065,101.512,-4.010,1.022,0.048,2,2,3.273
1778532223106,0.127,0.991,-0.251,-0.064,0.244,-0.061,101.476,-3.961,1.023,0.057,2,2,3.268
1778532223119,0.124,0.992,-0.248,-0.063,0.236,-0.058,101.423,-3.923,1.024,0.061,2,2,3.991
1778532223134,0.121,0.992,-0.246,-0.063,0.228,-0.055,101.356,-3.900,1.020,0.069,2,2,3.286
1778532223147,0.119,0.992,-0.244,-0.063,0.221,-0.052,101.380,-3.847,1.020,0.077,2,2,3.301
1778532223160,0.116,0.992,-0.242,-0.064,0.214,-0.049,101.395,-3.792,1.016,0.090,2,2,3.262
1778532223174,0.114,0.993,-0.240,-0.064,0.207,-0.045,101.287,-3.802,1.032,0.100,2,2,3.261
1778532223187,0.112,0.994,-0.238,-0.065,0.201,-0.042,101.271,-3.791,1.018,0.107,2,2,3.998
1778532223201,0.111,0.994,-0.235,-0.066,0.196,-0.039,101.158,-3.862,1.020,0.114,2,2,3.288
1778532223215,0.109,0.995,-0.232,-0.067,0.190,-0.037,101.015,-3.931,1.029,0.105,2,2,3.283
1778532223228,0.108,0.995,-0.230,-0.068,0.184,-0.034,100.893,-3.973,1.025,0.087,2,2,3.268
1778532223242,0.107,0.996,-0.227,-0.068,0.178,-0.033,100.725,-4.047,1.029,0.072,2,2,3.277
1778532223255,0.106,0.996,-0.224,-0.067,0.172,-0.031,100.626,-4.130,1.022,0.062,2,2,3.924
1778532223269,0.105,0.997,-0.221,-0.066,0.166,-0.031,100.464,-4.155,1.033,0.046,2,2,3.265
1778532223283,0.104,0.998,-0.219,-0.065,0.160,-0.030,100.366,-4.150,1.030,0.039,2,2,3.270
1778532223296,0.102,0.999,-0.217,-0.064,0.154,-0.029,100.233,-4.153,1.028,0.029,2,2,3.274
1778532223309,0.101,0.999,-0.215,-0.062,0.147,-0.028,100.209,-4.139,1.023,0.023,2,2,3.265
1778532223323,0.100,0.999,-0.212,-0.060,0.142,-0.028,100.102,-4.134,1.026,0.021,2,2,3.911
1778532223337,0.099,1.000,-0.210,-0.058,0.136,-0.027,100.014,-4.172,1.025,0.024,2,2,3.262
1778532223351,0.098,1.000,-0.208,-0.056,0.130,-0.027,99.963,-4.211,1.019,0.030,2,2,3.734
1778532223364,0.097,1.000,-0.206,-0.053,0.124,-0.027,99.860,-4.206,1.029,0.042,2,2,3.274
1778532223377,0.096,1.001,-0.204,-0.050,0.118,-0.027,99.756,-4.170,1.038,0.046,2,2,3.267
1778532223391,0.095,1.002,-0.202,-0.047,0.113,-0.027,99.660,-4.116,1.035,0.055,2,2,3.939
1778532223405,0.094,1.003,-0.201,-0.044,0.107,-0.027,99.681,-4.116,1.034,0.059,2,2,3.283
1778532223418,0.093,1.004,-0.200,-0.041,0.101,-0.026,99.665,-4.181,1.047,0.066,2,2,3.273
1778532223432,0.093,1.006,-0.198,-0.038,0.096,-0.027,99.580,-4.241,1.054,0.071,2,2,3.285
1778532223445,0.094,1.010,-0.195,-0.033,0.090,-0.028,99.297,-4.340,1.123,0.118,2,2,3.268
1778532223458,0.104,1.023,-0.191,-0.024,0.083,-0.035,98.823,-5.236,1.349,0.319,3,3,3.993
1778532223472,0.123,1.098,-0.173,0.007,0.074,-0.055,97.552,-5.806,2.790,0.999,3,3,3.273
1778532223486,0.145,1.126,-0.168,0.057,0.059,-0.066,97.019,-7.125,1.849,1.461,3,3,3.269
1778532223499,0.176,1.165,-0.159,0.110,0.026,-0.062,96.245,-8.653,2.192,1.690,3,3,3.286
1778532223513,0.194,1.182,-0.138,0.165,-0.010,-0.058,94.586,-9.764,1.695,1.840,3,3,3.263
1778532223526,0.197,1.179,-0.100,0.207,-0.038,-0.075,90.947,-9.848,1.361,1.601,4,4,3.939
1778532223540,0.200,1.167,-0.052,0.242,-0.051,-0.099,86.262,-10.003,1.378,1.403,4,4,3.264
1778532223554,0.203,1.130,0.005,0.262,-0.051,-0.101,79.491,-10.210,1.314,0.808,4,4,3.668
1778532223567,0.209,1.094,0.067,0.263,-0.039,-0.089,73.077,-10.450,1.493,0.437,4,4,3.262
1778532223581,0.216,1.064,0.126,0.251,-0.019,-0.074,67.676,-10.786,1.517,0.605,4,4,4.011
1778532223595,0.227,1.036,0.180,0.231,0.003,-0.053,62.864,-11.476,1.500,0.807,4,4,3.928
1778532223609,0.238,1.010,0.227,0.202,0.024,-0.027,58.758,-12.318,1.422,1.021,4,4,3.641
1778532223623,0.246,0.991,0.265,0.165,0.042,0.001,55.745,-12.888,1.294,1.191,4,4,3.277
1778532223636,0.248,0.978,0.292,0.122,0.058,0.027,54.126,-13.081,1.170,1.325,4,4,3.257
1778532223649,0.247,0.968,0.309,0.070,0.072,0.053,53.476,-12.984,1.038,1.523,4,4,3.279
1778532223663,0.243,0.964,0.318,0.010,0.084,0.077,54.049,-12.609,1.028,1.741,4,4,3.928
1778532223677,0.239,0.970,0.320,-0.056,0.094,0.096,55.693,-12.066,1.162,1.908,4,4,3.270
1778532223690,0.234,0.982,0.316,-0.124,0.102,0.112,57.989,-11.537,1.291,1.990,4,4,3.263
1778532223704,0.231,1.000,0.307,-0.191,0.108,0.128,60.597,-11.014,1.407,2.014,4,4,3.305
1778532223717,0.227,1.021,0.295,-0.255,0.113,0.140,63.343,-10.538,1.473,1.993,4,4,3.270
1778532223731,0.224,1.044,0.279,-0.315,0.117,0.150,66.116,-10.078,1.558,1.923,4,4,4.232
1778532223745,0.220,1.069,0.260,-0.368,0.122,0.160,68.890,-9.575,1.626,1.798,4,4,3.262
1778532223758,0.216,1.090,0.238,-0.415,0.127,0.168,71.748,-9.118,1.583,1.700,4,4,3.638
1778532223772,0.213,1.104,0.212,-0.459,0.136,0.176,74.833,-8.726,1.458,1.702,4,4,3.267
1778532223785,0.207,1.113,0.182,-0.505,0.147,0.186,78.189,-8.229,1.394,1.815,4,4,3.261
1778532223799,0.198,1.128,0.147,-0.548,0.162,0.199,81.468,-7.485,1.573,1.810,4,4,3.994
1778532223813,0.187,1.143,0.106,-0.581,0.178,0.212,84.972,-6.536,1.688,1.653,4,4,3.260
1778532223827,0.174,1.157,0.057,-0.604,0.196,0.221,88.772,-5.578,1.764,1.439,4,4,3.617
1778532223841,0.162,1.168,0.003,-0.616,0.212,0.224,92.689,-4.768,1.846,1.168,4,4,3.280
1778532223854,0.152,1.177,-0.056,-0.617,0.225,0.221,96.666,-4.136,1.926,0.868,4,4,3.262
1778532223867,0.143,1.181,-0.118,-0.607,0.233,0.215,100.688,-3.610,1.947,0.571,1,1,3.987
1778532223881,0.133,1.183,-0.180,-0.588,0.237,0.204,104.574,-3.029,1.977,0.348,1,1,3.262
1778532223895,0.120,1.186,-0.242,-0.561,0.237,0.187,108.115,-2.299,2.024,0.379,1,1,3.264
1778532223908,0.107,1.189,-0.300,-0.526,0.235,0.163,111.268,-1.586,2.011,0.623,1,1,3.268
1778532223924,0.096,1.191,-0.350,-0.483,0.232,0.134,113.981,-1.044,1.908,0.901,1,1,4.326
1778532223937,0.267,1.314,-0.160,-0.372,0.148,0.129,107.419,-4.299,6.928,3.229,1,1,3.922
1778532223951,0.270,1.264,-0.078,-0.320,0.135,0.105,97.746,-4.914,1.746,1.156,1,1,3.267
1778532223965,0.297,1.263,-0.047,-0.216,0.103,0.048,94.436,-7.547,1.653,2.959,1,1,3.675
1778532223978,0.233,1.249,-0.070,-0.116,0.093,0.021,96.961,-2.425,1.610,2.596,1,1,3.253
1778532223994,0.225,1.239,-0.074,-0.028,0.090,-0.001,97.102,-2.455,1.039,2.334,1,1,5.105
1778532224007,0.204,1.230,-0.085,0.043,0.090,-0.014,98.134,-0.922,1.110,1.906,1,1,3.876
1778532224023,0.197,1.212,-0.097,0.097,0.086,-0.019,99.558,-1.127,0.903,1.499,1,1,5.079
1778532224036,0.189,1.196,-0.106,0.132,0.077,-0.021,100.594,-1.085,0.897,1.069,1,1,3.263
1778532224049,0.182,1.183,-0.113,0.156,0.075,-0.021,101.148,-1.143,0.940,0.781,1,1,3.288
1778532224063,0.178,1.171,-0.118,0.170,0.074,-0.021,101.464,-1.674,0.928,0.540,1,1,3.385
1778532224076,0.177,1.161,-0.120,0.178,0.070,-0.023,101.223,-2.286,0.985,0.389,1,1,3.967
1778532224091,0.174,1.154,-0.120,0.185,0.065,-0.027,100.840,-2.698,1.006,0.389,1,1,3.272
1778532224105,0.172,1.147,-0.121,0.192,0.060,-0.031,100.551,-3.184,1.004,0.401,1,1,3.262
1778532224119,0.170,1.140,-0.123,0.196,0.053,-0.035,100.456,-3.474,1.015,0.358,1,1,3.285
1778532224132,0.166,1.133,-0.125,0.198,0.046,-0.039,100.437,-3.589,0.995,0.320,1,1,3.264
1778532224145,0.162,1.127,-0.128,0.199,0.040,-0.042,100.433,-3.622,1.011,0.279,1,1,3.954
1778532224159,0.158,1.121,-0.129,0.199,0.033,-0.044,100.280,-3.726,1.014,0.261,1,1,3.267
1778532224173,0.155,1.116,-0.130,0.199,0.026,-0.046,100.131,-3.845,1.030,0.277,1,1,3.278
1778532224186,0.150,1.113,-0.131,0.200,0.020,-0.047,99.953,-3.661,1.048,0.262,1,1,3.263
1778532224200,0.149,1.108,-0.132,0.198,0.015,-0.048,99.893,-3.949,1.021,0.210,1,1,3.629
1778532224213,0.145,1.105,-0.133,0.196,0.011,-0.047,99.773,-3.908,1.045,0.173,1,1,3.926
1778532224228,0.141,1.099,-0.136,0.193,0.007,-0.046,99.963,-3.854,1.003,0.141,1,1,3.577
1778532224241,0.138,1.095,-0.139,0.189,0.005,-0.045,100.088,-3.816,1.019,0.106,1,1,3.275
1778532224254,0.134,1.091,-0.141,0.185,0.003,-0.044,100.090,-3.787,1.033,0.099,1,1,3.264
1778532224268,0.131,1.087,-0.143,0.181,0.000,-0.043,100.163,-3.712,1.020,0.097,1,1,3.401
1778532224281,0.128,1.084,-0.145,0.177,-0.002,-0.042,100.149,-3.718,1.029,0.103,1,1,3.878
1778532224295,0.126,1.081,-0.147,0.174,-0.003,-0.042,100.186,-3.789,1.032,0.099,1,1,3.300
1778532224309,0.126,1.078,-0.148,0.171,-0.004,-0.043,100.193,-4.083,1.046,0.117,1,1,3.259
1778532224322,0.124,1.075,-0.150,0.168,-0.006,-0.045,100.239,-4.096,1.027,0.139,1,1,3.717
1778532224336,0.122,1.070,-0.152,0.165,-0.007,-0.048,100.370,-4.170,0.992,0.161,1,1,3.269
1778532224349,0.120,1.067,-0.154,0.162,-0.009,-0.051,100.442,-4.140,1.024,0.180,1,1,3.877
1778532224363,0.116,1.065,-0.155,0.160,-0.011,-0.055,100.412,-3.976,1.024,0.194,1,1,3.288
1778532224377,0.115,1.065,-0.157,0.159,-0.013,-0.058,100.407,-4.018,1.080,0.206,1,1,3.264
1778532224390,0.114,1.063,-0.159,0.158,-0.015,-0.062,100.492,-4.072,1.049,0.218,1,1,3.271
1778532224403,0.114,1.062,-0.161,0.158,-0.016,-0.068,100.576,-4.310,1.067,0.278,1,1,3.263
1778532224419,0.113,1.063,-0.164,0.160,-0.017,-0.076,100.635,-4.370,1.115,0.356,5,5,3.966
1778532224433,0.109,1.065,-0.165,0.164,-0.018,-0.083,100.605,-4.089,1.129,0.376,5,5,3.277
1778532224446,0.102,1.073,-0.169,0.170,-0.018,-0.086,100.645,-3.451,1.270,0.362,5,5,3.267
1778532224459,0.096,1.077,-0.171,0.179,-0.019,-0.085,100.697,-2.957,1.193,0.436,5,5,3.326
1778532224473,0.092,1.082,-0.173,0.191,-0.019,-0.082,100.632,-2.738,1.215,0.498,5,5,3.301
1778532224486,0.089,1.086,-0.176,0.204,-0.018,-0.080,100.698,-2.508,1.189,0.542,3,3,3.933
1778532224500,0.083,1.092,-0.178,0.218,-0.017,-0.078,100.689,-2.129,1.243,0.578,3,3,3.270
1778532224514,0.079,1.099,-0.180,0.233,-0.015,-0.075,100.637,-1.851,1.268,0.636,3,3,3.321
1778532224527,0.073,1.108,-0.182,0.252,-0.012,-0.071,100.533,-1.452,1.337,0.725,3,3,3.272
1778532224541,0.067,1.117,-0.184,0.272,-0.010,-0.066,100.441,-1.023,1.319,0.821,3,3,3.279
1778532224555,0.060,1.126,-0.184,0.296,-0.006,-0.058,100.260,-0.559,1.338,0.932,3,3,3.955
1778532224569,0.056,1.136,-0.186,0.324,-0.003,-0.049,100.135,-0.364,1.379,1.069,3,3,3.270
1778532224584,0.056,1.148,-0.185,0.356,-0.001,-0.040,99.865,-0.603,1.419,1.204,3,3,5.426
1778532224598,0.060,1.162,-0.185,0.394,0.000,-0.032,99.549,-1.070,1.497,1.386,3,3,3.253
1778532224612,0.066,1.178,-0.183,0.438,-0.001,-0.026,99.150,-1.644,1.543,1.577,3,3,4.533
1778532224626,0.076,1.199,-0.179,0.490,-0.006,-0.023,98.576,-2.457,1.678,1.850,3,3,3.917
1778532224640,0.091,1.225,-0.171,0.552,-0.014,-0.025,97.768,-3.454,1.852,2.178,3,3,3.276
1778532224653,0.108,1.257,-0.159,0.624,-0.027,-0.032,96.765,-4.456,2.004,2.534,3,3,3.267
1778532224666,0.133,1.295,-0.144,0.694,-0.045,-0.046,95.656,-5.676,2.244,2.585,3,3,3.268
1778532224680,0.156,1.342,-0.134,0.761,-0.067,-0.072,94.920,-6.616,2.463,2.687,3,3,3.279
1778532224693,0.176,1.396,-0.135,0.826,-0.092,-0.106,94.776,-7.257,2.659,2.796,3,3,3.914
1778532224707,0.178,1.443,-0.155,0.888,-0.113,-0.148,95.586,-7.039,2.546,2.867,3,3,3.289
1778532224721,0.187,1.462,-0.173,0.948,-0.136,-0.183,96.653,-7.421,1.990,2.828,3,3,3.275
1778532224734,0.180,1.500,-0.166,1.005,-0.157,-0.215,96.075,-6.795,2.330,2.796,3,3,3.287
1778532224747,0.202,1.508,-0.163,1.061,-0.182,-0.238,95.783,-8.266,1.814,2.766,3,3,3.266
1778532224761,0.233,1.485,-0.135,1.114,-0.212,-0.242,92.806,-11.219,1.430,2.713,4,4,3.960
1778532224775,0.261,1.412,-0.083,1.166,-0.249,-0.215,83.043,-13.875,1.386,2.815,4,4,3.308
1778532224788,0.272,1.337,-0.063,1.200,-0.293,-0.178,71.262,-17.022,0.698,2.669,4,4,3.269
1778532224802,0.226,1.208,-0.045,1.153,-0.314,-0.149,57.119,-12.984,1.819,1.044,4,4,3.277
1778532224815,0.189,1.121,-0.023,1.046,-0.304,-0.152,45.938,-8.481,1.085,1.743,4,4,3.274
1778532224828,0.169,1.083,-0.001,0.917,-0.280,-0.164,43.983,-5.087,0.612,2.511,4,4,3.952
1778532224843,0.166,1.059,0.024,0.790,-0.252,-0.165,43.907,-5.386,0.787,2.550,4,4,3.260
1778532224856,0.170,1.046,0.047,0.668,-0.227,-0.147,44.965,-6.317,0.982,2.556,4,4,3.294
1778532224869,0.179,1.034,0.064,0.551,-0.206,-0.121,46.342,-7.883,0.971,2.582,4,4,3.280
1778532224883,0.187,1.019,0.078,0.437,-0.190,-0.095,47.873,-9.444,0.861,2.580,4,4,3.285
1778532224896,0.190,0.995,0.089,0.328,-0.177,-0.070,48.400,-10.931,0.637,2.573,4,4,3.939
1778532224910,0.190,0.971,0.101,0.223,-0.163,-0.044,48.718,-11.469,0.593,2.589,4,4,3.264
1778532224924,0.186,0.953,0.113,0.122,-0.149,-0.014,49.394,-11.334,0.673,2.627,4,4,3.294
1778532224937,0.184,0.943,0.124,0.025,-0.131,0.019,50.611,-11.094,0.831,2.667,4,4,3.256
1778532224950,0.183,0.943,0.136,-0.069,-0.112,0.054,52.247,-10.934,1.052,2.709,4,4,3.287
1778532224964,0.184,0.951,0.146,-0.159,-0.092,0.094,54.115,-10.821,1.198,2.780,5,5,3.932
1778532224978,0.184,0.971,0.153,-0.246,-0.071,0.139,56.396,-10.517,1.436,2.861,5,5,3.295
1778532224991,0.183,1.000,0.153,-0.329,-0.047,0.184,59.042,-9.995,1.648,2.894,5,5,3.343
1778532225005,0.183,1.038,0.148,-0.410,-0.022,0.226,61.881,-9.590,1.894,2.905,5,5,3.273
1778532225018,0.186,1.083,0.139,-0.488,0.003,0.271,64.728,-9.361,2.075,2.956,5,5,3.304
1778532225031,0.192,1.132,0.127,-0.562,0.027,0.319,67.462,-9.251,2.240,3.020,5,5,3.947
1778532225046,0.191,1.185,0.102,-0.634,0.051,0.368,70.640,-8.738,2.399,3.063,5,5,3.279
1778532225059,0.181,1.240,0.055,-0.703,0.079,0.420,74.528,-7.826,2.607,3.168,5,5,3.271
1778532225072,0.169,1.303,-0.013,-0.770,0.110,0.468,78.796,-6.942,3.093,3.177,5,5,3.298
1778532225086,0.169,1.366,-0.098,-0.834,0.143,0.492,83.227,-6.539,3.369,2.906,5,5,3.264
1778532225099,0.193,1.418,-0.204,-0.896,0.167,0.485,88.117,-6.988,3.667,2.646,5,5,3.964
1778532225113,0.228,1.461,-0.322,-0.945,0.170,0.484,93.100,-7.741,3.885,2.280,5,5,3.273
1778532225127,0.238,1.480,-0.444,-0.960,0.153,0.522,98.391,-7.689,3.666,2.045,5,5,3.271
1778532225140,0.210,1.471,-0.576,-0.959,0.126,0.570,104.216,-6.364,3.727,2.133,5,5,3.302
1778532225153,0.147,1.464,-0.707,-0.945,0.105,0.584,109.505,-4.040,3.987,1.169,5,5,3.294
1778532225167,0.077,1.479,-0.822,-0.909,0.100,0.543,113.515,-1.658,4.067,0.509,5,5,4.046
1778532225181,0.047,1.589,-0.949,-0.968,0.189,0.430,115.374,-0.898,5.507,4.332,5,5,3.323
1778532225194,0.076,1.539,-0.776,-0.863,0.221,0.321,105.175,-2.065,3.127,3.296,5,5,3.307
1778532225208,0.055,1.549,-0.693,-0.738,0.232,0.219,100.662,-0.813,2.137,3.532,5,5,3.267
1778532225221,0.003,1.537,-0.699,-0.618,0.253,0.169,102.770,2.719,1.883,2.866,5,5,3.270
1778532225235,-0.011,1.519,-0.678,-0.502,0.268,0.139,102.594,3.959,1.196,2.662,5,5,3.910
1778532225249,-0.011,1.486,-0.674,-0.393,0.246,0.123,104.924,3.697,0.964,2.466,5,5,3.273
1778532225262,-0.016,1.449,-0.674,-0.326,0.230,0.114,108.062,4.011,0.940,1.451,5,5,3.287
1778532225275,-0.019,1.418,-0.664,-0.288,0.224,0.105,109.146,4.173,0.875,0.706,5,5,3.263
1778532225289,-0.010,1.400,-0.641,-0.257,0.216,0.095,108.125,2.789,1.018,0.577,5,5,3.294
1778532225302,-0.006,1.382,-0.621,-0.228,0.203,0.089,107.394,2.079,1.014,0.539,1,1,3.914
1778532225316,-0.007,1.352,-0.611,-0.209,0.189,0.085,108.453,2.104,0.803,0.328,1,1,3.293
1778532225330,-0.007,1.335,-0.594,-0.196,0.178,0.080,107.985,1.879,0.989,0.196,1,1,3.279
1778532225343,-0.000,1.321,-0.576,-0.181,0.164,0.071,107.273,0.955,1.028,0.315,1,1,3.270
1778532225356,0.001,1.306,-0.560,-0.169,0.153,0.065,106.755,0.737,1.009,0.228,1,1,3.316
1778532225370,0.003,1.295,-0.543,-0.157,0.142,0.060,106.006,0.418,1.054,0.225,1,1,3.922
1778532225384,0.004,1.280,-0.529,-0.147,0.133,0.056,105.715,0.240,0.995,0.150,1,1,3.282
1778532225397,0.004,1.269,-0.513,-0.138,0.125,0.055,105.164,0.166,1.028,0.134,1,1,3.256
1778532225410,0.004,1.258,-0.498,-0.128,0.118,0.057,104.631,0.078,1.040,0.157,1,1,3.273
1778532225424,0.007,1.248,-0.485,-0.119,0.112,0.059,104.192,-0.203,1.058,0.168,1,1,3.262
1778532225437,0.011,1.238,-0.472,-0.110,0.106,0.059,103.854,-0.760,1.027,0.154,1,1,3.977
1778532225451,0.015,1.229,-0.458,-0.101,0.100,0.057,103.422,-1.175,1.054,0.142,1,1,3.279
1778532225465,0.017,1.220,-0.447,-0.092,0.094,0.054,103.206,-1.438,1.050,0.155,1,1,3.276
1778532225478,0.022,1.216,-0.436,-0.082,0.089,0.049,102.818,-1.942,1.137,0.189,1,1,3.288
1778532225492,0.023,1.209,-0.425,-0.073,0.084,0.042,102.584,-1.943,1.089,0.224,1,1,3.272
1778532225505,0.024,1.205,-0.415,-0.062,0.081,0.032,102.316,-2.007,1.140,0.333,1,1,4.012
1778532225519,0.025,1.208,-0.405,-0.046,0.079,0.025,101.982,-1.964,1.270,0.384,1,1,3.295
1778532225532,0.022,1.205,-0.397,-0.028,0.075,0.025,101.880,-1.592,1.164,0.445,1,1,3.302
1778532225546,0.021,1.200,-0.389,-0.009,0.071,0.027,101.800,-1.440,1.119,0.493,1,1,3.279
1778532225559,0.021,1.195,-0.382,0.010,0.068,0.028,101.837,-1.467,1.098,0.514,1,1,3.264
1778532225573,0.024,1.187,-0.376,0.029,0.066,0.029,101.897,-1.741,1.056,0.527,1,1,3.972
1778532225587,0.028,1.183,-0.369,0.048,0.064,0.029,101.928,-2.114,1.126,0.532,1,1,3.262
1778532225600,0.030,1.181,-0.365,0.066,0.062,0.027,102.050,-2.317,1.176,0.545,1,1,3.278
1778532225614,0.033,1.179,-0.361,0.085,0.060,0.025,102.228,-2.474,1.156,0.575,1,1,3.285
1778532225627,0.036,1.176,-0.357,0.105,0.059,0.023,102.381,-2.718,1.158,0.624,1,1,3.291
1778532225640,0.037,1.172,-0.355,0.125,0.056,0.021,102.639,-2.844,1.116,0.640,1,1,3.918
1778532225654,0.037,1.167,-0.353,0.145,0.054,0.019,103.013,-2.719,1.104,0.655,1,1,3.270
1778532225668,0.041,1.168,-0.350,0.165,0.052,0.017,103.093,-2.977,1.238,0.694,1,1,3.288
1778532225681,0.047,1.174,-0.347,0.187,0.048,0.013,103.020,-3.412,1.346,0.777,1,1,3.270
1778532225695,0.048,1.181,-0.344,0.213,0.045,0.008,102.877,-3.410,1.376,0.880,1,1,3.288
1778532225708,0.043,1.188,-0.340,0.242,0.042,0.006,102.696,-2.829,1.348,0.995,3,3,3.907
1778532225722,0.035,1.194,-0.336,0.275,0.039,0.008,102.481,-1.977,1.371,1.148,3,3,3.287
1778532225735,0.033,1.202,-0.331,0.314,0.037,0.011,102.112,-1.774,1.396,1.312,3,3,3.297
1778532225749,0.038,1.214,-0.324,0.358,0.034,0.015,101.619,-2.089,1.483,1.519,3,3,3.282
1778532225762,0.041,1.233,-0.316,0.410,0.028,0.019,100.969,-2.305,1.650,1.759,3,3,3.279
1778532225776,0.057,1.258,-0.305,0.471,0.019,0.020,100.158,-3.257,1.850,2.082,3,3,3.902
1778532225790,0.074,1.291,-0.291,0.545,0.006,0.018,99.150,-4.151,2.073,2.493,3,3,3.299
1778532225803,0.095,1.336,-0.275,0.618,-0.008,0.008,98.061,-5.030,2.384,2.544,3,3,3.259
1778532225816,0.115,1.398,-0.258,0.688,-0.028,-0.013,97.108,-5.606,2.805,2.619,3,3,3.282
1778532225830,0.115,1.466,-0.265,0.755,-0.045,-0.047,97.202,-5.308,2.978,2.712,3,3,3.272
1778532225843,0.111,1.519,-0.282,0.820,-0.056,-0.085,97.788,-4.831,2.757,2.742,4,4,4.035
1778532225857,0.130,1.549,-0.287,0.882,-0.069,-0.112,98.040,-5.677,2.313,2.664,4,4,3.271
1778532225871,0.141,1.582,-0.277,0.942,-0.088,-0.135,97.412,-6.020,2.331,2.670,4,4,3.269
1778532225884,0.161,1.582,-0.259,1.000,-0.110,-0.158,96.228,-7.461,1.695,2.692,4,4,3.291
1778532225898,0.194,1.512,-0.216,1.056,-0.138,-0.149,87.032,-11.662,1.159,2.653,4,4,3.261
1778532225911,0.281,1.374,-0.160,1.072,-0.198,-0.103,73.297,-15.140,2.944,2.542,4,4,3.931
1778532225925,0.269,1.290,-0.127,1.015,-0.263,-0.062,62.328,-13.649,0.805,2.244,4,4,3.283
1778532225938,0.248,1.227,-0.081,0.914,-0.309,-0.051,55.556,-11.185,0.975,2.276,4,4,3.292
1778532225952,0.216,1.207,-0.044,0.805,-0.336,-0.050,54.544,-7.816,1.180,2.295,4,4,3.293
1778532225965,0.191,1.181,-0.011,0.696,-0.346,-0.042,53.245,-5.104,0.993,2.217,4,4,3.285
1778532225979,0.172,1.153,0.015,0.588,-0.342,-0.023,52.260,-3.018,0.827,2.283,4,4,3.956
1778532225993,0.161,1.123,0.035,0.479,-0.327,-0.003,51.558,-2.012,0.696,2.415,4,4,3.375
1778532226006,0.155,1.094,0.052,0.368,-0.306,0.013,51.120,-2.125,0.620,2.552,4,4,3.276
1778532226020,0.153,1.065,0.067,0.262,-0.282,0.030,50.789,-2.926,0.580,2.566,4,4,3.261
1778532226033,0.155,1.039,0.080,0.159,-0.259,0.051,50.916,-4.374,0.636,2.597,4,4,3.299
1778532226046,0.160,1.020,0.093,0.060,-0.237,0.077,51.622,-5.850,0.769,2.633,4,4,3.911
1778532226061,0.165,1.011,0.106,-0.035,-0.219,0.108,52.856,-6.901,0.927,2.675,4,4,3.652
1778532226074,0.166,1.011,0.116,-0.126,-0.202,0.144,54.667,-7.272,1.088,2.733,4,4,3.265
1778532226088,0.164,1.022,0.123,-0.214,-0.185,0.183,56.878,-7.046,1.295,2.777,4,4,3.635
1778532226101,0.158,1.045,0.124,-0.299,-0.167,0.221,59.451,-6.446,1.556,2.800,4,4,3.271
1778532226115,0.151,1.071,0.121,-0.381,-0.147,0.260,62.219,-5.868,1.640,2.832,5,5,3.910
1778532226129,0.146,1.092,0.117,-0.459,-0.126,0.301,64.720,-5.391,1.554,2.880,5,5,3.272
1778532226142,0.141,1.120,0.116,-0.535,-0.107,0.343,66.824,-5.040,1.734,2.910,5,5,3.264
1778532226156,0.138,1.158,0.114,-0.608,-0.090,0.384,68.824,-4.738,1.985,2.908,5,5,3.303
1778532226169,0.136,1.204,0.104,-0.678,-0.076,0.420,71.155,-4.499,2.232,2.858,5,5,3.264
1778532226183,0.128,1.258,0.074,-0.746,-0.060,0.450,74.222,-3.997,2.497,2.811,5,5,4.295
1778532226197,0.130,1.328,0.022,-0.811,-0.045,0.470,77.764,-3.919,3.076,2.718,5,5,3.272
1778532226210,0.144,1.408,-0.050,-0.874,-0.033,0.482,81.502,-4.230,3.578,2.634,5,5,3.254
1778532226224,0.165,1.478,-0.142,-0.934,-0.029,0.497,85.716,-4.745,3.751,2.656,5,5,4.175
1778532226238,0.179,1.521,-0.251,-0.977,-0.033,0.530,90.569,-5.009,3.637,2.512,5,5,3.254
1778532226253,0.154,1.548,-0.365,-0.992,-0.039,0.583,95.568,-3.944,3.582,2.405,5,5,5.736
1778532226267,0.091,1.546,-0.491,-0.987,-0.034,0.621,101.248,-1.697,3.812,1.837,5,5,3.246
1778532226280,0.021,1.540,-0.618,-0.971,-0.015,0.615,106.605,0.592,3.965,0.865,5,5,3.271
1778532226294,-0.025,1.550,-0.734,-0.934,0.010,0.573,110.888,2.007,3.861,0.827,5,5,3.269
1778532226308,-0.036,1.558,-0.832,-0.874,0.026,0.482,114.565,2.266,3.464,2.062,5,5,4.386
1778532226322,0.032,1.469,-0.718,-0.767,0.053,0.371,102.191,-1.694,2.395,3.291,5,5,3.938
1778532226336,-0.006,1.457,-0.624,-0.646,0.059,0.283,96.277,0.745,2.041,3.207,5,5,3.267
1778532226349,-0.030,1.445,-0.625,-0.529,0.065,0.234,98.415,2.814,1.474,2.719,5,5,3.271
1778532226362,-0.041,1.433,-0.607,-0.417,0.076,0.209,98.603,3.838,1.208,2.566,5,5,3.253
1778532226376,-0.040,1.407,-0.601,-0.308,0.068,0.192,100.540,3.553,0.965,2.518,5,5,3.269
1778532226389,-0.043,1.375,-0.606,-0.219,0.060,0.180,103.945,3.803,0.988,2.103,1,1,3.887
1778532226403,-0.039,1.344,-0.605,-0.173,0.059,0.164,106.566,3.222,0.889,1.073,1,1,3.586
1778532226417,-0.032,1.325,-0.587,-0.143,0.055,0.149,106.190,2.125,0.934,0.673,1,1,3.258
1778532226430,-0.025,1.310,-0.568,-0.117,0.045,0.136,105.468,1.286,1.009,0.639,1,1,3.260
1778532226444,-0.024,1.288,-0.561,-0.101,0.035,0.127,106.533,1.189,0.891,0.404,1,1,3.265
1778532226457,-0.021,1.275,-0.545,-0.090,0.026,0.118,106.075,0.779,1.021,0.296,1,1,3.879
1778532226471,-0.018,1.262,-0.531,-0.079,0.017,0.109,105.758,0.415,1.015,0.338,1,1,3.278
1778532226484,-0.014,1.251,-0.518,-0.069,0.009,0.100,105.462,-0.024,1.019,0.292,1,1,3.250
1778532226498,-0.013,1.239,-0.503,-0.062,0.002,0.092,104.999,-0.050,1.013,0.240,1,1,3.299
1778532226511,-0.013,1.229,-0.491,-0.055,-0.002,0.086,104.700,0.013,1.027,0.185,1,1,3.264
1778532226525,-0.012,1.220,-0.478,-0.049,-0.006,0.082,104.349,-0.043,1.039,0.137,1,1,3.949
1778532226539,-0.012,1.212,-0.466,-0.044,-0.007,0.080,104.049,0.068,1.056,0.107,1,1,3.270
1778532226552,-0.012,1.203,-0.454,-0.040,-0.009,0.080,103.766,0.111,1.022,0.122,1,1,3.260
1778532226565,-0.011,1.196,-0.443,-0.035,-0.009,0.082,103.473,0.074,1.060,0.154,1,1,3.282
1778532226579,-0.007,1.188,-0.432,-0.030,-0.010,0.082,103.224,-0.426,1.049,0.127,1,1,3.256
1778532226592,0.001,1.182,-0.423,-0.026,-0.010,0.077,103.115,-1.177,1.068,0.106,1,1,3.942
1778532226607,0.005,1.175,-0.413,-0.020,-0.011,0.069,102.939,-1.539,1.062,0.192,1,1,3.794
1778532226620,0.009,1.172,-0.404,-0.014,-0.011,0.059,102.714,-1.899,1.128,0.249,1,1,3.279
1778532226633,0.013,1.168,-0.395,-0.006,-0.011,0.047,102.492,-2.232,1.104,0.329,1,1,3.299
1778532226647,0.015,1.167,-0.387,0.002,-0.012,0.035,102.256,-2.285,1.156,0.365,1,1,3.275
1778532226660,0.013,1.164,-0.380,0.012,-0.011,0.024,102.268,-1.876,1.120,0.363,1,1,3.926
1778532226674,0.001,1.172,-0.373,0.024,-0.012,0.024,101.921,-0.695,1.395,0.345,1,1,3.267
1778532226688,-0.003,1.171,-0.365,0.039,-0.011,0.022,101.690,-0.228,1.156,0.441,1,1,3.288
1778532226701,-0.003,1.168,-0.360,0.055,-0.009,0.020,101.781,-0.150,1.134,0.467,1,1,3.254
1778532226714,-0.002,1.165,-0.355,0.071,-0.007,0.017,101.900,-0.243,1.132,0.489,1,1,3.284
1778532226728,-0.001,1.165,-0.351,0.088,-0.005,0.014,101.929,-0.339,1.192,0.525,1,1,3.874
1778532226742,-0.000,1.165,-0.347,0.105,-0.003,0.011,101.985,-0.362,1.203,0.565,1,1,3.287
1778532226755,-0.002,1.164,-0.343,0.123,-0.002,0.009,102.047,-0.172,1.167,0.597,1,1,3.262
1778532226769,-0.003,1.164,-0.340,0.142,0.000,0.007,102.181,-0.064,1.190,0.640,1,1,3.252
1778532226782,-0.002,1.163,-0.337,0.162,0.002,0.007,102.326,-0.070,1.173,0.679,1,1,3.300
1778532226795,-0.003,1.164,-0.335,0.183,0.004,0.008,102.404,0.039,1.234,0.728,1,1,3.940
1778532226810,-0.000,1.170,-0.331,0.207,0.005,0.009,102.313,-0.213,1.325,0.819,1,1,4.002
1778532226823,0.001,1.178,-0.328,0.233,0.007,0.009,102.161,-0.340,1.372,0.933,1,1,3.264
1778532226837,0.000,1.185,-0.325,0.263,0.007,0.011,102.059,-0.212,1.364,1.027,1,1,3.296
1778532226850,-0.005,1.192,-0.321,0.297,0.007,0.015,101.875,0.252,1.362,1.196,1,1,3.261
1778532226864,-0.007,1.202,-0.317,0.337,0.008,0.020,101.583,0.432,1.439,1.366,3,3,3.930
1778532226878,0.001,1.215,-0.312,0.382,0.006,0.023,101.171,-0.220,1.524,1.568,3,3,3.274
1778532226891,0.012,1.233,-0.303,0.435,0.001,0.024,100.535,-1.028,1.659,1.814,3,3,3.253
1778532226904,0.027,1.260,-0.292,0.498,-0.007,0.022,99.621,-1.955,1.884,2.152,3,3,3.281
1778532226918,0.050,1.294,-0.275,0.573,-0.021,0.018,98.487,-3.211,2.103,2.531,3,3,3.267
1778532226931,0.062,1.344,-0.253,0.644,-0.037,0.008,97.187,-3.656,2.483,2.555,3,3,4.008
1778532226945,0.077,1.404,-0.238,0.713,-0.054,-0.015,96.286,-4.121,2.732,2.624,3,3,3.260
1778532226959,0.079,1.466,-0.239,0.779,-0.070,-0.051,96.214,-3.957,2.842,2.724,3,3,3.269
1778532226972,0.090,1.506,-0.262,0.843,-0.085,-0.093,97.296,-4.286,2.516,2.809,3,3,3.268
1778532226985,0.100,1.531,-0.264,0.905,-0.101,-0.139,97.414,-4.735,2.126,2.889,3,3,3.260
1778532226999,0.108,1.566,-0.258,0.964,-0.113,-0.193,97.011,-4.900,2.355,2.996,4,4,3.945
1778532227013,0.134,1.551,-0.243,1.021,-0.127,-0.226,95.919,-7.267,1.412,2.766,4,4,3.805
1778532227027,0.169,1.488,-0.190,1.076,-0.146,-0.225,87.400,-10.807,1.348,2.590,4,4,3.267
1778532227040,0.236,1.393,-0.147,1.107,-0.193,-0.186,75.260,-15.325,1.984,2.527,4,4,3.266
1778532227054,0.227,1.285,-0.128,1.064,-0.241,-0.140,60.933,-14.082,1.113,1.838,4,4,3.278
1778532227067,0.202,1.207,-0.093,0.969,-0.268,-0.125,51.645,-10.558,0.915,1.802,4,4,3.925
1778532227081,0.170,1.185,-0.063,0.860,-0.273,-0.125,51.453,-6.690,1.061,2.004,4,4,3.271
1778532227094,0.151,1.159,-0.037,0.754,-0.262,-0.120,51.124,-4.368,0.853,2.013,4,4,3.271
1778532227108,0.141,1.126,-0.017,0.646,-0.242,-0.104,50.535,-3.181,0.571,2.192,4,4,3.248
1778532227121,0.138,1.091,-0.002,0.534,-0.215,-0.085,49.863,-3.844,0.481,2.466,4,4,3.294
1778532227135,0.141,1.061,0.013,0.421,-0.185,-0.072,49.975,-5.573,0.559,2.583,4,4,3.876
1778532227149,0.148,1.038,0.025,0.313,-0.156,-0.061,50.983,-7.547,0.673,2.580,4,4,3.279
1778532227162,0.157,1.016,0.036,0.208,-0.131,-0.046,52.095,-9.679,0.717,2.581,4,4,3.264
1778532227175,0.166,0.999,0.047,0.108,-0.108,-0.024,53.391,-11.387,0.765,2.610,4,4,3.292
1778532227189,0.172,0.989,0.057,0.011,-0.086,0.005,54.954,-12.251,0.876,2.657,4,4,3.264
1778532227202,0.176,0.987,0.067,-0.082,-0.066,0.038,56.720,-12.520,1.018,2.690,4,4,3.925
1778532227217,0.178,0.995,0.074,-0.172,-0.045,0.070,58.850,-12.340,1.222,2.711,4,4,3.899
1778532227230,0.179,1.011,0.078,-0.258,-0.023,0.104,61.168,-11.912,1.367,2.742,4,4,3.255
1778532227244,0.178,1.031,0.078,-0.342,-0.001,0.139,63.586,-11.359,1.484,2.773,4,4,3.283
1778532227257,0.179,1.057,0.078,-0.422,0.020,0.175,65.882,-10.944,1.641,2.798,4,4,3.264
1778532227270,0.181,1.087,0.075,-0.499,0.040,0.211,68.096,-10.597,1.766,2.798,5,5,3.934
1778532227284,0.183,1.126,0.072,-0.573,0.056,0.246,70.174,-10.217,1.994,2.801,5,5,3.263
1778532227298,0.187,1.179,0.064,-0.645,0.069,0.282,72.331,-9.871,2.339,2.811,5,5,3.271
1778532227311,0.185,1.235,0.043,-0.713,0.079,0.318,74.931,-9.284,2.498,2.814,5,5,3.276
1778532227325,0.182,1.293,0.004,-0.780,0.088,0.353,78.101,-8.608,2.711,2.827,5,5,3.273
1778532227338,0.183,1.353,-0.050,-0.844,0.094,0.382,81.605,-8.158,2.938,2.751,5,5,4.075
1778532227352,0.199,1.414,-0.125,-0.905,0.094,0.392,85.485,-8.320,3.312,2.589,5,5,3.262
1778532227366,0.235,1.471,-0.223,-0.964,0.081,0.399,89.843,-9.011,3.751,2.577,5,5,3.273
1778532227379,0.249,1.512,-0.333,-1.003,0.052,0.435,94.480,-8.991,3.677,2.529,5,5,3.264
1778532227392,0.218,1.528,-0.450,-1.014,0.019,0.492,99.562,-7.437,3.594,2.512,5,5,3.271
1778532227406,0.146,1.521,-0.580,-1.011,-0.001,0.525,105.143,-4.697,3.957,1.751,5,5,3.923
1778532227420,0.056,1.525,-0.710,-0.991,0.003,0.501,109.944,-1.763,4.323,0.505,5,5,3.523
1778532227433,0.001,1.541,-0.826,-0.946,0.021,0.441,113.820,0.058,4.043,1.248,5,5,3.282
1778532227447,0.158,1.648,-0.615,-0.818,-0.005,0.332,107.274,-3.044,6.710,3.602,5,5,3.256
1778532227460,0.144,1.625,-0.456,-0.707,0.038,0.232,98.999,-2.468,3.226,3.413,5,5,3.279
1778532227473,0.100,1.615,-0.399,-0.588,0.061,0.166,95.167,0.438,1.847,3.014,5,5,3.913
1778532227488,0.069,1.589,-0.422,-0.473,0.089,0.141,98.739,2.659,1.507,2.686,5,5,3.276
1778532227501,0.074,1.569,-0.415,-0.363,0.099,0.122,99.129,1.574,1.191,2.549,5,5,3.267
1778532227514,0.067,1.530,-0.426,-0.258,0.076,0.108,102.533,1.934,0.956,2.537,5,5,3.258
1778532227528,0.060,1.485,-0.445,-0.194,0.070,0.100,107.085,2.194,0.990,1.461,5,5,3.281
1778532227541,0.056,1.451,-0.444,-0.159,0.072,0.090,108.339,2.268,0.834,0.777,1,1,3.876
1778532227555,0.062,1.433,-0.429,-0.129,0.066,0.079,107.124,0.990,1.057,0.683,1,1,3.270
1778532227568,0.062,1.412,-0.419,-0.104,0.056,0.072,106.552,0.582,0.988,0.592,1,1,3.276
1778532227582,0.065,1.385,-0.416,-0.091,0.049,0.065,107.276,-0.243,0.859,0.308,1,1,3.286
1778532227595,0.068,1.371,-0.403,-0.079,0.040,0.059,106.264,-0.949,1.087,0.311,1,1,3.257
1778532227609,0.067,1.354,-0.396,-0.068,0.032,0.053,106.010,-1.050,1.004,0.305,1,1,3.937
1778532227623,0.065,1.339,-0.386,-0.059,0.027,0.049,105.417,-1.089,1.035,0.220,1,1,3.637
1778532227636,0.062,1.323,-0.379,-0.051,0.023,0.047,105.238,-1.018,0.991,0.176,1,1,3.272
1778532227650,0.060,1.309,-0.372,-0.044,0.020,0.047,104.909,-0.986,1.025,0.136,1,1,3.285
1778532227663,0.057,1.296,-0.363,-0.039,0.019,0.050,104.453,-0.873,1.042,0.147,1,1,3.254
1778532227676,0.056,1.284,-0.356,-0.034,0.018,0.054,104.061,-0.905,1.038,0.182,1,1,4.007
1778532227691,0.058,1.274,-0.348,-0.029,0.017,0.055,103.668,-1.308,1.069,0.147,1,1,3.264
1778532227704,0.061,1.262,-0.342,-0.023,0.015,0.054,103.470,-1.931,1.039,0.137,1,1,3.267
1778532227717,0.063,1.252,-0.337,-0.018,0.013,0.049,103.366,-2.334,1.048,0.153,1,1,3.263
1778532227731,0.063,1.243,-0.331,-0.012,0.011,0.043,103.122,-2.364,1.069,0.192,1,1,3.266
1778532227744,0.064,1.236,-0.325,-0.004,0.010,0.035,102.821,-2.572,1.119,0.256,1,1,3.929
1778532227758,0.063,1.233,-0.318,0.005,0.009,0.026,102.431,-2.495,1.174,0.323,1,1,3.256
1778532227771,0.055,1.233,-0.314,0.017,0.009,0.021,102.201,-1.799,1.247,0.341,1,1,3.280
1778532227785,0.050,1.225,-0.310,0.031,0.007,0.022,102.178,-1.314,1.081,0.405,1,1,3.269
1778532227798,0.048,1.220,-0.306,0.047,0.006,0.023,102.054,-1.152,1.124,0.449,1,1,3.274
1778532227812,0.047,1.213,-0.303,0.062,0.005,0.024,102.122,-1.222,1.092,0.465,1,1,3.924
1778532227826,0.049,1.206,-0.301,0.077,0.005,0.023,102.235,-1.546,1.088,0.479,1,1,3.613
1778532227839,0.051,1.201,-0.299,0.093,0.005,0.021,102.325,-1.836,1.120,0.491,1,1,3.265
1778532227853,0.052,1.195,-0.297,0.108,0.005,0.016,102.493,-2.001,1.115,0.514,1,1,3.258
1778532227866,0.050,1.190,-0.297,0.123,0.005,0.012,102.712,-1.920,1.101,0.524,1,1,3.285
1778532227880,0.050,1.185,-0.296,0.139,0.005,0.008,102.893,-1.962,1.126,0.549,1,1,3.915
1778532227894,0.049,1.183,-0.296,0.154,0.005,0.005,103.017,-1.873,1.172,0.573,1,1,3.279
1778532227907,0.048,1.180,-0.296,0.171,0.005,0.002,103.234,-1.861,1.146,0.603,1,1,3.270
1778532227920,0.046,1.176,-0.297,0.188,0.005,0.000,103.508,-1.667,1.134,0.629,1,1,3.270
1778532227934,0.044,1.175,-0.297,0.206,0.005,-0.001,103.629,-1.560,1.197,0.666,1,1,3.274
1778532227947,0.047,1.178,-0.298,0.225,0.005,-0.003,103.661,-1.827,1.288,0.730,3,3,3.967
1778532227961,0.047,1.183,-0.298,0.247,0.004,-0.005,103.573,-1.892,1.329,0.826,3,3,3.270
1778532227975,0.043,1.189,-0.297,0.273,0.003,-0.005,103.416,-1.547,1.338,0.931,3,3,3.268
1778532227988,0.035,1.195,-0.295,0.302,0.003,-0.003,103.224,-0.816,1.356,1.055,3,3,3.293
1778532228001,0.030,1.202,-0.294,0.335,0.003,0.003,103.022,-0.391,1.388,1.209,3,3,3.269
1778532228015,0.032,1.212,-0.291,0.374,0.002,0.009,102.631,-0.627,1.456,1.397,3,3,4.010
1778532228029,0.038,1.225,-0.287,0.419,-0.000,0.016,102.172,-1.211,1.536,1.612,3,3,3.778
1778532228043,0.044,1.246,-0.281,0.473,-0.005,0.020,101.436,-1.641,1.712,1.885,3,3,3.272
1778532228056,0.061,1.273,-0.270,0.539,-0.013,0.022,100.449,-2.711,1.920,2.250,3,3,3.267
1778532228069,0.077,1.307,-0.256,0.611,-0.027,0.022,99.320,-3.598,2.086,2.529,3,3,3.257
1778532228083,0.090,1.356,-0.239,0.682,-0.040,0.015,98.135,-4.070,2.463,2.537,3,3,3.958
1778532228097,0.099,1.418,-0.234,0.749,-0.055,-0.001,97.606,-4.274,2.800,2.575,3,3,3.270
1778532228110,0.098,1.482,-0.243,0.814,-0.066,-0.029,97.723,-4.018,2.906,2.635,3,3,3.287
1778532228124,0.105,1.524,-0.261,0.877,-0.076,-0.061,98.394,-4.186,2.545,2.678,3,3,3.271
1778532228137,0.121,1.558,-0.262,0.937,-0.087,-0.090,98.299,-4.866,2.377,2.671,3,3,3.284
1778532228150,0.132,1.590,-0.250,0.995,-0.102,-0.110,97.449,-5.308,2.303,2.620,4,4,3.913
1778532228164,0.161,1.575,-0.230,1.051,-0.123,-0.107,95.833,-7.823,1.494,2.590,4,4,3.275
1778532228178,0.188,1.483,-0.180,1.105,-0.150,-0.091,83.832,-10.534,1.310,2.664,4,4,3.281
1778532228191,0.254,1.375,-0.146,1.112,-0.217,-0.056,70.236,-14.892,2.051,2.490,4,4,3.411
1778532228205,0.239,1.279,-0.115,1.044,-0.286,-0.020,58.312,-12.973,1.013,2.388,4,4,3.268
1778532228218,0.212,1.207,-0.075,0.933,-0.336,-0.011,50.357,-9.453,0.963,2.551,4,4,3.976
1778532228233,0.175,1.174,-0.040,0.807,-0.363,-0.012,48.584,-5.143,1.059,2.686,4,4,3.736
1778532228246,0.144,1.150,-0.007,0.684,-0.369,-0.011,47.954,-1.862,1.103,2.556,4,4,3.257
1778532228260,0.123,1.135,0.018,0.566,-0.359,-0.004,48.649,0.147,1.026,2.510,4,4,3.355
1778532228273,0.111,1.111,0.035,0.454,-0.338,0.006,49.286,1.268,0.731,2.473,4,4,3.262
1778532228286,0.106,1.079,0.050,0.345,-0.310,0.016,48.950,1.132,0.537,2.546,4,4,3.945
1778532228300,0.107,1.044,0.063,0.239,-0.281,0.026,47.953,-0.452,0.466,2.567,4,4,3.269
1778532228314,0.111,1.020,0.076,0.138,-0.251,0.041,48.452,-2.185,0.639,2.590,4,4,3.270
1778532228327,0.118,1.006,0.088,0.040,-0.223,0.061,49.911,-3.799,0.829,2.616,4,4,3.253
1778532228341,0.126,0.999,0.098,-0.055,-0.196,0.086,51.796,-5.136,0.948,2.651,4,4,3.270
1778532228354,0.132,0.999,0.105,-0.145,-0.171,0.115,53.993,-6.017,1.079,2.693,4,4,3.889
1778532228368,0.134,1.014,0.108,-0.233,-0.145,0.146,56.754,-6.165,1.360,2.727,4,4,3.266
1778532228381,0.132,1.043,0.104,-0.317,-0.116,0.177,59.826,-5.889,1.679,2.769,4,4,3.264
1778532228395,0.127,1.072,0.095,-0.398,-0.082,0.211,63.046,-5.327,1.715,2.836,4,4,3.266
1778532228408,0.125,1.093,0.087,-0.476,-0.047,0.246,65.879,-5.140,1.547,2.895,4,4,3.272
1778532228421,0.123,1.115,0.085,-0.551,-0.012,0.283,68.053,-4.931,1.603,2.927,5,5,3.930
1778532228436,0.123,1.149,0.086,-0.623,0.022,0.318,69.829,-4.838,1.887,2.933,5,5,3.637
1778532228449,0.131,1.197,0.081,-0.693,0.049,0.349,71.818,-5.098,2.277,2.855,5,5,3.266
1778532228463,0.141,1.253,0.061,-0.760,0.069,0.372,74.393,-5.369,2.521,2.741,5,5,3.259
1778532228476,0.158,1.315,0.020,-0.825,0.078,0.384,77.587,-5.906,2.866,2.619,5,5,3.272
1778532228489,0.187,1.387,-0.038,-0.887,0.073,0.386,81.021,-6.704,3.330,2.537,5,5,3.914
1778532228503,0.225,1.453,-0.114,-0.947,0.053,0.390,84.875,-7.671,3.571,2.589,5,5,3.340
1778532228518,0.254,1.496,-0.207,-1.000,0.018,0.419,89.409,-8.384,3.432,2.816,5,5,4.478
1778532228531,0.230,1.520,-0.304,-1.032,-0.019,0.475,94.238,-7.068,3.182,2.862,5,5,3.252
1778532228545,0.159,1.527,-0.411,-1.048,-0.040,0.524,99.383,-4.189,3.511,2.382,5,5,3.281
1778532228558,0.070,1.533,-0.528,-1.049,-0.035,0.522,104.369,-1.105,3.960,1.170,1,1,3.926
1778532228572,0.017,1.543,-0.645,-1.025,-0.014,0.477,108.824,0.647,3.841,0.937,1,1,3.270
1778532228586,0.007,1.547,-0.749,-0.980,-0.001,0.429,112.894,0.916,3.444,0.921,1,1,3.264
1778532228599,-0.021,1.469,-0.685,-0.870,0.022,0.330,100.483,4.664,1.000,3.060,1,1,3.600
1778532228613,-0.015,1.487,-0.553,-0.745,0.029,0.243,94.633,4.005,2.997,3.210,1,1,3.282
1778532228626,-0.041,1.471,-0.501,-0.625,0.040,0.190,91.355,5.985,1.420,2.791,5,5,3.882
1778532228640,-0.058,1.450,-0.507,-0.509,0.071,0.178,94.393,7.310,1.270,2.654,5,5,3.279
1778532228653,-0.042,1.433,-0.499,-0.397,0.078,0.169,95.600,5.219,1.149,2.517,5,5,3.256
1778532228667,-0.041,1.404,-0.498,-0.310,0.066,0.163,98.128,4.786,0.888,1.966,5,5,3.258
1778532228680,-0.044,1.379,-0.491,-0.240,0.067,0.160,99.425,4.925,0.909,1.593,5,5,3.264
1778532228695,-0.033,1.352,-0.485,-0.191,0.072,0.152,100.863,3.190,0.870,1.098,1,1,4.011
1778532228709,-0.025,1.335,-0.471,-0.155,0.070,0.141,100.698,2.101,0.980,0.785,1,1,3.263
1778532228722,-0.018,1.319,-0.458,-0.124,0.063,0.132,100.660,1.164,0.987,0.706,1,1,3.575
1778532228736,-0.012,1.301,-0.448,-0.100,0.057,0.121,100.971,0.284,0.949,0.538,1,1,3.265
1778532228749,-0.005,1.286,-0.436,-0.082,0.048,0.110,101.002,-0.475,0.986,0.487,1,1,3.257
1778532228762,-0.002,1.270,-0.428,-0.070,0.037,0.098,101.424,-0.863,0.951,0.397,1,1,3.942
1778532228776,0.003,1.260,-0.416,-0.059,0.027,0.086,101.134,-1.314,1.064,0.384,1,1,3.255
1778532228790,0.003,1.249,-0.406,-0.048,0.017,0.076,101.059,-1.268,1.029,0.400,1,1,3.262
1778532228803,0.004,1.239,-0.397,-0.038,0.008,0.067,101.035,-1.276,1.035,0.345,1,1,3.259
1778532228818,0.002,1.229,-0.389,-0.030,0.004,0.063,101.113,-0.914,1.030,0.219,1,1,3.306
1778532228831,-0.000,1.221,-0.379,-0.022,0.001,0.063,100.962,-0.585,1.054,0.196,1,1,3.923
1778532228846,0.002,1.210,-0.373,-0.015,0.000,0.063,101.193,-0.790,0.999,0.188,1,1,3.740
1778532228859,0.006,1.201,-0.367,-0.009,-0.001,0.062,101.403,-1.158,1.055,0.147,1,1,3.280
1778532228873,0.012,1.194,-0.361,-0.004,-0.002,0.057,101.436,-1.836,1.062,0.167,1,1,3.259
1778532228886,0.016,1.188,-0.353,0.002,-0.003,0.051,101.316,-2.154,1.085,0.194,1,1,3.281
1778532228899,0.019,1.182,-0.347,0.009,-0.003,0.043,101.277,-2.387,1.077,0.252,1,1,3.914
1778532228914,0.023,1.177,-0.340,0.018,-0.004,0.031,101.256,-2.742,1.086,0.356,1,1,3.350
1778532228927,0.023,1.172,-0.335,0.027,-0.005,0.020,101.325,-2.564,1.085,0.379,1,1,3.257
1778532228943,0.018,1.176,-0.329,0.039,-0.005,0.010,101.033,-1.919,1.283,0.442,1,1,3.279
1778532228956,0.018,1.177,-0.322,0.054,-0.005,0.008,100.805,-1.805,1.206,0.448,1,1,3.256
1778532228969,0.016,1.173,-0.317,0.070,-0.005,0.007,100.780,-1.516,1.117,0.487,1,1,3.951
1778532228986,0.014,1.169,-0.314,0.086,-0.004,0.007,100.932,-1.278,1.095,0.516,1,1,3.280
1778532228999,0.015,1.166,-0.311,0.103,-0.002,0.006,101.137,-1.271,1.130,0.535,1,1,3.252
1778532229014,0.017,1.162,-0.309,0.120,-0.001,0.005,101.367,-1.460,1.113,0.553,1,1,4.521
1778532229027,0.016,1.158,-0.307,0.136,0.000,0.004,101.668,-1.272,1.102,0.570,1,1,3.256
1778532229041,0.016,1.154,-0.307,0.153,0.002,0.003,102.014,-1.249,1.117,0.594,1,1,3.935
1778532229055,0.016,1.152,-0.306,0.170,0.002,0.002,102.256,-1.273,1.140,0.618,1,1,3.258
1778532229068,0.017,1.150,-0.306,0.188,0.003,0.001,102.574,-1.343,1.150,0.652,1,1,3.265
1778532229082,0.016,1.148,-0.306,0.206,0.003,-0.000,102.886,-1.084,1.142,0.675,1,1,3.256
1778532229095,0.012,1.146,-0.307,0.225,0.004,0.001,103.140,-0.664,1.158,0.720,1,1,3.576
1778532229109,0.009,1.147,-0.307,0.246,0.005,0.003,103.335,-0.349,1.204,0.778,1,1,3.914
1778532229123,0.007,1.149,-0.307,0.269,0.007,0.007,103.438,-0.152,1.227,0.869,1,1,3.554
1778532229136,0.005,1.152,-0.307,0.294,0.008,0.012,103.525,0.034,1.263,0.956,1,1,3.287
1778532229150,0.006,1.159,-0.307,0.322,0.008,0.018,103.475,-0.137,1.337,1.070,1,1,3.263
1778532229163,0.006,1.166,-0.306,0.354,0.008,0.024,103.383,-0.084,1.369,1.198,1,1,3.279
1778532229176,0.008,1.176,-0.305,0.391,0.007,0.031,103.195,-0.270,1.408,1.358,3,3,3.915
1778532229191,0.015,1.189,-0.302,0.433,0.004,0.036,102.826,-0.913,1.519,1.559,3,3,3.281
1778532229204,0.023,1.211,-0.298,0.484,-0.001,0.041,102.218,-1.412,1.707,1.808,3,3,3.344
1778532229217,0.035,1.243,-0.288,0.546,-0.007,0.043,101.290,-2.124,1.960,2.165,3,3,3.271
1778532229234,0.050,1.287,-0.275,0.618,-0.017,0.043,100.187,-2.840,2.281,2.517,3,3,6.299
1778532229247,0.046,1.342,-0.264,0.688,-0.029,0.040,99.255,-2.447,2.551,2.523,3,3,3.929
1778532229262,0.024,1.405,-0.270,0.756,-0.031,0.025,99.152,-1.361,2.844,2.531,3,3,3.277
1778532229276,0.016,1.456,-0.281,0.820,-0.027,0.003,99.387,-0.908,2.638,2.564,3,3,3.253
1778532229291,0.022,1.487,-0.279,0.883,-0.024,-0.025,99.065,-1.186,2.176,2.614,3,3,5.060
1778532229304,0.035,1.509,-0.265,0.943,-0.026,-0.056,98.121,-1.917,2.008,2.647,3,3,3.254
1778532229318,0.056,1.503,-0.258,1.000,-0.030,-0.078,97.761,-3.737,1.478,2.582,4,4,4.007
1778532229333,0.089,1.447,-0.236,1.056,-0.041,-0.069,92.590,-9.758,0.874,2.527,4,4,3.271
1778532229346,0.159,1.324,-0.158,1.101,-0.072,-0.028,79.836,-12.547,2.679,2.647,4,4,3.272
1778532229359,0.206,1.209,-0.152,1.082,-0.144,0.001,63.526,-15.510,1.790,2.232,4,4,3.268
1778532229373,0.200,1.118,-0.112,0.995,-0.219,0.020,52.856,-14.366,1.164,2.577,4,4,3.257
1778532229386,0.174,1.066,-0.079,0.876,-0.278,0.014,47.265,-10.069,0.766,2.852,4,4,3.962
1778532229400,0.140,1.032,-0.048,0.751,-0.316,0.001,45.069,-5.116,0.909,2.841,4,4,3.266
1778532229414,0.108,1.006,-0.023,0.630,-0.333,-0.010,44.560,-0.844,0.907,2.640,4,4,3.286
1778532229427,0.085,0.989,-0.005,0.514,-0.332,-0.016,45.805,2.098,0.847,2.526,4,4,3.257
1778532229440,0.074,0.974,0.008,0.402,-0.318,-0.016,47.708,3.203,0.716,2.502,4,4,3.281
1778532229454,0.073,0.958,0.017,0.294,-0.294,-0.012,49.847,2.555,0.652,2.523,4,4,3.924
1778532229468,0.077,0.937,0.024,0.191,-0.265,-0.003,51.887,0.478,0.525,2.559,4,4,3.271
1778532229481,0.083,0.912,0.028,0.091,-0.234,0.008,53.664,-2.362,0.455,2.588,4,4,3.274
1778532229494,0.091,0.894,0.034,-0.005,-0.200,0.019,55.529,-4.589,0.591,2.607,4,4,3.272
1778532229508,0.103,0.889,0.040,-0.098,-0.167,0.031,57.577,-6.523,0.878,2.615,4,4,3.288
1778532229521,0.117,0.894,0.045,-0.187,-0.136,0.046,59.868,-8.061,1.091,2.626,4,4,3.876
1778532229535,0.130,0.902,0.046,-0.273,-0.108,0.069,62.358,-9.264,1.164,2.664,4,4,3.280
1778532229549,0.141,0.916,0.045,-0.356,-0.082,0.098,64.919,-10.006,1.268,2.707,4,4,3.266
1778532229562,0.150,0.939,0.042,-0.435,-0.059,0.133,67.368,-10.404,1.491,2.760,4,4,3.730
1778532229576,0.162,0.974,0.036,-0.512,-0.044,0.175,69.831,-10.684,1.797,2.832,4,4,3.256
1778532229589,0.167,1.011,0.028,-0.586,-0.036,0.222,72.181,-10.506,1.847,2.892,5,5,3.897
1778532229603,0.162,1.057,0.019,-0.657,-0.031,0.269,74.343,-9.606,2.060,2.904,5,5,3.281
1778532229617,0.150,1.103,0.004,-0.725,-0.026,0.307,76.643,-8.417,2.141,2.824,5,5,3.288
1778532229630,0.143,1.147,-0.016,-0.791,-0.021,0.332,79.070,-7.596,2.167,2.688,5,5,3.289
1778532229643,0.154,1.202,-0.045,-0.854,-0.022,0.344,81.624,-7.718,2.526,2.587,5,5,3.266
1778532229657,0.186,1.267,-0.087,-0.915,-0.036,0.356,84.392,-8.617,2.996,2.617,5,5,4.012
1778532229671,0.219,1.333,-0.142,-0.974,-0.067,0.380,87.354,-9.416,3.232,2.837,5,5,3.265
1778532229684,0.226,1.383,-0.206,-1.026,-0.106,0.418,90.744,-9.209,2.978,2.968,5,5,3.276
1778532229698,0.192,1.420,-0.278,-1.058,-0.139,0.459,94.479,-7.323,2.950,2.625,5,5,3.269
1778532229711,0.122,1.445,-0.360,-1.068,-0.153,0.489,98.530,-4.170,3.257,1.907,5,5,3.265
1778532229724,0.047,1.446,-0.449,-1.066,-0.144,0.493,103.262,-0.960,3.219,1.171,5,5,3.947
1778532229738,-0.002,1.446,-0.539,-1.050,-0.124,0.481,107.749,1.057,3.091,0.786,5,5,3.265
1778532229752,-0.023,1.450,-0.626,-1.018,-0.110,0.463,111.641,1.841,2.987,0.308,5,5,3.278
1778532229766,-0.040,1.456,-0.698,-0.969,-0.106,0.430,114.813,2.471,2.800,0.519,5,5,3.812
1778532229779,-0.036,1.217,-0.760,-0.963,-0.079,0.351,92.658,2.165,4.535,1.968,5,5,3.287
1778532229793,0.006,1.227,-0.628,-0.849,-0.086,0.254,86.916,0.168,2.845,3.103,5,5,3.922
1778532229807,0.008,1.224,-0.572,-0.725,-0.094,0.176,84.453,-0.067,1.338,3.134,5,5,3.274
1778532229820,-0.025,1.222,-0.566,-0.605,-0.096,0.139,86.945,2.866,1.455,2.634,5,5,3.280
1778532229833,-0.026,1.223,-0.544,-0.490,-0.082,0.120,87.504,2.796,1.244,2.546,5,5,3.265
1778532229847,-0.021,1.211,-0.534,-0.386,-0.085,0.103,89.545,2.042,1.003,2.353,5,5,3.292
1778532229860,-0.024,1.192,-0.528,-0.304,-0.083,0.091,92.093,2.492,0.876,1.839,1,1,3.918
1778532229874,-0.027,1.176,-0.520,-0.238,-0.073,0.081,94.061,2.751,0.903,1.483,1,1,3.277
1778532229888,-0.022,1.160,-0.513,-0.191,-0.063,0.071,95.958,1.947,0.897,1.059,1,1,3.269
1778532229901,-0.018,1.150,-0.502,-0.157,-0.060,0.062,96.830,1.398,0.971,0.753,1,1,3.268
1778532229914,-0.014,1.144,-0.486,-0.128,-0.060,0.052,96.895,0.862,1.027,0.652,1,1,3.271
1778532229928,-0.012,1.137,-0.471,-0.105,-0.059,0.043,97.079,0.580,0.992,0.538,1,1,3.899
1778532229942,-0.009,1.131,-0.457,-0.085,-0.059,0.034,97.273,0.256,0.999,0.491,1,1,3.284
1778532229955,-0.008,1.117,-0.452,-0.072,-0.062,0.028,98.648,0.096,0.880,0.314,1,1,3.256
1778532229969,-0.007,1.118,-0.436,-0.058,-0.064,0.024,98.303,0.032,1.142,0.331,1,1,3.794
1778532229982,-0.009,1.110,-0.430,-0.048,-0.064,0.023,99.123,0.365,0.986,0.240,1,1,3.258
1778532229996,-0.009,1.105,-0.420,-0.038,-0.062,0.026,99.327,0.394,1.022,0.225,1,1,3.906
1778532230010,-0.009,1.102,-0.410,-0.030,-0.058,0.029,99.472,0.372,1.039,0.229,1,1,3.260
1778532230023,-0.007,1.096,-0.403,-0.024,-0.054,0.033,99.979,0.133,0.997,0.188,1,1,3.266
1778532230037,-0.005,1.093,-0.395,-0.020,-0.050,0.037,100.096,-0.098,1.069,0.184,1,1,3.276
1778532230050,-0.001,1.092,-0.386,-0.015,-0.046,0.041,100.152,-0.494,1.078,0.168,1,1,3.257
1778532230063,0.003,1.090,-0.378,-0.011,-0.043,0.040,100.188,-0.859,1.076,0.120,1,1,4.086
1778532230077,0.003,1.091,-0.369,-0.005,-0.038,0.036,100.053,-0.797,1.115,0.185,1,1,3.264
1778532230091,0.007,1.090,-0.361,0.003,-0.033,0.031,100.119,-1.275,1.101,0.248,1,1,3.263
1778532230104,0.011,1.087,-0.356,0.011,-0.029,0.025,100.404,-1.636,1.055,0.272,1,1,3.264
1778532230118,0.014,1.085,-0.351,0.019,-0.026,0.019,100.604,-1.900,1.064,0.278,1,1,3.263
1778532230131,0.017,1.084,-0.346,0.028,-0.024,0.018,100.790,-2.096,1.086,0.255,1,1,3.930
1778532230145,0.016,1.082,-0.341,0.037,-0.023,0.020,100.975,-1.859,1.066,0.292,1,1,3.260
1778532230158,0.014,1.078,-0.336,0.047,-0.022,0.023,101.220,-1.603,1.033,0.303,1,1,3.274
1778532230172,0.015,1.075,-0.333,0.056,-0.021,0.027,101.495,-1.558,1.034,0.311,1,1,3.698
1778532230186,0.018,1.072,-0.329,0.064,-0.020,0.030,101.752,-1.896,1.049,0.313,1,1,3.271
1778532230199,0.021,1.069,-0.326,0.073,-0.019,0.031,102.008,-2.172,1.031,0.302,1,1,3.939
1778532230213,0.024,1.066,-0.324,0.081,-0.019,0.032,102.301,-2.412,1.036,0.295,1,1,3.275
1778532230226,0.027,1.063,-0.322,0.089,-0.019,0.032,102.657,-2.631,1.051,0.291,1,1,3.267
1778532230240,0.028,1.060,-0.320,0.096,-0.019,0.031,102.981,-2.647,1.029,0.280,1,1,3.267
1778532230255,0.027,1.056,-0.319,0.102,-0.019,0.031,103.350,-2.505,1.011,0.271,1,1,3.280
1778532230268,0.029,1.052,-0.319,0.108,-0.018,0.032,103.727,-2.599,1.016,0.266,1,1,3.924
1778532230282,0.029,1.047,-0.318,0.113,-0.018,0.032,104.213,-2.511,0.985,0.253,1,1,3.289
1778532230295,0.029,1.042,-0.319,0.117,-0.017,0.034,104.702,-2.485,0.995,0.233,1,1,3.257
1778532230309,0.032,1.038,-0.319,0.121,-0.017,0.035,105.033,-2.704,1.012,0.215,1,1,3.275
1778532230322,0.036,1.034,-0.319,0.124,-0.017,0.034,105.433,-3.090,1.011,0.200,1,1,3.279
1778532230337,0.039,1.030,-0.320,0.126,-0.018,0.032,105.802,-3.476,1.004,0.184,1,1,4.005
1778532230351,0.042,1.026,-0.321,0.127,-0.019,0.029,106.190,-3.739,1.003,0.180,1,1,3.270
1778532230365,0.045,1.021,-0.321,0.128,-0.020,0.026,106.590,-3.878,0.977,0.169,1,1,3.580
1778532230378,0.045,1.017,-0.322,0.128,-0.022,0.022,106.961,-3.870,0.991,0.158,1,1,3.301
1778532230392,0.050,1.014,-0.323,0.127,-0.024,0.017,107.192,-4.247,1.024,0.168,1,1,3.264
1778532230405,0.054,1.015,-0.324,0.126,-0.026,0.011,107.293,-4.559,1.086,0.204,1,1,3.961
1778532230419,0.058,1.016,-0.324,0.127,-0.029,0.004,107.328,-4.906,1.107,0.253,1,1,3.260
1778532230432,0.060,1.015,-0.325,0.128,-0.033,-0.004,107.509,-4.996,1.066,0.291,1,1,3.277
1778532230446,0.061,1.014,-0.327,0.129,-0.037,-0.012,107.744,-4.957,1.042,0.319,1,1,3.270
1778532230462,0.062,1.010,-0.328,0.129,-0.042,-0.022,108.042,-4.886,0.996,0.341,1,1,3.282
1778532230475,0.062,1.006,-0.329,0.129,-0.046,-0.032,108.374,-4.749,0.980,0.353,4,4,3.923
1778532230489,0.063,1.001,-0.331,0.128,-0.052,-0.042,108.728,-4.842,0.986,0.375,4,4,3.591
1778532230503,0.067,1.001,-0.332,0.126,-0.058,-0.053,108.826,-5.141,1.058,0.420,4,4,3.272
1778532230516,0.070,1.000,-0.333,0.125,-0.066,-0.064,108.938,-5.354,1.069,0.449,4,4,3.255
1778532230529,0.071,1.002,-0.334,0.126,-0.076,-0.072,108.931,-5.298,1.109,0.457,4,4,3.281
1778532230543,0.078,1.006,-0.335,0.128,-0.090,-0.075,108.868,-5.906,1.159,0.504,3,3,3.922
1778532230557,0.092,1.010,-0.336,0.131,-0.110,-0.072,108.784,-7.088,1.215,0.666,3,3,3.288
1778532230570,0.110,1.013,-0.337,0.137,-0.137,-0.063,108.695,-8.668,1.254,0.925,3,3,3.275
1778532230586,0.129,1.014,-0.337,0.145,-0.176,-0.048,108.617,-10.448,1.213,1.265,3,3,3.271
1778532230599,0.149,1.011,-0.336,0.152,-0.222,-0.030,108.613,-12.350,1.150,1.523,3,3,3.263
1778532230613,0.167,1.008,-0.334,0.157,-0.276,-0.009,108.445,-13.936,1.144,1.795,4,4,4.359
1778532230627,0.176,1.017,-0.328,0.163,-0.334,0.011,107.638,-14.247,1.274,1.946,4,4,3.286
1778532230641,0.184,1.026,-0.323,0.172,-0.396,0.030,106.870,-14.451,1.296,2.096,4,4,3.263
1778532230654,0.190,1.032,-0.317,0.182,-0.460,0.052,106.099,-14.461,1.219,2.251,4,4,3.292
1778532230667,0.186,1.036,-0.310,0.192,-0.524,0.075,105.335,-13.593,1.145,2.330,4,4,3.265
1778532230681,0.170,1.042,-0.303,0.204,-0.583,0.097,104.593,-11.496,1.185,2.288,4,4,4.222
1778532230695,0.161,1.044,-0.297,0.216,-0.640,0.118,104.067,-10.251,1.114,2.283,4,4,3.266
1778532230710,0.155,1.045,-0.292,0.228,-0.696,0.141,103.601,-9.298,1.086,2.338,4,4,3.265
1778532230723,0.148,1.044,-0.286,0.240,-0.751,0.165,103.108,-8.420,1.034,2.387,4,4,3.261
1778532230737,0.139,1.041,-0.281,0.251,-0.804,0.188,102.803,-7.360,0.986,2.364,4,4,3.713
1778532230751,0.132,1.038,-0.277,0.260,-0.854,0.211,102.677,-6.458,0.977,2.357,4,4,3.930
1778532230765,0.127,1.030,-0.273,0.268,-0.903,0.234,102.649,-6.006,0.895,2.377,4,4,3.259
1778532230778,0.124,1.022,-0.270,0.273,-0.951,0.256,102.736,-5.728,0.872,2.384,4,4,3.292
1778532230791,0.122,1.014,-0.269,0.275,-0.999,0.281,103.113,-5.759,0.866,2.453,4,4,3.260
1778532230805,0.118,1.006,-0.268,0.274,-1.046,0.305,103.328,-5.404,0.870,2.446,4,4,3.274
1778532230818,0.115,0.997,-0.266,0.271,-1.092,0.329,103.631,-5.182,0.838,2.491,5,5,3.911
1778532230835,0.110,0.991,-0.264,0.264,-1.136,0.353,103.608,-4.713,0.887,2.490,5,5,3.272
1778532230848,0.104,0.986,-0.262,0.255,-1.178,0.376,103.635,-4.030,0.911,2.462,5,5,3.268
1778532230861,0.100,0.985,-0.259,0.245,-1.218,0.398,103.456,-3.802,0.975,2.469,5,5,3.259
1778532230878,0.097,0.986,-0.254,0.234,-1.258,0.421,103.003,-3.615,1.029,2.498,5,5,3.271
1778532230892,0.095,0.988,-0.250,0.223,-1.297,0.441,102.550,-3.509,1.040,2.499,5,5,3.930
1778532230906,0.090,0.990,-0.243,0.213,-1.333,0.459,101.879,-3.065,1.030,2.454,5,5,3.989
1778532230920,0.084,0.993,-0.238,0.203,-1.367,0.474,101.361,-2.489,1.066,2.396,5,5,3.256
1778532230933,0.081,0.995,-0.232,0.193,-1.399,0.486,100.892,-2.391,1.046,2.386,5,5,3.275
1778532230946,0.079,0.998,-0.227,0.184,-1.431,0.500,100.431,-2.380,1.081,2.428,5,5,3.269
1778532230960,0.077,1.002,-0.221,0.175,-1.464,0.513,99.924,-2.287,1.075,2.464,5,5,4.016
1778532230974,0.072,1.003,-0.215,0.167,-1.495,0.526,99.379,-1.890,1.030,2.464,5,5,3.271
1778532230988,0.063,1.004,-0.209,0.158,-1.524,0.537,98.888,-0.991,1.048,2.408,5,5,3.347
1778532231002,0.053,1.003,-0.202,0.148,-1.549,0.547,98.337,-0.001,0.985,2.359,5,5,3.270
1778532231015,0.042,1.002,-0.197,0.139,-1.571,0.555,97.963,1.065,1.017,2.268,5,5,3.618
1778532231029,0.028,1.001,-0.192,0.128,-1.588,0.559,97.702,2.481,1.028,2.146,5,5,3.944
1778532231043,0.013,1.000,-0.187,0.117,-1.601,0.563,97.446,3.944,1.030,2.041,5,5,3.259
1778532231056,-0.007,0.998,-0.184,0.105,-1.607,0.563,97.361,5.968,1.062,1.875,5,5,3.278
1778532231070,-0.028,0.994,-0.182,0.092,-1.607,0.560,97.548,8.035,1.039,1.679,5,5,3.268
1778532231083,-0.048,0.990,-0.183,0.078,-1.599,0.554,97.963,9.887,1.039,1.501,5,5,3.268
1778532231096,-0.065,0.988,-0.183,0.064,-1.587,0.547,98.310,11.297,1.053,1.348,5,5,3.911
1778532231111,-0.082,0.986,-0.184,0.049,-1.568,0.538,98.734,12.645,1.065,1.171,5,5,3.633
1778532231124,-0.100,0.983,-0.187,0.034,-1.544,0.527,99.255,14.040,1.077,1.010,5,5,3.276
1778532231137,-0.117,0.981,-0.189,0.019,-1.514,0.514,99.729,15.210,1.082,0.853,5,5,3.263
1778532231151,-0.132,0.980,-0.192,0.004,-1.479,0.501,100.236,16.139,1.080,0.710,5,5,3.288
1778532231164,-0.146,0.980,-0.194,-0.011,-1.440,0.486,100.612,16.915,1.113,0.583,5,5,3.910
1778532231178,-0.160,0.980,-0.197,-0.026,-1.396,0.470,100.978,17.687,1.116,0.471,5,5,3.279
1778532231192,-0.173,0.980,-0.200,-0.040,-1.347,0.455,101.395,18.277,1.114,0.416,5,5,3.278
1778532231207,-0.175,0.981,-0.203,-0.053,-1.298,0.444,101.770,17.694,1.055,0.424,5,5,3.258
1778532231220,-0.172,0.983,-0.206,-0.065,-1.250,0.436,102.085,16.532,1.072,0.457,5,5,3.271
1778532231233,-0.166,0.987,-0.208,-0.077,-1.205,0.429,102.177,15.116,1.114,0.457,1,1,3.931
1778532231247,-0.157,0.991,-0.211,-0.088,-1.161,0.421,102.340,13.520,1.093,0.432,1,1,3.281
1778532231261,-0.146,0.996,-0.212,-0.098,-1.119,0.409,102.312,11.728,1.145,0.374,1,1,3.261
1778532231274,-0.134,1.001,-0.213,-0.106,-1.078,0.393,102.253,10.005,1.142,0.324,1,1,3.271
1778532231287,-0.125,1.006,-0.213,-0.113,-1.040,0.374,102.165,8.731,1.128,0.307,1,1,3.261
1778532231301,-0.118,1.009,-0.213,-0.118,-1.002,0.355,102.077,7.790,1.116,0.290,1,1,3.988
1778532231315,-0.115,1.013,-0.213,-0.121,-0.966,0.336,101.942,7.258,1.111,0.261,1,1,3.264
1778532231328,-0.118,1.013,-0.214,-0.121,-0.931,0.324,102.006,7.501,1.064,0.122,1,1,3.266
1778532231342,-0.116,1.014,-0.214,-0.120,-0.897,0.315,101.968,7.116,1.058,0.127,1,1,3.275
1778532231355,-0.113,1.016,-0.213,-0.118,-0.864,0.308,101.904,6.684,1.067,0.129,1,1,3.255
1778532231368,-0.109,1.017,-0.213,-0.116,-0.833,0.301,101.851,6.192,1.063,0.134,1,1,3.969
1778532231383,-0.104,1.018,-0.213,-0.113,-0.802,0.294,101.774,5.608,1.058,0.120,1,1,3.289
1778532231396,-0.099,1.018,-0.212,-0.109,-0.772,0.286,101.726,5.038,1.053,0.093,1,1,3.276
1778532231409,-0.094,1.018,-0.212,-0.105,-0.744,0.278,101.743,4.409,1.034,0.061,1,1,3.265
1778532231423,-0.089,1.017,-0.212,-0.102,-0.717,0.269,101.771,3.933,1.021,0.038,1,1,3.273
1778532231436,-0.086,1.016,-0.213,-0.098,-0.691,0.260,101.855,3.581,1.013,0.032,1,1,3.924
1778532231450,-0.082,1.015,-0.213,-0.095,-0.666,0.252,101.928,3.312,1.016,0.031,1,1,3.259
1778532231463,-0.080,1.014,-0.214,-0.091,-0.641,0.244,102.002,3.094,1.012,0.042,1,1,3.287
1778532231477,-0.077,1.013,-0.214,-0.089,-0.618,0.237,101.995,2.929,1.012,0.052,1,1,3.265
1778532231490,-0.074,1.012,-0.214,-0.086,-0.595,0.230,102.053,2.734,1.017,0.063,1,1,3.278
