timestamp,ax,ay,az,gx,gy,gz,roll,pitch_k,acc_norm,gyro_norm,classe_prevista_raw,classe_prevista,delay_ms
1777578119286,-0.00927734,0.932373,-0.486084,-0.00137405,-0.00687023,0.0129771,111.938,0.481448,1.05151,0.0147476,0,0,3.269
1777578119299,-0.015,0.931,-0.491,0.001,-0.017,-0.012,114.816,0.655,1.053,0.020,0,0,3.263
1777578119313,-0.025,0.932,-0.494,-0.005,-0.022,-0.034,115.842,0.880,1.055,0.040,0,0,3.258
1777578119326,-0.030,0.946,-0.486,-0.001,-0.025,-0.050,116.176,1.060,1.063,0.056,0,0,3.236
1777578119340,-0.039,0.934,-0.483,0.001,-0.027,-0.060,116.416,1.272,1.052,0.066,0,0,3.237
1777578119353,-0.040,0.945,-0.449,-0.005,-0.034,-0.084,116.246,1.427,1.047,0.091,0,0,3.236
1777578119368,-0.062,0.930,-0.484,0.003,-0.027,-0.068,116.431,1.712,1.050,0.073,0,0,5.348
1777578119382,-0.079,0.938,-0.485,0.003,-0.024,-0.050,116.552,2.039,1.059,0.055,0,0,3.218
1777578119395,-0.091,0.939,-0.487,0.008,-0.015,-0.019,116.650,2.369,1.062,0.026,0,0,3.727
1777578119409,-0.100,0.919,-0.491,0.009,-0.008,0.008,116.804,2.698,1.047,0.015,0,0,3.225
1777578119422,-0.104,0.926,-0.491,0.007,0.003,0.035,116.913,2.984,1.053,0.036,0,0,3.230
1777578119435,-0.087,0.911,-0.494,0.003,0.010,0.052,117.054,3.147,1.040,0.053,0,0,3.227
1777578119450,-0.060,0.927,-0.486,0.002,0.011,0.058,117.107,3.160,1.048,0.059,0,0,4.335
1777578119463,-0.042,0.926,-0.490,0.003,0.009,0.051,117.169,3.091,1.049,0.052,0,0,3.222
1777578119476,-0.015,0.927,-0.498,0.003,0.001,0.028,117.248,2.919,1.053,0.029,0,0,3.220
1777578119490,-0.010,0.933,-0.491,0.006,-0.009,-0.007,117.286,2.751,1.055,0.013,0,0,3.395
1777578119504,-0.028,0.924,-0.495,0.006,-0.016,-0.039,117.345,2.667,1.048,0.043,0,0,3.339
1777578119518,-0.041,0.917,-0.488,0.004,-0.020,-0.054,117.390,2.640,1.040,0.057,0,0,3.850
1777578119532,-0.045,0.927,-0.486,0.001,-0.024,-0.066,117.407,2.628,1.047,0.070,0,0,3.231
1777578119545,-0.074,0.924,-0.487,-0.003,-0.020,-0.061,117.430,2.715,1.047,0.064,0,0,3.231
1777578119558,-0.074,0.935,-0.494,-0.003,-0.019,-0.051,117.455,2.793,1.060,0.054,0,0,3.231
1777578119572,-0.083,0.944,-0.500,-0.002,-0.015,-0.038,117.481,2.891,1.071,0.041,0,0,3.226
1777578119586,-0.084,0.938,-0.495,0.001,-0.011,-0.020,117.499,2.984,1.064,0.023,0,0,4.381
1777578119600,-0.079,0.938,-0.493,0.006,-0.006,-0.003,117.513,3.056,1.062,0.009,0,0,3.366
1777578119614,-0.075,0.929,-0.500,0.004,-0.005,0.005,117.556,3.112,1.057,0.008,0,0,3.929
1777578119627,-0.067,0.930,-0.492,-0.001,-0.005,0.013,117.573,3.141,1.055,0.014,0,0,3.231
1777578119640,-0.049,0.944,-0.479,0.004,-0.009,0.004,117.537,3.116,1.059,0.011,0,0,3.217
1777578119654,-0.034,0.940,-0.487,0.011,-0.018,-0.018,117.530,3.050,1.059,0.028,0,0,3.233
1777578119667,-0.045,0.926,-0.491,0.016,-0.021,-0.033,117.551,3.020,1.049,0.043,0,0,3.219
1777578119681,-0.045,0.932,-0.488,0.022,-0.026,-0.046,117.556,2.992,1.053,0.057,2,2,4.061
1777578119694,-0.046,0.928,-0.490,0.022,-0.031,-0.062,117.570,2.968,1.051,0.073,2,2,3.225
1777578119708,-0.045,0.929,-0.492,0.027,-0.035,-0.074,117.586,2.941,1.052,0.086,2,2,3.677
1777578119721,-0.056,0.929,-0.497,0.031,-0.040,-0.084,117.614,2.947,1.056,0.098,2,2,3.229
1777578119735,-0.080,0.913,-0.488,0.026,-0.037,-0.078,117.638,3.017,1.038,0.091,2,2,3.223
1777578119748,-0.083,0.908,-0.500,0.019,-0.033,-0.070,117.696,3.091,1.040,0.080,4,4,3.706
1777578119762,-0.064,0.924,-0.504,0.009,-0.035,-0.068,117.740,3.109,1.055,0.077,4,4,3.227
1777578119775,-0.047,0.943,-0.498,0.004,-0.045,-0.069,117.744,3.080,1.068,0.083,4,4,3.250
1777578119789,0.032,0.959,-0.508,0.013,-0.093,-0.046,117.752,2.856,1.085,0.105,4,4,3.233
1777578119802,0.302,0.977,-0.534,0.038,-0.289,0.067,117.793,2.017,1.154,0.299,4,4,3.601
1777578119816,0.583,0.980,-0.591,0.077,-0.681,0.349,117.946,0.674,1.284,0.768,4,4,3.698
1777578119830,0.737,1.001,-0.639,0.124,-1.252,0.677,118.158,-0.822,1.398,1.429,4,4,3.241
1777578119843,0.600,0.954,-0.675,0.211,-1.785,0.965,118.485,-2.032,1.314,2.040,4,4,3.235
1777578119856,0.264,0.949,-0.698,0.280,-2.142,1.073,118.843,-2.517,1.207,2.412,4,4,3.223
1777578119871,-0.143,0.943,-0.667,0.376,-2.211,0.941,119.135,-2.080,1.163,2.432,4,4,4.272
1777578119884,-0.351,0.791,-0.642,0.369,-2.050,0.773,119.585,-1.123,1.078,2.222,4,4,3.686
1777578119898,-0.433,0.762,-0.562,0.322,-1.729,0.658,119.894,0.038,1.042,1.878,4,4,3.756
1777578119912,-0.294,0.778,-0.371,0.226,-1.391,0.613,119.697,0.886,0.910,1.537,4,4,3.233
1777578119926,-0.212,0.709,-0.172,0.084,-1.108,0.542,118.975,1.575,0.760,1.236,4,4,4.080
1777578119939,-0.237,0.797,0.059,-0.095,-0.883,0.372,117.486,2.246,0.834,0.963,4,4,3.233
1777578119953,-0.599,1.183,0.170,-0.262,-0.619,0.102,115.889,3.337,1.337,0.679,4,4,3.719
1777578119966,-1.254,1.675,-0.298,0.067,0.035,-0.133,115.183,4.814,2.114,0.153,4,4,3.246
1777578119980,-0.336,0.816,-0.578,0.095,-0.006,0.052,115.634,5.429,1.055,0.108,4,4,3.228
1777578119993,-0.191,0.886,-0.529,-0.001,0.039,0.200,115.865,5.653,1.050,0.204,4,4,3.231
1777578120006,-0.025,1.033,-0.471,0.026,0.031,0.173,115.804,5.458,1.136,0.178,4,4,3.226
1777578120021,-0.017,0.963,-0.496,0.047,0.034,0.139,115.868,5.256,1.083,0.151,4,4,4.646
1777578120034,-0.000,0.943,-0.496,0.047,0.023,0.094,115.951,5.024,1.066,0.107,4,4,3.231
1777578120048,0.044,0.930,-0.490,0.053,0.008,0.022,116.031,4.695,1.052,0.058,4,4,3.222
1777578120061,-0.010,0.876,-0.534,0.023,-0.016,-0.024,116.268,4.512,1.026,0.037,4,4,3.237
1777578120074,-0.028,0.896,-0.504,-0.007,-0.027,-0.047,116.405,4.381,1.029,0.055,4,4,3.223
1777578120088,-0.024,0.912,-0.523,-0.019,-0.043,-0.079,116.556,4.245,1.051,0.092,1,1,3.780
1777578120102,-0.048,0.940,-0.485,-0.012,-0.055,-0.096,116.589,4.171,1.059,0.111,1,1,3.232
1777578120116,-0.102,0.929,-0.504,-0.009,-0.044,-0.082,116.672,4.231,1.062,0.094,1,1,4.354
1777578120129,-0.172,0.917,-0.509,-0.008,-0.019,-0.034,116.775,4.456,1.063,0.040,1,1,3.235
1777578120143,-0.154,0.911,-0.509,-0.017,0.012,0.029,116.880,4.628,1.055,0.036,1,1,3.225
1777578120156,-0.115,0.918,-0.501,-0.015,0.033,0.065,116.956,4.699,1.052,0.075,1,1,3.718
1777578120170,-0.117,0.928,-0.491,0.001,0.042,0.099,116.998,4.773,1.056,0.108,1,1,3.229
1777578120183,-0.069,0.921,-0.501,0.008,0.042,0.105,117.066,4.729,1.051,0.113,1,1,3.240
1777578120197,-0.054,0.900,-0.511,0.017,0.032,0.103,117.176,4.654,1.036,0.109,1,1,3.234
1777578120211,-0.008,0.917,-0.519,0.017,0.014,0.064,117.279,4.469,1.053,0.067,1,1,4.348
1777578120224,0.007,0.946,-0.503,0.014,-0.003,0.016,117.310,4.256,1.071,0.022,1,1,3.718
1777578120238,-0.004,0.968,-0.516,0.018,-0.016,-0.030,117.342,4.078,1.096,0.039,1,1,3.227
1777578120251,-0.083,0.963,-0.517,0.018,-0.009,-0.034,117.381,4.091,1.096,0.040,1,1,3.245
1777578120265,-0.123,0.956,-0.513,0.015,0.012,0.009,117.419,4.194,1.092,0.021,1,1,3.232
1777578120278,-0.129,0.973,-0.499,0.019,0.035,0.067,117.406,4.306,1.101,0.078,1,1,3.240
1777578120291,-0.096,0.970,-0.495,0.028,0.055,0.096,117.391,4.338,1.093,0.114,1,1,3.711
1777578120306,-0.044,0.957,-0.516,0.038,0.059,0.090,117.432,4.250,1.088,0.114,1,1,4.410
1777578120320,-0.046,0.946,-0.502,0.043,0.053,0.078,117.456,4.173,1.072,0.103,1,1,3.237
1777578120333,-0.019,0.940,-0.507,0.048,0.042,0.063,117.494,4.035,1.068,0.090,1,1,3.224
1777578120346,-0.028,0.923,-0.509,0.051,0.031,0.041,117.554,3.925,1.054,0.072,1,1,3.238
1777578120360,-0.025,0.911,-0.508,0.045,0.022,0.016,117.624,3.814,1.044,0.053,1,1,3.702
1777578120374,-0.016,0.927,-0.496,0.055,0.003,-0.016,117.646,3.686,1.052,0.057,1,1,3.237
1777578120387,-0.017,0.929,-0.512,0.053,-0.007,-0.046,117.700,3.564,1.061,0.070,1,1,3.239
1777578120402,-0.059,0.895,-0.532,0.054,-0.008,-0.060,117.832,3.549,1.043,0.081,1,1,4.701
1777578120415,-0.068,0.893,-0.518,0.060,-0.017,-0.049,117.932,3.559,1.035,0.079,1,1,3.232
1777578120429,-0.064,0.906,-0.523,0.066,-0.025,-0.044,118.023,3.557,1.048,0.083,2,2,3.703
1777578120443,-0.053,0.888,-0.527,0.063,-0.028,-0.032,118.139,3.531,1.034,0.076,2,2,3.245
1777578120456,-0.095,0.896,-0.528,0.070,-0.030,-0.006,118.242,3.606,1.044,0.076,2,2,3.234
1777578120469,-0.067,0.913,-0.526,0.074,-0.033,0.014,118.317,3.608,1.055,0.082,2,2,3.264
1777578120483,-0.032,0.975,-0.509,0.104,-0.051,0.010,118.284,3.524,1.100,0.116,2,2,3.244
1777578120497,-0.062,0.938,-0.525,0.132,-0.061,0.027,118.325,3.514,1.077,0.148,4,4,4.928
1777578120511,-0.023,0.966,-0.523,0.162,-0.077,0.045,118.330,3.414,1.099,0.185,4,4,3.236
1777578120524,-0.070,0.969,-0.539,0.179,-0.090,0.095,118.363,3.422,1.112,0.222,4,4,3.233
1777578120538,-0.031,1.078,-0.522,0.218,-0.097,0.174,118.252,3.336,1.198,0.295,4,4,3.236
1777578120551,-0.119,1.171,-0.658,0.235,-0.079,0.150,118.300,3.412,1.348,0.290,4,4,3.222
1777578120565,-0.028,1.171,-0.550,0.490,-0.019,0.187,118.163,3.317,1.294,0.525,4,4,3.722
1777578120579,-0.110,1.267,-0.529,0.558,0.014,0.193,117.923,3.372,1.377,0.590,4,4,3.232
1777578120593,-0.126,1.439,-0.547,0.746,0.054,0.200,117.612,3.430,1.544,0.774,4,4,4.515
1777578120607,-0.104,1.463,-0.525,0.982,0.093,0.171,117.267,3.446,1.558,1.001,4,4,3.243
1777578120620,-0.114,1.705,-0.527,1.223,0.120,0.119,116.826,3.455,1.788,1.235,4,4,3.239
1777578120633,-0.130,1.587,-0.472,1.497,0.117,0.178,116.377,3.499,1.661,1.512,4,4,3.713
1777578120647,-0.243,1.539,-0.492,1.732,0.123,0.248,115.999,3.720,1.634,1.754,4,4,3.225
1777578120661,-0.206,1.648,-0.414,2.023,0.144,0.327,115.478,3.859,1.711,2.054,4,4,3.246
1777578120674,-0.096,1.853,-0.379,2.379,0.169,0.288,114.870,3.817,1.894,2.402,4,4,3.232
1777578120688,0.077,2.091,-0.277,2.501,0.160,0.221,114.112,3.558,2.111,2.516,4,4,3.226
1777578120701,0.196,2.165,-0.343,2.501,0.101,0.111,113.451,3.179,2.200,2.506,4,4,3.702
1777578120715,-0.063,2.514,-0.452,2.501,0.162,0.084,112.872,3.102,2.555,2.508,4,4,3.223
1777578120728,-0.361,2.676,-0.649,2.501,0.323,-0.047,112.467,3.293,2.777,2.523,4,4,3.252
1777578120742,-0.036,2.656,-0.731,2.501,0.386,0.003,112.158,3.182,2.755,2.531,4,4,3.230
1777578120755,-0.314,2.675,-0.797,2.501,0.443,-0.287,111.915,3.324,2.809,2.556,4,4,3.265
1777578120768,-0.104,2.422,-0.479,2.501,0.525,-0.415,111.446,3.284,2.471,2.589,4,4,3.698
1777578120782,0.174,2.961,0.300,2.501,0.569,0.108,110.255,2.994,2.981,2.568,4,4,3.225
1777578120795,0.642,-1.268,1.898,2.501,0.582,0.135,103.958,2.176,2.371,2.572,4,4,3.244
1777578120809,0.587,-1.817,-0.181,1.003,0.078,0.180,95.226,1.301,1.918,1.022,4,4,3.224
1777578120822,0.081,0.002,0.169,-0.612,0.224,-0.254,91.094,0.123,0.188,0.699,4,4,3.313
1777578120836,0.271,0.991,0.584,-1.490,0.100,-0.535,89.711,-0.461,1.182,1.586,4,4,3.731
1777578120850,0.019,1.325,0.391,-1.514,0.054,-0.408,89.005,-0.475,1.382,1.569,4,4,4.110
1777578120864,0.137,0.589,0.385,-1.712,-0.066,-0.146,87.597,-0.937,0.717,1.720,4,4,3.226
1777578120877,0.150,0.190,0.353,-2.232,-0.212,-0.053,85.004,-1.792,0.428,2.243,4,4,3.225
1777578120890,0.103,0.215,0.447,-2.501,-0.362,-0.145,82.411,-2.228,0.507,2.532,4,4,3.241
1777578120904,0.053,0.429,0.494,-2.501,-0.487,-0.306,80.600,-2.333,0.657,2.567,4,4,3.691
1777578120917,0.029,0.637,0.415,-2.501,-0.569,-0.397,79.565,-2.325,0.761,2.596,4,4,3.227
1777578120931,0.011,0.764,0.242,-2.501,-0.579,-0.409,79.253,-2.257,0.801,2.600,4,4,3.229
1777578120944,-0.056,0.895,0.080,-2.501,-0.513,-0.368,79.499,-2.004,0.901,2.580,4,4,3.218
1777578120957,-0.131,0.955,-0.062,-2.501,-0.372,-0.335,80.122,-1.576,0.966,2.551,4,4,3.234
1777578120971,-0.128,1.126,-0.217,-2.501,-0.183,-0.373,81.030,-1.229,1.154,2.536,4,4,3.688
1777578120988,-0.048,1.291,-0.443,-2.501,0.053,-0.461,82.251,-1.087,1.366,2.544,4,4,7.121
1777578121002,0.096,1.481,-0.677,-2.501,0.187,-0.396,83.664,-1.187,1.631,2.539,4,4,3.289
1777578121015,0.186,1.679,-0.928,-2.501,0.267,-0.247,85.207,-1.377,1.927,2.528,4,4,3.317
1777578121029,0.221,1.762,-1.210,-2.501,0.319,-0.170,86.924,-1.575,2.149,2.527,4,4,3.227
1777578121042,0.227,1.766,-1.582,-2.501,0.324,-0.104,88.889,-1.745,2.382,2.524,5,5,3.735
1777578121056,0.212,1.832,-1.923,-2.501,0.276,-0.035,90.966,-1.869,2.664,2.517,5,5,3.227
1777578121069,0.219,1.863,-2.191,-2.501,0.130,0.032,93.094,-1.977,2.884,2.505,5,5,3.243
1777578121083,0.064,1.752,-2.319,-2.501,0.004,0.077,95.274,-1.946,2.907,2.503,5,5,3.678
1777578121096,-0.084,1.512,-2.420,-2.373,-0.048,0.074,97.579,-1.787,2.855,2.375,5,5,3.234
1777578121110,-0.040,1.247,-2.580,-1.920,-0.064,-0.135,100.055,-1.674,2.866,1.926,1,1,4.419
1777578121124,0.145,1.019,-2.650,-1.394,-0.073,-0.448,102.632,-1.728,2.843,1.466,1,1,3.239
1777578121138,0.216,0.665,-2.842,-0.942,-0.139,-0.180,105.439,-1.837,2.926,0.969,1,1,3.225
1777578121151,0.252,0.618,-2.894,-0.457,-0.192,0.267,108.173,-1.970,2.970,0.563,1,1,3.245
1777578121164,0.197,0.752,-2.849,0.159,-0.281,0.424,110.668,-2.051,2.953,0.533,1,1,3.226
1777578121177,0.077,0.824,-2.673,0.759,-0.328,0.147,112.950,-2.030,2.798,0.840,1,1,3.708
1777578121191,0.035,4.000,-3.173,1.945,-0.450,-1.926,113.627,-1.959,5.106,2.774,1,1,3.227
1777578121205,0.969,3.460,1.531,2.501,-0.376,-0.995,111.550,-2.501,3.906,2.718,1,1,3.223
1777578121218,-1.083,1.383,0.500,2.501,0.423,-0.671,109.737,-0.801,1.826,2.624,1,1,3.227
1777578121231,-0.243,0.928,-0.317,2.501,0.633,-0.642,109.698,-0.157,1.011,2.659,1,1,3.229
1777578121244,-0.357,0.782,-0.638,2.468,0.877,-0.364,110.552,0.702,1.071,2.644,1,1,3.741
1777578121258,0.453,-0.540,-1.765,1.540,0.204,-0.145,98.589,0.068,1.901,1.560,1,1,3.228
1777578121272,-0.296,-0.099,-1.046,0.912,0.030,-0.223,86.641,0.753,1.092,0.939,1,1,3.223
1777578121285,-0.317,0.639,-0.851,0.490,-0.045,-0.083,89.110,1.446,1.111,0.499,1,1,3.222
1777578121298,-0.229,1.004,-0.561,0.268,-0.058,0.011,90.426,1.876,1.173,0.274,1,1,3.221
1777578121311,-0.398,0.881,-0.609,0.182,0.113,0.276,91.923,2.685,1.142,0.350,1,1,3.723
1777578121325,-0.117,1.012,-0.522,0.140,0.173,0.277,93.032,2.824,1.145,0.355,1,1,3.245
1777578121339,0.097,0.958,-0.528,0.132,0.133,0.168,94.161,2.479,1.099,0.252,1,1,3.611
1777578121352,0.049,0.942,-0.504,0.119,0.075,0.080,95.211,2.256,1.070,0.162,1,1,3.243
1777578121366,-0.035,0.905,-0.510,0.102,0.042,0.034,96.267,2.242,1.039,0.116,1,1,3.223
1777578121379,-0.087,0.914,-0.519,0.088,0.023,0.036,97.287,2.352,1.054,0.098,1,1,3.713
1777578121393,-0.100,0.937,-0.495,0.082,0.037,0.070,98.187,2.486,1.064,0.114,1,1,3.231
1777578121406,-0.074,0.926,-0.521,0.073,0.043,0.062,99.112,2.552,1.065,0.105,1,1,3.225
1777578121419,-0.036,0.936,-0.508,0.074,0.031,0.055,99.960,2.524,1.066,0.097,1,1,3.233
1777578121433,-0.064,0.919,-0.497,0.064,0.027,0.021,100.766,2.568,1.047,0.073,1,1,3.227
1777578121446,-0.012,0.844,-0.540,0.032,0.016,-0.012,101.721,2.485,1.002,0.038,1,1,3.725
1777578121460,-0.000,0.996,-0.458,0.061,-0.004,-0.036,102.287,2.378,1.096,0.071,1,1,3.226
1777578121473,0.013,1.098,-0.491,0.101,-0.021,-0.046,102.803,2.246,1.203,0.113,1,1,3.229
1777578121486,0.052,1.368,-0.570,0.196,-0.040,-0.096,103.233,2.059,1.483,0.222,1,1,3.227
1777578121500,-0.191,1.091,-0.502,0.360,-0.024,0.042,103.735,2.364,1.216,0.363,1,1,3.252
1777578121513,-0.021,0.962,-0.528,0.371,-0.035,0.044,104.391,2.309,1.098,0.375,1,1,3.714
1777578121527,-0.005,0.958,-0.556,0.386,-0.046,0.047,105.079,2.219,1.108,0.392,1,1,3.227
1777578121540,-0.046,0.954,-0.574,0.414,-0.053,0.067,105.777,2.226,1.114,0.423,1,1,3.237
1777578121554,0.006,1.056,-0.571,0.463,-0.065,0.064,106.330,2.117,1.200,0.472,1,1,3.233
1777578121567,-0.037,1.050,-0.585,0.529,-0.056,-0.039,106.888,2.102,1.203,0.534,1,1,3.222
1777578121580,-0.072,1.079,-0.568,0.593,-0.050,-0.086,107.363,2.157,1.221,0.601,1,1,3.692
1777578121594,-0.140,0.984,-0.611,0.636,-0.035,-0.068,107.996,2.365,1.167,0.641,1,1,3.225
1777578121607,-0.197,1.045,-0.585,0.690,-0.010,-0.033,108.488,2.670,1.214,0.690,1,1,3.228
1777578121621,-0.291,1.010,-0.599,0.744,0.034,0.048,109.021,3.161,1.210,0.747,1,1,3.225
1777578121634,-0.284,1.106,-0.608,0.825,0.106,0.105,109.447,3.577,1.294,0.839,1,1,3.234
1777578121647,-0.216,1.200,-0.607,0.939,0.139,0.160,109.771,3.819,1.362,0.963,1,1,3.701
1777578121661,-0.280,1.260,-0.600,1.083,0.167,0.212,110.019,4.148,1.423,1.116,1,1,3.231
1777578121674,-0.269,1.306,-0.595,1.245,0.199,0.269,110.215,4.430,1.461,1.290,1,1,3.228
1777578121688,-0.069,1.403,-0.585,1.438,0.184,0.259,110.322,4.350,1.522,1.472,1,1,3.227
1777578121701,0.086,1.625,-0.560,1.702,0.136,0.207,110.265,4.034,1.721,1.720,1,1,3.219
1777578121714,0.130,1.709,-0.520,2.018,0.092,0.102,110.118,3.676,1.791,2.023,4,4,3.693
1777578121728,0.205,1.994,-0.476,2.443,0.041,-0.090,109.826,3.265,2.060,2.445,4,4,3.227
1777578121741,0.439,2.202,-0.407,2.501,-0.081,-0.274,109.416,2.637,2.282,2.518,4,4,3.238
1777578121755,0.334,2.473,-0.390,2.501,-0.203,-0.411,108.959,2.189,2.525,2.543,4,4,3.230
1777578121768,0.193,2.765,-0.631,2.501,-0.247,-0.511,108.692,1.923,2.842,2.565,4,4,3.230
1777578121781,0.227,2.703,-0.675,2.501,-0.218,-0.488,108.488,1.635,2.795,2.558,4,4,3.698
1777578121795,-0.036,2.765,-0.809,2.501,-0.215,-0.431,108.393,1.595,2.882,2.547,4,4,3.227
1777578121808,0.060,2.440,-0.867,2.501,-0.160,-0.682,108.444,1.467,2.591,2.598,4,4,3.239
1777578121822,0.474,2.185,-0.628,2.501,-0.294,0.039,108.338,0.888,2.322,2.519,4,4,3.227
1777578121835,0.124,1.541,1.137,2.501,-0.360,0.681,105.944,0.687,1.919,2.617,4,4,3.606
1777578121849,0.393,-1.696,1.095,2.357,-0.556,1.176,98.811,0.175,2.057,2.692,4,4,3.762
1777578121863,-0.112,0.459,-1.118,0.468,-0.464,1.394,101.386,0.399,1.214,1.542,4,4,3.240
1777578121876,-0.353,0.167,-0.029,-0.524,-0.031,0.538,101.315,3.194,0.391,0.752,4,4,3.237
1777578121889,-0.549,0.875,-0.123,-0.934,0.265,-0.191,101.170,4.448,1.040,0.989,4,4,3.239
1777578121903,-0.774,0.848,-0.047,-0.981,0.705,-0.501,100.819,6.106,1.149,1.307,4,4,3.233
1777578121916,-0.453,0.536,0.091,-1.107,0.974,-0.700,99.925,7.580,0.707,1.633,4,4,3.693
1777578121930,-0.235,0.359,0.127,-1.347,1.057,-0.769,98.637,8.634,0.448,1.878,4,4,3.230
1777578121943,-0.044,0.057,0.239,-1.800,0.973,-0.583,94.910,8.701,0.249,2.127,4,4,3.240
1777578121956,0.124,0.041,0.330,-2.377,0.733,-0.278,91.072,7.426,0.355,2.503,4,4,3.226
1777578121970,0.234,0.214,0.352,-2.501,0.404,-0.046,88.455,5.808,0.474,2.534,4,4,3.223
1777578121983,0.177,0.387,0.325,-2.501,0.114,0.135,86.773,4.713,0.536,2.508,4,4,3.694
1777578121997,0.025,0.482,0.269,-2.501,-0.066,0.257,85.641,4.394,0.552,2.515,4,4,3.229
1777578122010,-0.051,0.607,0.186,-2.501,-0.141,0.194,85.087,4.401,0.637,2.513,4,4,3.268
1777578122023,-0.064,0.745,0.074,-2.501,-0.201,0.012,85.053,4.422,0.752,2.509,4,4,3.234
1777578122037,-0.058,0.791,-0.073,-2.501,-0.236,-0.114,85.499,4.412,0.796,2.515,4,4,3.253
1777578122050,-0.018,0.925,-0.248,-2.501,-0.265,-0.076,86.353,4.266,0.958,2.517,5,5,3.708
1777578122064,0.016,1.094,-0.455,-2.501,-0.278,0.121,87.499,4.045,1.185,2.520,5,5,3.228
1777578122077,-0.065,1.300,-0.667,-2.501,-0.253,0.429,88.797,3.980,1.463,2.550,5,5,3.233
1777578122091,-0.239,1.530,-1.030,-2.501,-0.153,0.647,90.334,4.129,1.859,2.588,5,5,3.222
1777578122104,-0.395,1.586,-1.346,-2.501,0.029,0.546,92.082,4.418,2.118,2.561,5,5,3.225
1777578122117,-0.467,1.687,-1.721,-2.501,0.235,0.103,93.984,4.704,2.454,2.515,5,5,3.698
1777578122131,-0.424,1.863,-2.167,-2.501,0.359,-0.397,95.966,4.867,2.889,2.558,5,5,3.227
1777578122144,-0.292,1.903,-2.523,-2.501,0.304,-0.592,98.022,4.885,3.174,2.588,5,5,3.245
1777578122158,0.075,1.800,-2.734,-2.501,0.117,-0.714,100.148,4.614,3.274,2.604,5,5,3.221
1777578122172,0.511,1.570,-3.025,-2.500,-0.273,-0.800,102.440,4.039,3.446,2.639,5,5,4.570
1777578122186,0.629,1.270,-3.331,-1.731,-0.606,-0.626,104.919,3.425,3.620,1.938,1,1,3.711
1777578122199,0.082,0.932,-3.468,-0.895,-0.551,-0.029,107.545,3.218,3.592,1.051,1,1,3.228
1777578122214,-0.412,0.548,-3.417,-0.054,-0.176,0.578,110.315,3.374,3.485,0.607,1,1,3.249
1777578122227,-0.708,2.195,-3.073,2.501,0.126,-0.498,111.808,3.690,3.842,2.553,1,1,3.215
1777578122241,-0.387,-0.716,-0.664,2.501,0.444,-0.118,101.109,4.475,1.050,2.543,1,1,3.491
1777578122254,0.382,1.343,0.069,2.501,0.167,-0.146,100.495,3.587,1.398,2.511,5,5,3.707
1777578122268,0.068,0.782,-0.724,2.501,0.066,-0.337,101.907,3.270,1.068,2.525,5,5,3.217
1777578122281,-0.205,-0.820,-2.280,1.788,0.241,-0.325,90.443,3.338,2.432,1.834,5,5,3.227
1777578122294,0.278,0.389,-1.107,1.098,-0.006,-0.603,93.513,2.609,1.206,1.253,5,5,3.214
1777578122308,-0.214,0.630,-0.991,0.534,-0.296,-0.417,95.876,2.945,1.194,0.740,5,5,3.223
1777578122321,-0.398,0.945,-0.555,0.315,-0.178,-0.163,96.950,3.689,1.165,0.397,1,1,3.690
1777578122335,-0.415,0.704,-0.646,0.211,-0.026,0.048,98.505,4.555,1.042,0.218,1,1,3.221
1777578122348,-0.153,0.847,-0.571,0.086,0.017,0.073,99.619,4.728,1.033,0.114,1,1,3.243
1777578122361,-0.329,0.913,-0.576,0.031,0.126,0.228,100.609,5.262,1.128,0.263,1,1,3.306
1777578122375,-0.110,0.979,-0.543,0.007,0.163,0.261,101.414,5.277,1.126,0.308,1,1,3.337
1777578122388,-0.016,0.970,-0.508,0.028,0.128,0.197,102.123,5.083,1.095,0.236,1,1,3.725
1777578122402,-0.007,0.930,-0.534,0.041,0.084,0.112,102.899,4.877,1.072,0.145,1,1,3.221
1777578122415,-0.069,0.942,-0.510,0.050,0.048,0.077,103.579,4.826,1.073,0.104,1,1,3.237
1777578122429,-0.013,0.925,-0.511,0.061,0.008,0.028,104.250,4.645,1.057,0.067,1,1,3.214
1777578122442,-0.089,0.910,-0.533,0.061,-0.018,0.008,104.955,4.653,1.059,0.064,1,1,3.382
1777578122455,-0.100,0.929,-0.517,0.065,-0.027,0.003,105.573,4.684,1.068,0.070,1,1,3.694
1777578122469,-0.144,0.926,-0.525,0.074,-0.028,0.018,106.184,4.815,1.074,0.081,1,1,3.227
1777578122482,-0.078,0.929,-0.520,0.087,-0.037,0.002,106.755,4.787,1.068,0.094,1,1,3.236
1777578122496,-0.072,0.928,-0.531,0.096,-0.048,-0.014,107.324,4.747,1.072,0.108,1,1,3.213
1777578122509,-0.078,0.915,-0.511,0.100,-0.055,-0.031,107.842,4.725,1.051,0.118,1,1,3.229
1777578122524,-0.129,0.896,-0.518,0.100,-0.048,-0.025,108.375,4.830,1.043,0.113,1,1,5.130
1777578122538,-0.048,0.968,-0.500,0.092,-0.035,-0.048,108.766,4.730,1.090,0.110,1,1,3.235
1777578122551,-0.112,1.049,-0.495,0.107,-0.034,-0.072,109.050,4.764,1.166,0.133,1,1,3.245
1777578122564,0.031,1.001,-0.536,0.123,-0.039,-0.146,109.450,4.486,1.136,0.195,1,1,3.214
1777578122577,-0.069,0.855,-0.560,0.154,-0.052,-0.223,110.051,4.459,1.024,0.276,1,1,3.243
1777578122591,-0.107,0.933,-0.537,0.189,-0.056,-0.201,110.483,4.513,1.082,0.281,1,1,3.692
1777578122605,-0.167,1.074,-0.558,0.229,-0.062,-0.031,110.788,4.659,1.222,0.240,1,1,3.230
1777578122618,-0.276,1.060,-0.563,0.408,0.004,0.028,111.103,5.022,1.231,0.409,1,1,3.233
1777578122631,-0.147,1.045,-0.581,0.410,0.004,0.101,111.452,5.109,1.205,0.422,1,1,3.222
1777578122645,-0.265,1.017,-0.570,0.478,0.039,0.121,111.793,5.445,1.196,0.494,1,1,3.459
1777578122658,-0.296,1.052,-0.595,0.506,0.085,0.162,112.130,5.809,1.244,0.538,1,1,3.707
1777578122672,-0.254,1.214,-0.580,0.616,0.158,0.171,112.278,6.022,1.369,0.658,1,1,3.241
1777578122685,-0.147,1.289,-0.570,0.743,0.172,0.197,112.347,6.020,1.417,0.787,1,1,3.247
1777578122699,-0.154,1.384,-0.526,0.934,0.177,0.208,112.281,6.016,1.488,0.973,1,1,3.219
1777578122712,-0.180,1.308,-0.565,1.085,0.208,0.220,112.328,6.067,1.436,1.127,1,1,3.225
1777578122725,-0.294,1.445,-0.587,1.273,0.225,0.264,112.319,6.269,1.587,1.320,4,4,3.684
1777578122739,-0.033,1.433,-0.527,1.512,0.215,0.234,112.225,6.049,1.527,1.545,4,4,3.219
1777578122752,0.050,1.576,-0.522,1.759,0.140,0.173,112.055,5.710,1.661,1.773,4,4,3.240
1777578122766,0.066,1.790,-0.481,2.076,0.079,0.103,111.748,5.370,1.854,2.080,4,4,3.217
1777578122779,0.210,2.005,-0.409,2.501,0.030,-0.073,111.301,4.878,2.057,2.503,4,4,3.221
1777578122792,0.391,2.227,-0.316,2.501,-0.052,-0.275,110.723,4.234,2.283,2.517,4,4,3.685
1777578122806,0.555,2.422,-0.298,2.501,-0.222,-0.429,110.123,3.489,2.502,2.547,4,4,3.213
1777578122819,0.349,3.062,-0.493,2.501,-0.309,-0.435,109.644,3.056,3.121,2.558,4,4,3.227
1777578122832,0.076,2.930,-0.806,2.501,-0.314,-0.298,109.457,2.859,3.040,2.538,4,4,3.215
1777578122846,0.170,2.631,-1.038,2.501,-0.354,-0.091,109.547,2.584,2.833,2.528,4,4,3.496
1777578122859,-0.025,2.321,-1.397,2.501,-0.316,-0.001,110.051,2.494,2.709,2.521,4,4,3.693
1777578122873,0.416,1.659,-0.585,2.501,-0.532,0.309,110.023,1.803,1.808,2.576,4,4,3.336
1777578122887,0.279,1.504,1.138,2.501,-0.721,0.334,107.523,1.356,1.906,2.625,4,4,3.333
1777578122900,0.444,-3.540,-0.914,2.465,-0.450,-0.162,98.252,0.994,3.683,2.511,4,4,3.232
1777578122913,-0.733,0.097,-0.318,0.264,0.062,0.040,101.087,3.821,0.805,0.274,4,4,3.218
1777578122927,-0.387,0.671,-0.106,-0.469,0.577,-0.538,100.993,4.952,0.782,0.917,4,4,3.723
1777578122941,-0.440,0.858,0.082,-0.699,0.913,-0.915,100.275,5.919,0.968,1.470,4,4,3.220
1777578122954,-0.348,0.660,0.185,-0.747,1.218,-0.919,99.142,6.836,0.769,1.699,4,4,3.235
1777578122967,-0.147,0.297,0.275,-0.963,1.349,-0.617,96.870,7.410,0.431,1.769,4,4,3.220
1777578122980,-0.009,0.053,0.371,-1.343,1.305,-0.275,92.988,7.143,0.375,1.892,4,4,3.217
1777578122994,0.156,-0.101,0.457,-1.877,1.076,-0.147,88.376,6.026,0.493,2.169,4,4,3.713
1777578123008,0.214,-0.007,0.469,-2.428,0.683,-0.250,84.476,4.692,0.516,2.534,4,4,3.221
1777578123021,0.186,0.189,0.438,-2.501,0.290,-0.352,81.800,3.554,0.512,2.543,4,4,3.229
1777578123034,0.126,0.365,0.364,-2.501,-0.034,-0.310,80.195,2.798,0.531,2.521,4,4,3.222
1777578123048,0.103,0.436,0.271,-2.501,-0.291,-0.187,79.232,2.179,0.523,2.525,4,4,3.447
1777578123061,0.113,0.553,0.187,-2.501,-0.492,-0.095,78.888,1.603,0.595,2.551,4,4,3.730
1777578123075,0.102,0.736,0.057,-2.501,-0.646,-0.045,79.179,1.189,0.745,2.584,4,4,3.225
1777578123088,-0.048,0.812,-0.001,-2.501,-0.731,-0.063,79.656,1.284,0.814,2.607,4,4,3.222
1777578123101,-0.041,0.704,-0.206,-2.501,-0.698,0.202,80.821,1.367,0.734,2.605,4,4,3.217
1777578123115,-0.175,0.905,-0.373,-2.501,-0.550,0.333,82.202,1.749,0.994,2.583,4,4,3.225
1777578123128,-0.217,1.276,-0.608,-2.501,-0.340,0.442,83.658,2.055,1.430,2.563,5,5,3.701
1777578123142,-0.321,1.643,-1.015,-2.501,-0.085,0.555,85.322,2.378,1.958,2.564,5,5,3.370
1777578123155,-0.326,1.794,-1.446,-2.501,0.149,0.560,87.226,2.627,2.327,2.568,5,5,3.222
1777578123169,-0.288,1.817,-1.823,-2.501,0.304,0.451,89.319,2.791,2.591,2.560,5,5,3.226
1777578123182,-0.233,2.041,-2.317,-2.501,0.305,0.381,91.475,2.857,3.096,2.548,5,5,3.212
1777578123196,-0.299,2.063,-2.639,-2.501,0.251,0.288,93.684,2.955,3.364,2.530,5,5,4.180
1777578123210,-0.085,1.765,-2.747,-2.501,0.186,-0.100,96.028,2.892,3.266,2.510,5,5,3.228
1777578123223,0.475,1.550,-2.957,-2.501,-0.032,-0.811,98.491,2.411,3.372,2.630,5,5,3.228
1777578123236,0.777,1.235,-3.091,-1.933,-0.248,-1.111,101.103,1.731,3.418,2.243,5,5,3.227
1777578123249,0.313,0.760,-3.224,-1.219,-0.239,-0.093,103.973,1.419,3.327,1.245,5,5,3.239
1777578123263,-1.671,-0.162,-4.000,0.514,0.212,-0.314,91.656,2.348,4.338,0.639,1,1,3.694
1777578123277,-0.897,1.677,-3.864,2.501,-0.075,-0.827,94.493,2.771,4.307,2.636,1,1,3.223
1777578123290,-0.674,1.012,-0.528,2.501,0.512,-0.080,95.501,3.987,1.326,2.555,1,1,3.212
1777578123303,0.578,1.501,0.209,2.501,-0.295,-0.383,94.914,2.900,1.622,2.548,1,1,3.246
1777578123317,-0.225,0.674,-1.057,2.501,-0.171,-0.568,97.213,3.218,1.273,2.571,1,1,3.216
1777578123330,0.107,-0.697,-2.126,1.833,-0.056,-0.527,85.884,2.958,2.240,1.908,1,1,3.700
1777578123344,-0.059,0.698,-0.752,1.106,-0.234,-0.645,88.125,2.972,1.028,1.302,1,1,3.226
1777578123357,0.180,-0.488,-1.102,0.399,-0.384,-0.449,77.445,2.471,1.218,0.713,1,1,3.223
1777578123370,-0.493,0.624,-0.693,0.358,-0.073,-0.043,80.093,3.581,1.055,0.368,1,1,3.229
1777578123386,-0.215,0.864,-0.558,0.220,-0.024,0.082,81.963,3.941,1.051,0.236,1,1,3.259
1777578123403,-0.295,0.762,-0.618,0.048,0.127,0.272,84.024,4.499,1.024,0.304,1,1,7.977
1777578123417,-0.133,0.908,-0.529,0.016,0.199,0.313,85.606,4.619,1.059,0.371,1,1,3.235
1777578123430,0.025,0.990,-0.489,0.057,0.153,0.228,86.948,4.361,1.104,0.281,1,1,3.227
1777578123444,0.000,0.906,-0.547,0.061,0.113,0.140,88.443,4.169,1.059,0.190,1,1,3.254
1777578123457,-0.041,0.902,-0.536,0.051,0.082,0.098,89.854,4.083,1.050,0.138,1,1,3.227
1777578123474,-0.071,0.914,-0.518,0.042,0.063,0.064,91.151,4.074,1.053,0.099,1,1,7.222
1777578123488,-0.062,0.925,-0.510,0.040,0.051,0.039,92.363,4.042,1.058,0.076,1,1,3.238
1777578123501,-0.138,0.939,-0.523,0.043,0.050,0.040,93.534,4.185,1.083,0.077,1,1,3.226
1777578123515,-0.133,0.937,-0.518,0.044,0.069,0.061,94.645,4.312,1.078,0.102,1,1,3.281
1777578123528,-0.094,0.904,-0.534,0.031,0.082,0.073,95.779,4.346,1.054,0.114,1,1,3.235
1777578123541,-0.042,0.916,-0.528,0.032,0.070,0.057,96.836,4.256,1.058,0.096,1,1,3.711
1777578123555,-0.061,0.926,-0.501,0.032,0.054,0.024,97.779,4.215,1.054,0.067,1,1,3.258
1777578123568,-0.093,0.890,-0.518,0.005,0.029,0.027,98.760,4.257,1.034,0.040,1,1,3.233
1777578123583,-0.047,0.922,-0.532,-0.022,-0.006,0.026,99.688,4.183,1.066,0.035,1,1,4.292
1777578123596,-0.035,0.876,-0.527,0.037,-0.034,0.023,100.620,4.086,1.023,0.055,1,1,3.226
1777578123610,-0.025,0.865,-0.531,0.065,-0.068,0.008,101.535,3.969,1.015,0.095,1,1,3.703
1777578123623,0.112,1.041,-0.535,0.118,-0.110,-0.099,102.220,3.556,1.175,0.190,1,1,3.235
1777578123637,-0.105,0.979,-0.524,0.229,-0.146,-0.112,102.917,3.636,1.116,0.294,1,1,3.225
1777578123651,-0.075,1.032,-0.532,0.295,-0.155,-0.118,103.545,3.638,1.164,0.353,1,1,4.144
1777578123664,-0.017,0.948,-0.532,0.360,-0.157,-0.077,104.235,3.518,1.088,0.400,1,1,3.238
1777578123678,-0.061,0.965,-0.571,0.390,-0.147,-0.054,104.950,3.500,1.123,0.421,1,1,3.704
1777578123691,-0.190,1.010,-0.573,0.436,-0.116,0.001,105.590,3.753,1.177,0.451,1,1,3.235
1777578123705,-0.236,0.942,-0.584,0.458,-0.066,0.021,106.298,4.114,1.133,0.464,1,1,3.224
1777578123718,-0.385,0.995,-0.592,0.476,0.005,0.080,106.931,4.738,1.220,0.483,1,1,3.255
1777578123731,-0.405,1.119,-0.622,0.521,0.108,0.137,107.461,5.298,1.343,0.550,1,1,3.230
1777578123745,-0.262,1.284,-0.589,0.645,0.165,0.168,107.775,5.527,1.437,0.686,1,1,3.699
1777578123759,-0.310,1.476,-0.586,0.818,0.237,0.204,107.945,5.768,1.618,0.876,1,1,3.369
1777578123772,-0.146,1.458,-0.585,1.048,0.283,0.203,108.117,5.748,1.578,1.105,1,1,3.234
1777578123785,-0.192,1.495,-0.574,1.241,0.286,0.239,108.243,5.797,1.613,1.296,1,1,3.235
1777578123799,-0.136,1.512,-0.550,1.486,0.284,0.251,108.319,5.754,1.615,1.534,1,1,3.233
1777578123812,-0.067,1.492,-0.522,1.718,0.209,0.250,108.361,5.608,1.582,1.748,4,4,3.694
1777578123826,-0.043,1.726,-0.480,2.030,0.182,0.242,108.238,5.423,1.792,2.052,4,4,3.244
1777578123839,0.086,1.973,-0.385,2.455,0.172,0.140,107.923,5.079,2.012,2.465,4,4,3.232
1777578123852,0.182,1.997,-0.369,2.501,0.088,0.086,107.597,4.633,2.039,2.504,4,4,3.229
1777578123866,-0.051,2.327,-0.378,2.501,0.077,0.018,107.232,4.485,2.358,2.503,4,4,3.237
1777578123879,-0.154,2.803,-0.457,2.501,0.114,0.044,106.883,4.424,2.845,2.504,4,4,3.685
1777578123893,-0.253,2.589,-0.713,2.501,0.289,0.058,106.818,4.466,2.697,2.519,4,4,3.476
1777578123907,-0.192,2.051,-0.860,2.501,0.274,0.413,107.077,4.486,2.232,2.550,4,4,3.408
1777578123920,-0.307,2.622,-0.987,2.501,0.314,0.078,107.232,4.564,2.818,2.522,4,4,3.284
1777578123933,-0.136,2.222,-0.809,2.501,0.439,1.224,107.353,4.508,2.369,2.819,4,4,3.274
1777578123947,-0.053,2.431,0.047,2.501,0.373,2.414,106.546,4.365,2.432,3.496,4,4,3.926
1777578123961,1.295,-2.408,1.480,2.501,-0.205,1.602,99.331,3.098,3.109,2.977,4,4,3.738
1777578123975,-0.135,0.023,-0.816,0.595,0.253,0.957,102.788,3.373,0.827,1.154,4,4,3.270
1777578123988,-0.524,0.205,-0.106,-0.485,0.859,-0.524,103.424,6.120,0.573,1.117,4,4,3.292
1777578124002,0.022,0.667,0.083,-0.999,0.903,-1.745,102.526,5.769,0.673,2.204,4,4,3.246
1777578124015,-0.005,0.902,0.113,-1.089,0.884,-2.235,101.666,5.530,0.909,2.639,4,4,3.858
1777578124029,0.155,0.680,0.197,-1.132,0.711,-1.793,100.448,4.748,0.725,2.236,4,4,3.246
1777578124042,0.539,0.362,0.277,-1.361,0.449,-1.123,98.354,2.364,0.706,1.821,4,4,3.254
1777578124055,0.574,0.150,0.311,-1.743,-0.005,-0.302,95.179,-0.320,0.670,1.769,4,4,3.248
1777578124069,0.525,0.095,0.361,-2.197,-0.472,0.109,91.664,-2.693,0.645,2.249,4,4,3.250
1777578124082,0.303,0.140,0.374,-2.501,-0.876,0.065,88.555,-4.204,0.502,2.651,4,4,3.992
1777578124096,0.073,0.320,0.346,-2.501,-1.133,-0.207,86.552,-4.402,0.477,2.754,4,4,3.258
1777578124110,-0.144,0.413,0.262,-2.501,-1.220,-0.341,85.285,-3.495,0.510,2.804,4,4,3.249
1777578124123,-0.246,0.558,0.177,-2.501,-1.172,-0.295,84.722,-2.347,0.635,2.778,4,4,3.454
1777578124137,-0.291,0.730,0.077,-2.501,-1.032,-0.229,84.689,-1.300,0.790,2.715,4,4,3.251
1777578124150,-0.255,0.782,-0.005,-2.501,-0.855,-0.212,84.936,-0.454,0.822,2.652,4,4,3.901
1777578124164,-0.258,0.851,-0.160,-2.501,-0.652,-0.157,85.622,0.292,0.903,2.590,4,4,3.293
1777578124177,-0.189,1.060,-0.297,-2.501,-0.443,-0.109,86.498,0.705,1.117,2.543,4,4,3.265
1777578124191,-0.098,1.449,-0.531,-2.501,-0.267,0.043,87.531,0.833,1.547,2.516,4,4,3.261
1777578124204,0.028,1.735,-0.855,-2.501,-0.154,0.254,88.786,0.760,1.935,2.519,4,4,3.257
1777578124217,0.028,1.848,-1.158,-2.501,-0.068,0.324,90.242,0.694,2.181,2.523,5,5,3.912
1777578124232,0.007,1.945,-1.483,-2.501,0.044,0.219,91.864,0.656,2.446,2.511,5,5,3.543
1777578124245,-0.002,2.201,-1.893,-2.501,0.100,0.202,93.563,0.629,2.904,2.512,5,5,3.255
1777578124258,-0.024,2.325,-2.175,-2.501,0.093,0.292,95.291,0.621,3.184,2.520,5,5,3.257
1777578124272,-0.227,2.203,-2.470,-2.501,0.185,0.362,97.171,0.766,3.318,2.534,5,5,3.280
1777578124285,-0.318,1.782,-2.642,-2.501,0.351,0.258,99.306,0.981,3.203,2.539,5,5,3.881
1777578124299,-0.151,1.506,-2.792,-2.120,0.493,-0.168,101.596,1.058,3.176,2.183,5,5,3.259
1777578124313,0.180,1.085,-2.959,-1.399,0.430,-0.300,104.144,0.869,3.157,1.494,5,5,3.275
1777578124326,0.086,0.682,-3.170,-0.775,0.301,0.352,106.930,0.764,3.244,0.903,5,5,3.256
1777578124339,-0.237,0.509,-3.214,-0.124,0.233,0.942,109.732,0.913,3.263,0.978,5,5,3.275
1777578124353,0.127,4.000,-4.000,2.501,-0.184,-0.729,110.838,0.817,5.658,2.612,1,1,3.882
1777578124367,-0.081,2.127,0.477,2.501,-0.657,-0.844,109.374,0.874,2.181,2.720,1,1,3.268
1777578124380,-0.427,1.637,0.623,2.501,-0.049,-0.425,107.616,1.435,1.803,2.538,1,1,3.256
1777578124393,0.008,0.761,-0.519,2.501,-0.096,-0.655,108.344,1.350,0.921,2.587,1,1,3.259
1777578124407,-0.436,0.563,-0.784,2.501,0.145,-0.524,109.918,2.353,1.059,2.560,1,1,3.267
1777578124420,-0.226,0.576,-0.933,2.273,0.213,-0.358,111.598,2.760,1.120,2.311,1,1,3.980
1777578124434,-0.238,0.396,-0.829,1.471,-0.002,-0.349,113.473,3.275,0.949,1.511,1,1,3.278
1777578124448,-0.208,0.613,-0.752,1.090,-0.007,-0.370,114.670,3.661,0.992,1.151,1,1,3.267
1777578124461,0.260,-0.048,-1.667,0.527,-0.360,-0.333,101.856,3.113,1.688,0.720,1,1,3.272
1777578124475,-0.408,0.421,-0.775,0.363,-0.199,-0.217,104.026,4.064,0.972,0.467,1,1,3.365
1777578124488,-0.357,0.883,-0.597,0.211,-0.089,-0.042,104.903,4.695,1.124,0.233,1,1,3.889
1777578124502,-0.304,0.849,-0.640,0.090,0.064,0.154,105.870,5.188,1.105,0.189,1,1,3.268
1777578124515,-0.115,1.048,-0.478,0.100,0.088,0.143,106.249,5.209,1.158,0.195,1,1,3.243
1777578124529,-0.053,0.960,-0.516,0.118,0.061,0.075,106.774,5.103,1.091,0.153,1,1,3.254
1777578124542,-0.176,0.890,-0.562,0.094,0.054,0.078,107.451,5.295,1.067,0.134,1,1,3.249
1777578124555,-0.096,0.875,-0.555,0.076,0.050,0.072,108.103,5.294,1.041,0.115,1,1,3.849
1777578124569,-0.135,0.896,-0.542,0.057,0.060,0.076,108.674,5.383,1.055,0.112,1,1,3.294
1777578124583,-0.148,0.920,-0.531,0.043,0.080,0.105,109.170,5.494,1.073,0.139,1,1,3.250
1777578124596,-0.108,0.894,-0.539,0.043,0.078,0.097,109.691,5.513,1.049,0.132,1,1,3.289
1777578124610,-0.135,0.897,-0.535,0.028,0.077,0.103,110.179,5.593,1.053,0.132,1,1,3.277
1777578124623,-0.119,0.878,-0.544,0.015,0.076,0.109,110.686,5.637,1.040,0.134,1,1,3.991
1777578124637,-0.109,0.815,-0.539,-0.017,0.077,0.099,111.246,5.668,0.983,0.126,1,1,3.249
1777578124650,-0.062,0.933,-0.489,-0.019,0.066,0.070,111.526,5.567,1.055,0.098,1,1,3.274
1777578124664,-0.053,0.911,-0.526,-0.020,0.052,0.038,111.897,5.450,1.053,0.068,1,1,3.254
1777578124677,-0.069,0.960,-0.527,0.025,0.018,0.010,112.196,5.370,1.097,0.032,1,1,3.264
1777578124690,-0.066,0.931,-0.538,0.042,-0.003,-0.009,112.539,5.290,1.078,0.043,1,1,3.911
1777578124704,-0.048,0.936,-0.522,0.062,-0.023,-0.028,112.828,5.171,1.073,0.071,1,1,3.258
1777578124718,-0.066,0.893,-0.549,0.066,-0.040,-0.039,113.212,5.101,1.050,0.086,1,1,3.260
1777578124731,-0.036,1.002,-0.528,0.100,-0.053,-0.087,113.412,4.958,1.133,0.143,1,1,3.255
1777578124745,-0.086,0.947,-0.532,0.115,-0.070,-0.065,113.671,4.939,1.090,0.150,1,1,3.257
1777578124758,-0.129,0.961,-0.543,0.148,-0.082,-0.025,113.925,5.013,1.112,0.171,1,1,4.030
1777578124772,-0.191,0.938,-0.559,0.195,-0.071,0.022,114.224,5.227,1.109,0.208,1,1,3.351
1777578124786,-0.128,0.945,-0.559,0.257,-0.048,0.044,114.504,5.290,1.105,0.265,1,1,3.248
1777578124799,-0.129,0.921,-0.556,0.270,-0.050,0.074,114.793,5.357,1.084,0.285,1,1,3.283
1777578124812,-0.224,0.893,-0.578,0.271,-0.024,0.101,115.148,5.643,1.086,0.290,1,1,3.254
1777578124826,-0.228,0.878,-0.589,0.264,0.015,0.133,115.528,5.929,1.082,0.296,1,1,3.897
1777578124840,-0.183,0.997,-0.563,0.296,0.052,0.154,115.700,6.066,1.160,0.337,1,1,3.267
1777578124853,-0.191,0.971,-0.590,0.320,0.088,0.190,115.944,6.218,1.152,0.383,1,1,3.251
1777578124866,-0.200,1.103,-0.590,0.386,0.122,0.203,116.041,6.344,1.267,0.453,1,1,3.249
1777578124880,-0.174,1.119,-0.605,0.471,0.152,0.201,116.143,6.407,1.284,0.535,1,1,3.301
1777578124893,-0.107,1.344,-0.582,0.601,0.173,0.174,116.024,6.310,1.469,0.649,4,4,3.922
1777578124907,-0.053,1.438,-0.586,0.802,0.171,0.147,115.856,6.120,1.554,0.833,4,4,3.268
1777578124921,-0.035,1.480,-0.588,1.019,0.164,0.084,115.673,5.908,1.593,1.035,4,4,3.269
1777578124934,-0.040,1.507,-0.602,1.237,0.147,0.037,115.502,5.711,1.623,1.246,4,4,3.267
1777578124947,0.030,1.652,-0.556,1.514,0.117,-0.013,115.200,5.418,1.743,1.518,4,4,3.311
1777578124961,0.056,1.702,-0.508,1.800,0.037,-0.059,114.825,5.102,1.777,1.801,4,4,3.892
1777578124975,0.004,1.801,-0.497,2.172,-0.020,-0.046,114.414,4.874,1.869,2.172,4,4,3.367
1777578124988,-0.022,1.907,-0.408,2.501,-0.031,-0.064,113.875,4.689,1.950,2.502,4,4,3.260
1777578125002,0.028,2.014,-0.351,2.501,-0.064,-0.102,113.263,4.449,2.045,2.504,4,4,3.252
1777578125015,-0.086,2.289,-0.419,2.501,-0.088,0.004,112.699,4.347,2.328,2.503,4,4,3.245
1777578125028,-0.264,2.685,-0.567,2.501,-0.025,0.186,112.228,4.397,2.756,2.508,4,4,3.827
1777578125042,-0.380,2.343,-0.687,2.501,0.149,0.396,111.971,4.592,2.471,2.537,4,4,3.248
1777578125056,-0.291,2.127,-1.001,2.501,0.139,0.478,112.112,4.700,2.369,2.550,4,4,3.242
1777578125069,-0.252,1.928,-1.194,2.501,0.191,0.621,112.534,4.772,2.281,2.584,4,4,3.254
1777578125082,-0.048,2.251,-0.620,2.501,0.063,1.312,112.222,4.615,2.335,2.825,4,4,3.246
1777578125096,0.127,1.569,0.493,2.501,-0.192,1.327,110.487,4.220,1.649,2.838,4,4,3.864
1777578125110,0.227,-3.066,0.121,2.156,-0.810,0.528,101.818,3.851,3.077,2.363,4,4,3.538
1777578125123,-0.489,0.348,-0.610,0.527,-0.516,0.221,103.939,5.206,0.855,0.770,4,4,3.325
1777578125137,-0.311,0.174,0.127,-0.320,-0.176,-0.296,101.748,7.393,0.378,0.470,4,4,3.309
1777578125150,-0.562,0.804,-0.028,-0.573,0.175,-0.547,101.320,8.599,0.981,0.811,4,4,3.278
1777578125164,-0.482,0.716,0.042,-0.511,0.554,-0.685,100.678,9.705,0.864,1.018,4,4,3.879
1777578125178,-0.314,0.350,0.130,-0.649,0.808,-0.681,99.322,11.031,0.488,1.240,4,4,3.393
1777578125191,-0.239,0.159,0.223,-0.940,0.948,-0.566,96.529,12.347,0.363,1.450,4,4,3.273
1777578125205,-0.153,-0.064,0.305,-1.406,0.966,-0.478,91.786,12.948,0.347,1.772,4,4,3.242
1777578125218,-0.087,-0.119,0.328,-1.981,0.865,-0.473,86.902,12.997,0.360,2.212,4,4,3.244
1777578125231,-0.039,-0.017,0.336,-2.501,0.683,-0.507,82.977,12.715,0.338,2.642,4,4,3.856
1777578125245,-0.013,0.265,0.248,-2.501,0.468,-0.538,81.398,12.248,0.363,2.601,4,4,3.244
1777578125259,0.034,0.435,0.122,-2.501,0.250,-0.555,81.090,11.522,0.453,2.574,4,4,3.255
1777578125272,0.169,0.551,-0.065,-2.501,-0.036,-0.525,81.775,10.278,0.580,2.556,4,4,3.255
1777578125285,0.238,0.719,-0.281,-2.501,-0.337,-0.438,83.067,9.080,0.808,2.562,4,4,3.252
1777578125299,0.260,0.757,-0.484,-2.501,-0.637,-0.273,84.796,7.979,0.936,2.596,5,5,3.921
1777578125313,0.223,0.775,-0.675,-2.501,-0.896,-0.053,86.818,7.095,1.051,2.657,5,5,3.257
1777578125326,0.141,0.901,-0.775,-2.501,-1.040,0.108,88.736,6.489,1.196,2.711,5,5,3.255
1777578125339,0.013,1.192,-0.848,-2.501,-1.083,0.145,90.341,6.183,1.463,2.730,5,5,3.295
1777578125353,-0.207,1.559,-0.991,-2.501,-1.000,0.083,91.745,6.192,1.859,2.695,5,5,3.254
1777578125366,-0.377,1.608,-1.181,-2.501,-0.731,-0.232,93.256,6.389,2.031,2.616,5,5,3.890
1777578125380,-0.464,1.543,-1.296,-2.501,-0.370,-0.504,94.864,6.677,2.068,2.578,5,5,3.478
1777578125394,-0.395,1.583,-1.400,-2.501,-0.018,-0.456,96.465,6.848,2.149,2.543,5,5,3.255
1777578125407,-0.257,1.552,-1.491,-2.501,0.247,-0.157,98.100,6.846,2.168,2.518,5,5,3.253
1777578125420,0.014,1.574,-1.609,-2.501,0.365,0.043,99.741,6.531,2.251,2.528,5,5,3.262
1777578125434,0.179,1.618,-1.793,-2.501,0.347,-0.030,101.412,6.060,2.422,2.526,5,5,3.887
1777578125448,0.273,1.627,-2.015,-2.501,0.257,-0.173,103.147,5.532,2.604,2.520,5,5,3.261
1777578125461,0.241,1.456,-2.178,-2.470,0.164,-0.158,105.032,5.059,2.630,2.481,5,5,3.318
1777578125474,0.371,1.260,-2.266,-1.903,0.046,0.015,107.039,4.482,2.619,1.904,5,5,3.361
1777578125488,0.347,0.890,-2.582,-1.355,-0.193,0.500,109.398,3.969,2.753,1.458,5,5,3.267
1777578125501,0.004,0.717,-2.741,-0.778,-0.318,0.787,111.845,3.791,2.833,1.152,1,1,3.884
1777578125515,-0.430,0.503,-2.815,-0.157,-0.272,0.560,114.383,4.000,2.892,0.642,1,1,3.249
1777578125529,-0.629,0.507,-2.727,0.415,-0.104,-0.072,116.792,4.384,2.844,0.434,1,1,3.252
1777578125542,-2.398,-2.087,-0.010,1.528,0.305,-0.596,107.736,6.334,3.179,1.668,1,1,3.258
1777578125555,-0.145,1.875,0.849,2.439,-0.157,-0.560,105.895,6.233,2.064,2.508,1,1,3.254
1777578125569,0.012,1.018,-0.155,2.501,0.073,-0.584,105.579,5.930,1.030,2.570,1,1,3.860
1777578125583,-0.183,0.862,-0.377,2.501,0.139,-0.477,105.930,6.153,0.959,2.550,1,1,3.317
1777578125596,-0.520,0.742,-0.602,2.404,0.273,-0.248,106.942,7.133,1.088,2.432,1,1,3.242
1777578125609,-0.168,0.776,-0.703,2.081,0.207,-0.083,108.045,7.220,1.060,2.093,1,1,3.263
1777578125623,-0.375,0.595,-1.010,1.770,0.400,0.006,109.859,7.680,1.231,1.815,1,1,3.261
1777578125636,0.151,0.691,-0.845,1.093,0.124,-0.077,111.210,6.999,1.102,1.102,1,1,3.973
1777578125650,-0.265,0.052,-0.806,0.790,-0.036,-0.024,114.056,7.487,0.850,0.791,1,1,3.264
1777578125664,-0.222,0.523,-0.824,0.374,-0.041,-0.099,115.523,7.721,1.001,0.390,1,1,3.259
1777578125677,-0.260,1.040,-0.493,0.237,-0.014,0.040,115.516,7.941,1.180,0.240,1,1,3.252
1777578125690,-0.214,0.822,-0.583,0.138,0.030,0.126,115.946,8.120,1.030,0.190,1,1,3.264
1777578125704,-0.025,0.912,-0.540,0.109,0.023,0.081,116.151,7.823,1.060,0.138,1,1,3.859
1777578125718,-0.006,0.929,-0.518,0.117,-0.005,0.026,116.282,7.495,1.064,0.120,1,1,3.249
1777578125731,-0.073,0.909,-0.523,0.116,-0.032,-0.018,116.440,7.341,1.051,0.122,1,1,3.294
1777578125744,-0.124,0.892,-0.508,0.102,-0.052,-0.028,116.581,7.321,1.034,0.118,1,1,3.248
1777578125758,-0.083,0.893,-0.524,0.077,-0.061,-0.044,116.748,7.201,1.039,0.108,1,1,3.253
1777578125771,-0.194,0.900,-0.526,0.063,-0.048,-0.019,116.904,7.346,1.060,0.082,1,1,3.909
1777578125785,-0.141,0.926,-0.524,0.052,-0.028,0.004,117.018,7.355,1.073,0.059,1,1,3.496
1777578125799,-0.133,0.918,-0.527,0.049,-0.019,0.006,117.143,7.347,1.067,0.053,1,1,3.251
1777578125812,-0.144,0.909,-0.527,0.048,-0.005,0.021,117.273,7.366,1.061,0.053,1,1,3.266
1777578125826,-0.143,0.910,-0.526,0.033,0.012,0.043,117.394,7.381,1.060,0.056,1,1,3.255
1777578125839,-0.126,0.888,-0.545,0.021,0.020,0.048,117.576,7.360,1.050,0.056,1,1,3.904
1777578125853,-0.132,0.906,-0.528,0.012,0.026,0.065,117.692,7.352,1.057,0.071,1,1,3.276
1777578125866,-0.081,0.896,-0.527,0.009,0.016,0.051,117.813,7.226,1.043,0.054,1,1,3.248
1777578125880,-0.082,0.900,-0.519,0.008,0.003,0.034,117.906,7.108,1.042,0.035,1,1,3.264
1777578125893,-0.064,0.923,-0.521,0.019,-0.019,0.004,117.973,6.947,1.061,0.027,1,1,3.276
1777578125906,-0.088,0.921,-0.513,0.035,-0.032,-0.021,118.023,6.853,1.058,0.052,1,1,3.861
1777578125920,-0.119,0.903,-0.523,0.038,-0.033,-0.027,118.112,6.839,1.050,0.058,1,1,3.249
1777578125934,-0.130,0.909,-0.516,0.040,-0.031,-0.018,118.177,6.850,1.053,0.053,1,1,3.265
1777578125947,-0.149,0.901,-0.527,0.035,-0.025,-0.010,118.272,6.906,1.054,0.044,1,1,3.256
1777578125960,-0.159,0.881,-0.544,0.026,-0.016,0.009,118.420,6.986,1.048,0.032,1,1,3.255
1777578125974,-0.120,0.912,-0.530,0.030,-0.020,-0.000,118.497,6.964,1.062,0.036,1,1,3.957
1777578125988,-0.117,0.911,-0.530,0.030,-0.019,-0.003,118.571,6.937,1.060,0.036,1,1,3.343
1777578126001,-0.114,0.904,-0.529,0.026,-0.022,-0.004,118.649,6.905,1.053,0.034,1,1,3.275
1777578126015,-0.127,0.899,-0.531,0.027,-0.019,-0.001,118.731,6.906,1.052,0.033,1,1,3.255
1777578126028,-0.128,0.907,-0.531,0.025,-0.012,0.007,118.801,6.908,1.059,0.029,1,1,3.254
1777578126041,-0.152,0.902,-0.532,0.018,0.002,0.024,118.876,6.967,1.058,0.030,2,2,3.857
1777578126055,-0.139,0.910,-0.536,0.014,0.015,0.041,118.947,6.990,1.065,0.046,2,2,3.252
1777578126069,-0.114,0.906,-0.529,0.010,0.024,0.048,119.005,6.955,1.055,0.055,2,2,3.253
1777578126082,-0.111,0.906,-0.524,0.010,0.029,0.046,119.052,6.916,1.052,0.055,2,2,3.258
1777578126096,-0.117,0.908,-0.533,0.010,0.032,0.045,119.111,6.892,1.059,0.055,2,2,3.265
1777578126109,-0.104,0.904,-0.528,0.013,0.028,0.040,119.163,6.838,1.052,0.050,2,2,3.894
1777578126123,-0.098,0.916,-0.527,0.015,0.025,0.034,119.196,6.771,1.061,0.045,2,2,3.256
1777578126136,-0.111,0.910,-0.532,0.018,0.020,0.034,119.245,6.737,1.060,0.043,2,2,3.247
1777578126150,-0.118,0.923,-0.531,0.028,0.020,0.038,119.272,6.718,1.071,0.051,2,2,3.284
1777578126163,-0.113,0.921,-0.535,0.030,0.022,0.037,119.311,6.688,1.071,0.053,2,2,3.269
1777578126176,-0.129,0.915,-0.546,0.031,0.029,0.050,119.378,6.697,1.074,0.065,2,2,3.954
1777578126190,-0.121,0.907,-0.547,0.023,0.038,0.085,119.453,6.689,1.066,0.096,2,2,3.259
1777578126204,-0.107,0.911,-0.547,0.021,0.046,0.117,119.520,6.648,1.068,0.128,2,2,3.259
1777578126217,-0.078,1.033,-0.566,0.036,0.056,0.097,119.485,6.523,1.181,0.118,2,2,3.267
1777578126231,-0.180,1.153,-0.566,0.137,0.058,0.137,119.338,6.587,1.297,0.202,2,2,3.254
1777578126244,-0.302,1.193,-0.557,0.380,0.114,0.262,119.149,6.864,1.351,0.475,4,4,4.051
1777578126258,-0.127,1.091,-0.559,0.403,0.120,0.336,119.061,6.823,1.232,0.538,4,4,3.268
1777578126271,-0.155,1.169,-0.550,0.516,0.143,0.403,118.891,6.824,1.301,0.670,4,4,3.259
1777578126285,-0.134,1.265,-0.567,0.632,0.177,0.354,118.683,6.767,1.393,0.746,4,4,3.264
1777578126298,-0.117,1.303,-0.564,0.781,0.193,0.272,118.452,6.677,1.425,0.849,4,4,3.260
1777578126312,-0.038,1.171,-0.560,0.926,0.194,0.263,118.325,6.457,1.298,0.982,4,4,3.975
1777578126326,-0.028,1.200,-0.569,1.033,0.181,0.253,118.195,6.227,1.328,1.079,4,4,3.474
1777578126339,0.038,1.361,-0.549,1.204,0.164,0.204,117.922,5.890,1.468,1.232,4,4,3.267
1777578126353,0.088,1.467,-0.554,1.408,0.112,0.157,117.606,5.493,1.571,1.422,4,4,3.259
1777578126366,0.063,1.591,-0.525,1.674,0.097,0.110,117.197,5.157,1.677,1.681,4,4,3.261
1777578126379,-0.026,1.694,-0.610,1.932,0.059,0.235,116.874,4.968,1.801,1.947,4,4,3.953
1777578126393,-0.314,1.867,-0.615,2.238,0.074,0.496,116.496,5.148,1.991,2.294,4,4,3.263
1777578126407,-0.212,1.831,-0.565,2.501,0.128,0.717,116.087,5.199,1.927,2.605,4,4,3.260
1777578126420,-0.020,1.367,-0.588,2.501,0.098,1.001,115.965,5.005,1.488,2.696,4,4,3.341
1777578126434,0.371,1.420,-0.605,2.501,-0.014,1.411,115.838,4.195,1.587,2.872,4,4,3.263
1777578126447,0.285,1.429,-0.888,2.441,-0.115,2.235,116.101,3.591,1.707,3.312,4,4,3.928
1777578126461,0.278,0.940,-0.175,2.394,-0.342,2.462,115.422,2.724,0.996,3.451,4,4,3.257
1777578126474,1.022,-2.069,0.400,1.105,-0.874,1.350,106.917,1.474,2.342,1.951,4,4,3.280
1777578126488,0.116,0.694,0.085,0.148,-1.124,-0.125,105.873,0.997,0.709,1.141,4,4,3.278
1777578126501,-0.407,0.291,0.423,-0.111,-0.930,-0.607,102.752,2.633,0.655,1.116,4,4,3.284
1777578126515,-0.063,0.483,0.216,-0.419,-0.751,-0.269,101.142,2.815,0.532,0.902,4,4,3.954
1777578126529,-0.215,0.268,0.246,-0.651,-0.527,0.174,98.791,4.030,0.422,0.856,4,4,3.255
1777578126542,-0.167,0.127,0.237,-0.993,-0.386,0.192,95.706,5.243,0.316,1.082,4,4,3.341
1777578126555,-0.135,0.148,0.167,-1.315,-0.286,0.023,93.337,6.377,0.261,1.346,4,4,3.262
1777578126569,-0.063,0.157,0.102,-1.639,-0.266,-0.090,91.756,6.911,0.198,1.663,4,4,3.254
1777578126582,0.032,0.286,-0.026,-1.863,-0.329,-0.072,91.909,6.329,0.289,1.893,4,4,3.899
1777578126596,0.072,0.296,-0.170,-2.073,-0.441,0.005,93.132,5.532,0.349,2.120,4,4,3.260
1777578126609,0.091,0.354,-0.311,-2.307,-0.541,-0.013,94.799,4.814,0.480,2.370,4,4,3.275
1777578126623,0.077,0.523,-0.469,-2.479,-0.613,-0.062,96.422,4.329,0.707,2.554,4,4,3.251
1777578126636,0.090,0.673,-0.693,-2.501,-0.674,-0.043,98.146,3.907,0.970,2.591,4,4,3.263
1777578126650,-0.028,0.808,-0.938,-2.501,-0.657,0.159,99.943,3.793,1.239,2.591,4,4,3.883
1777578126664,-0.212,0.915,-1.188,-2.478,-0.514,0.407,101.800,3.980,1.514,2.563,4,4,3.350
1777578126677,-0.352,1.048,-1.373,-2.358,-0.304,0.455,103.586,4.310,1.762,2.420,4,4,3.453
1777578126691,-0.432,1.160,-1.504,-2.127,-0.121,0.369,105.281,4.682,1.948,2.162,4,4,3.282
1777578126704,-0.456,1.230,-1.591,-1.809,-0.007,0.321,106.900,5.036,2.062,1.838,4,4,3.268
1777578126717,-0.424,1.232,-1.626,-1.456,0.023,0.341,108.473,5.329,2.084,1.495,5,5,3.887
1777578126731,-0.324,1.173,-1.579,-1.115,-0.053,0.349,110.000,5.506,1.993,1.170,5,5,3.250
1777578126745,1.123,4.000,-2.991,-0.173,-0.881,-2.324,110.734,4.711,5.119,2.491,5,5,3.259
1777578126758,0.336,4.000,-3.602,1.016,-0.716,-0.899,111.664,4.349,5.393,1.534,5,5,3.245
1777578126771,-0.862,-0.888,-2.417,0.334,-0.374,-0.250,99.792,4.968,2.715,0.560,5,5,3.260
1777578126785,0.197,0.143,-1.018,-0.259,0.008,0.008,102.951,4.276,1.047,0.259,1,1,3.889
1777578126799,-0.143,1.283,-0.237,-0.063,0.026,0.026,102.842,4.362,1.312,0.073,1,1,3.277
1777578126812,0.026,0.993,-0.446,0.104,-0.033,-0.048,103.338,4.112,1.089,0.119,1,1,3.258
1777578126826,-0.163,0.855,-0.527,0.056,-0.009,-0.006,104.138,4.335,1.017,0.057,1,1,3.306
1777578126839,-0.073,1.014,-0.451,0.061,-0.013,-0.027,104.568,4.309,1.112,0.068,1,1,3.256
1777578126852,-0.056,0.930,-0.500,0.070,-0.025,-0.061,105.166,4.254,1.058,0.096,1,1,3.901
1777578126866,-0.158,0.884,-0.511,0.034,-0.025,-0.032,105.817,4.453,1.033,0.053,1,1,3.257
1777578126880,-0.135,0.919,-0.484,0.022,-0.010,0.012,106.341,4.582,1.047,0.027,1,1,3.257
1777578126893,-0.025,0.928,-0.474,0.026,-0.025,-0.023,106.809,4.442,1.043,0.042,1,1,3.255
1777578126906,-0.088,0.903,-0.487,0.018,-0.043,-0.038,107.315,4.462,1.029,0.060,1,1,3.281
1777578126920,-0.107,0.906,-0.491,0.003,-0.049,-0.045,107.801,4.525,1.036,0.067,1,1,3.897
1777578126934,-0.118,0.909,-0.493,-0.008,-0.049,-0.046,108.268,4.613,1.041,0.068,1,1,3.283
1777578126947,-0.125,0.941,-0.480,-0.008,-0.044,-0.033,108.651,4.705,1.064,0.055,1,1,3.254
1777578126961,-0.093,0.938,-0.479,-0.004,-0.047,-0.037,109.018,4.720,1.058,0.059,1,1,3.253
1777578126974,-0.123,0.937,-0.473,0.001,-0.046,-0.035,109.359,4.806,1.057,0.057,1,1,3.253
1777578126987,-0.126,0.925,-0.489,-0.003,-0.041,-0.028,109.731,4.896,1.053,0.050,1,1,3.883
1777578127001,-0.124,0.924,-0.486,-0.006,-0.037,-0.016,110.082,4.977,1.051,0.041,1,1,3.259
1777578127015,-0.132,0.926,-0.485,-0.013,-0.026,-0.005,110.414,5.074,1.054,0.030,1,1,3.291
1777578127028,-0.127,0.930,-0.484,-0.014,-0.020,0.007,110.723,5.154,1.056,0.025,1,1,3.326
1777578127041,-0.117,0.930,-0.477,-0.017,-0.009,0.014,111.003,5.208,1.052,0.024,1,1,3.310
1777578127055,-0.129,0.932,-0.472,-0.015,0.004,0.024,111.259,5.289,1.052,0.029,1,1,3.889
1777578127069,-0.149,0.909,-0.502,-0.030,0.019,0.051,111.593,5.415,1.049,0.063,1,1,3.263
1777578127082,-0.119,0.921,-0.474,-0.031,0.028,0.059,111.839,5.466,1.043,0.073,1,1,3.252
1777578127096,-0.095,0.938,-0.479,-0.026,0.027,0.056,112.067,5.452,1.057,0.067,1,1,3.251
1777578127109,-0.106,0.933,-0.477,-0.023,0.020,0.054,112.287,5.467,1.053,0.062,1,1,3.257
1777578127122,-0.095,0.938,-0.474,-0.019,0.017,0.049,112.485,5.453,1.055,0.055,1,1,3.880
1777578127136,-0.095,0.931,-0.475,-0.015,0.008,0.036,112.683,5.441,1.049,0.040,1,1,3.262
1777578127150,-0.085,0.943,-0.477,-0.005,-0.000,0.021,112.864,5.405,1.060,0.022,1,1,3.249
1777578127163,-0.078,0.940,-0.477,0.001,-0.009,0.003,113.041,5.353,1.057,0.010,1,1,3.260
1777578127176,-0.086,0.923,-0.473,0.006,-0.017,-0.013,113.219,5.326,1.041,0.022,1,1,3.260
1777578127191,-0.107,0.930,-0.466,0.012,-0.022,-0.016,113.368,5.349,1.046,0.030,1,1,4.798
1777578127205,-0.113,0.929,-0.480,0.018,-0.021,-0.012,113.541,5.384,1.052,0.031,1,1,3.259
1777578127218,-0.120,0.931,-0.471,0.022,-0.015,0.003,113.685,5.435,1.051,0.027,1,1,3.263
1777578127232,-0.097,0.923,-0.482,0.027,-0.019,-0.001,113.856,5.430,1.046,0.034,1,1,3.268
1777578127245,-0.094,0.917,-0.470,0.031,-0.023,-0.006,114.000,5.422,1.035,0.039,1,1,3.265
1777578127258,-0.073,0.918,-0.478,0.035,-0.037,-0.023,114.153,5.362,1.038,0.055,1,1,3.933
1777578127272,-0.078,0.911,-0.497,0.033,-0.043,-0.037,114.348,5.316,1.041,0.066,1,1,3.264
1777578127286,-0.118,0.913,-0.497,0.029,-0.047,-0.028,114.532,5.366,1.046,0.062,1,1,3.265
1777578127299,-0.133,0.923,-0.494,0.022,-0.039,-0.012,114.691,5.448,1.055,0.046,1,1,3.274
1777578127313,-0.139,0.939,-0.503,0.010,-0.025,0.012,114.843,5.536,1.074,0.030,1,1,3.264
1777578127326,-0.135,0.953,-0.496,-0.002,-0.006,0.042,114.960,5.607,1.083,0.042,1,1,3.971
1777578127340,-0.125,0.948,-0.495,-0.011,0.011,0.057,115.074,5.654,1.077,0.059,1,1,3.299
1777578127353,-0.134,0.947,-0.487,-0.015,0.021,0.076,115.169,5.719,1.073,0.080,1,1,3.266
1777578127367,-0.102,0.950,-0.485,-0.017,0.037,0.086,115.250,5.708,1.072,0.096,1,1,3.269
1777578127380,-0.110,0.950,-0.476,-0.015,0.038,0.091,115.310,5.716,1.069,0.100,1,1,3.259
1777578127393,-0.084,0.949,-0.477,-0.004,0.034,0.077,115.368,5.664,1.066,0.084,2,2,3.929
1777578127408,-0.085,0.941,-0.480,0.005,0.027,0.054,115.441,5.617,1.060,0.061,2,2,3.270
1777578127421,-0.058,0.929,-0.480,0.011,0.016,0.026,115.523,5.511,1.047,0.033,2,2,3.264
1777578127434,-0.063,0.919,-0.479,0.006,0.008,0.007,115.609,5.422,1.038,0.012,2,2,3.260
1777578127448,-0.074,0.919,-0.480,0.008,-0.002,-0.018,115.696,5.364,1.039,0.020,2,2,3.291
1777578127461,-0.074,0.922,-0.480,0.009,-0.009,-0.034,115.774,5.307,1.042,0.036,1,1,3.933
1777578127475,-0.082,0.921,-0.482,0.012,-0.013,-0.040,115.855,5.271,1.042,0.044,1,1,3.271
1777578127488,-0.098,0.910,-0.492,0.013,-0.013,-0.040,115.965,5.278,1.039,0.044,1,1,3.262
1777578127502,-0.111,0.909,-0.484,0.011,-0.011,-0.037,116.055,5.316,1.035,0.040,1,1,3.267
1777578127515,-0.115,0.917,-0.486,0.006,-0.008,-0.023,116.138,5.362,1.044,0.025,1,1,3.257
1777578127529,-0.113,0.927,-0.491,0.001,0.002,-0.010,116.216,5.395,1.055,0.010,1,1,3.918
1777578127544,-0.101,0.929,-0.484,0.004,0.009,-0.005,116.272,5.399,1.053,0.011,1,1,4.368
1777578127557,-0.113,0.929,-0.489,-0.001,0.011,-0.003,116.338,5.432,1.056,0.011,1,1,3.266
1777578127570,-0.135,0.941,-0.503,-0.008,0.020,0.018,116.417,5.509,1.075,0.028,1,1,3.254
1777578127584,-0.118,0.948,-0.498,-0.011,0.021,0.026,116.474,5.543,1.077,0.035,1,1,3.254
1777578127597,-0.111,0.941,-0.487,-0.015,0.023,0.035,116.514,5.561,1.065,0.044,4,4,3.883
1777578127611,-0.108,0.947,-0.494,-0.020,0.024,0.046,116.560,5.571,1.074,0.056,4,4,3.286
1777578127624,-0.107,0.946,-0.486,-0.031,0.028,0.051,116.587,5.580,1.068,0.066,4,4,3.256
1777578127638,-0.095,0.948,-0.482,-0.036,0.030,0.054,116.603,5.560,1.067,0.071,4,4,3.246
1777578127651,-0.102,0.936,-0.491,-0.038,0.035,0.052,116.651,5.557,1.062,0.073,4,4,3.242
1777578127664,-0.099,0.945,-0.484,-0.035,0.036,0.052,116.672,5.547,1.066,0.073,2,2,3.864
1777578127678,-0.089,0.929,-0.485,-0.032,0.032,0.050,116.710,5.516,1.052,0.068,2,2,3.251
1777578127692,-0.081,0.947,-0.468,-0.025,0.025,0.044,116.693,5.466,1.059,0.056,2,2,3.253
1777578127705,-0.065,0.931,-0.486,-0.021,0.011,0.042,116.731,5.382,1.052,0.048,2,2,3.279
1777578127719,-0.093,0.948,-0.476,-0.009,0.005,0.046,116.729,5.365,1.065,0.048,2,2,3.270
1777578127732,-0.102,0.916,-0.479,-0.004,0.006,0.055,116.768,5.377,1.039,0.055,1,1,3.932
1777578127746,-0.107,0.922,-0.496,-0.013,0.003,0.064,116.833,5.398,1.053,0.066,1,1,3.257
1777578127759,-0.066,0.941,-0.454,-0.012,-0.031,0.072,116.786,5.320,1.047,0.080,1,1,3.272
1777578127773,0.061,0.911,-0.464,-0.017,-0.114,0.099,116.794,4.937,1.024,0.152,1,1,3.256
1777578127786,0.017,0.975,-0.446,-0.032,-0.337,0.208,116.698,4.682,1.072,0.397,1,1,3.258
1777578127799,0.584,1.033,-0.341,0.018,-0.972,0.543,116.329,3.242,1.235,1.114,4,4,3.918
1777578127813,1.008,1.058,-0.315,0.020,-1.911,1.094,115.903,1.246,1.495,2.202,4,4,3.292
1777578127827,0.774,1.031,-0.346,-0.020,-2.501,1.662,115.582,-0.359,1.335,3.003,4,4,3.296
1777578127840,0.617,1.048,-0.404,-0.018,-2.501,2.032,115.384,-1.602,1.281,3.223,4,4,3.250
1777578127854,0.451,1.195,-0.476,0.024,-2.501,2.212,115.224,-2.377,1.363,3.339,4,4,3.268
1777578127867,0.230,1.166,-0.428,0.071,-2.501,1.606,115.003,-2.733,1.263,2.973,4,4,3.898
1777578127883,-0.296,0.885,-0.413,0.068,-2.501,0.820,115.004,-1.877,1.021,2.633,4,4,5.482
1777578127897,-0.370,1.046,-0.477,0.203,-2.501,0.501,114.982,-1.015,1.208,2.559,4,4,3.261
1777578127910,-0.311,1.010,-0.518,0.364,-2.501,0.815,115.077,-0.300,1.177,2.656,4,4,3.248
1777578127923,-0.191,0.880,-0.562,0.398,-2.501,1.444,115.403,0.166,1.062,2.915,4,4,3.288
1777578127937,-0.131,0.865,-0.544,0.321,-2.501,1.957,115.700,0.478,1.030,3.192,4,4,3.926
1777578127951,-0.172,0.926,-0.520,0.292,-2.501,1.910,115.858,0.859,1.076,3.161,4,4,3.289
1777578127965,-0.311,0.951,-0.514,0.343,-2.501,1.382,115.970,1.523,1.125,2.878,4,4,3.268
1777578127978,-0.241,0.957,-0.491,0.434,-2.501,0.855,116.023,2.008,1.102,2.679,4,4,3.260
1777578127991,-0.136,1.000,-0.417,0.549,-2.501,0.693,115.875,2.232,1.092,2.653,4,4,3.273
1777578128005,-0.110,1.044,-0.344,0.664,-2.501,0.850,115.541,2.386,1.105,2.724,1,1,3.916
1777578128019,-0.151,0.900,-0.265,0.633,-2.501,1.018,115.143,2.682,0.950,2.774,1,1,3.289
1777578128032,-0.566,0.891,-0.147,0.470,-2.501,1.077,114.453,3.968,1.066,2.764,1,1,3.264
1777578128048,-0.754,0.963,-0.130,0.374,-2.501,0.687,113.719,5.448,1.230,2.621,1,1,5.676
1777578128062,-0.759,0.969,-0.135,0.380,-2.103,0.187,113.028,6.863,1.239,2.146,1,1,3.630
1777578128075,-0.610,0.860,-0.115,0.355,-1.741,-0.032,112.354,8.097,1.061,1.777,1,1,3.929
1777578128089,-0.357,0.798,-0.068,0.218,-1.482,0.042,111.590,8.794,0.877,1.498,1,1,3.273
1777578128102,-0.122,0.877,-0.020,0.105,-1.392,0.175,110.703,8.754,0.886,1.407,1,1,3.265
1777578128116,0.050,0.830,0.028,-0.030,-1.436,0.265,109.713,8.221,0.832,1.460,1,1,3.327
1777578128129,0.087,0.847,0.044,-0.186,-1.541,0.361,108.720,7.604,0.853,1.594,1,1,3.254
1777578128143,0.009,0.927,0.080,-0.287,-1.653,0.461,107.686,7.247,0.931,1.740,4,4,4.692
1777578128157,-0.038,0.877,0.070,-0.444,-1.753,0.503,106.713,7.039,0.880,1.877,4,4,3.253
1777578128171,-0.082,0.918,0.027,-0.555,-1.829,0.504,105.910,6.955,0.922,1.977,4,4,3.249
1777578128185,-0.120,0.961,-0.038,-0.665,-1.890,0.534,105.312,6.961,0.970,2.073,4,4,3.263
1777578128198,-0.112,1.065,-0.125,-0.687,-1.932,0.542,104.934,6.917,1.079,2.121,4,4,3.252
1777578128212,-0.067,1.108,-0.221,-0.631,-1.986,0.529,104.773,6.764,1.132,2.150,5,5,4.359
1777578128226,0.019,1.134,-0.295,-0.540,-2.066,0.542,104.764,6.428,1.172,2.203,5,5,3.272
1777578128239,0.057,1.135,-0.363,-0.435,-2.139,0.597,104.895,6.027,1.193,2.263,5,5,3.269
1777578128253,0.114,1.193,-0.438,-0.273,-2.196,0.661,105.124,5.539,1.276,2.309,5,5,3.288
1777578128266,0.119,1.249,-0.532,-0.017,-2.222,0.733,105.472,5.078,1.363,2.340,5,5,3.257
1777578128279,0.062,1.170,-0.601,0.243,-2.186,0.819,105.985,4.738,1.316,2.347,5,5,3.969
1777578128293,0.003,0.997,-0.655,0.403,-2.091,0.846,106.742,4.523,1.193,2.292,5,5,3.267
1777578128309,-0.015,1.052,-0.664,0.579,-1.959,0.710,107.420,4.357,1.244,2.163,5,5,5.977
1777578128323,-0.087,1.064,-0.668,0.893,-1.803,0.603,108.062,4.339,1.259,2.101,5,5,3.287
1777578128336,-0.186,0.836,-0.682,0.997,-1.594,0.705,108.987,4.577,1.095,2.007,5,5,3.251
1777578128350,-0.497,0.848,-0.625,1.456,-1.193,0.599,109.747,5.482,1.165,1.975,1,1,3.901
1777578128364,-0.414,0.941,-0.416,1.261,-0.781,0.636,109.925,6.200,1.109,1.614,1,1,3.248
1777578128378,0.056,1.119,-0.223,1.232,-0.503,0.323,109.546,5.805,1.142,1.369,1,1,4.456
1777578128391,-0.075,0.990,-0.479,1.297,-0.112,0.031,109.820,5.722,1.102,1.302,1,1,3.256
1777578128405,0.059,0.650,-0.733,0.708,0.038,-0.228,111.070,5.322,0.981,0.745,1,1,3.269
1777578128418,0.156,0.906,-0.625,0.484,-0.118,-0.433,111.663,4.737,1.112,0.660,1,1,3.937
1777578128432,-0.345,1.082,-0.445,0.219,-0.114,-0.269,111.693,5.249,1.219,0.366,1,1,3.263
1777578128447,-0.044,0.933,-0.515,0.185,-0.100,-0.157,112.009,5.124,1.067,0.262,1,1,3.276
1777578128460,-0.095,0.932,-0.495,0.217,-0.141,-0.162,112.271,5.124,1.059,0.305,1,1,3.263
1777578128474,-0.164,0.853,-0.510,0.183,-0.105,-0.086,112.649,5.311,1.007,0.228,1,1,3.773
1777578128487,-0.199,0.872,-0.535,0.136,-0.041,-0.010,113.037,5.560,1.042,0.143,1,1,3.936
1777578128501,-0.091,0.949,-0.499,0.121,-0.013,0.011,113.242,5.530,1.076,0.123,1,1,3.264
1777578128515,-0.092,0.909,-0.524,0.115,-0.015,0.015,113.537,5.506,1.053,0.117,1,1,3.274
1777578128528,-0.109,0.903,-0.529,0.085,0.008,0.026,113.836,5.526,1.052,0.089,1,1,3.263
1777578128542,-0.071,0.931,-0.507,0.074,0.015,0.023,114.043,5.451,1.063,0.079,1,1,3.270
1777578128555,-0.103,0.914,-0.532,0.060,0.021,0.022,114.313,5.457,1.063,0.067,1,1,3.941
1777578128569,-0.104,0.912,-0.526,0.045,0.027,0.028,114.562,5.465,1.058,0.060,1,1,3.376
1777578128583,-0.102,0.932,-0.517,0.049,0.033,0.039,114.757,5.465,1.070,0.071,1,1,3.366
1777578128596,-0.103,0.938,-0.508,0.052,0.041,0.055,114.919,5.467,1.072,0.086,1,1,3.569
1777578128610,-0.101,0.930,-0.518,0.045,0.044,0.069,115.102,5.465,1.069,0.094,1,1,3.286
1777578128623,-0.089,0.917,-0.521,0.042,0.052,0.073,115.298,5.437,1.059,0.099,1,1,3.887
1777578128637,-0.076,0.930,-0.520,0.045,0.050,0.070,115.468,5.377,1.068,0.097,1,1,3.267
1777578128651,-0.104,0.924,-0.521,0.043,0.051,0.084,115.642,5.388,1.066,0.107,1,1,3.251
1777578128664,-0.072,0.923,-0.511,0.044,0.054,0.076,115.786,5.322,1.058,0.103,1,1,3.257
1777578128677,-0.050,0.923,-0.518,0.052,0.042,0.069,115.940,5.207,1.059,0.096,1,1,3.285
1777578128691,-0.055,0.903,-0.526,0.048,0.039,0.057,116.127,5.112,1.046,0.085,1,1,3.856
1777578128705,-0.048,0.898,-0.515,0.040,0.030,0.054,116.290,5.005,1.036,0.073,1,1,3.255
1777578128718,-0.058,0.895,-0.524,0.033,0.026,0.039,116.468,4.926,1.039,0.057,1,1,3.264
1777578128731,-0.062,0.901,-0.520,0.031,0.017,0.032,116.622,4.861,1.042,0.048,1,1,3.252
1777578128745,-0.053,0.907,-0.514,0.028,0.011,0.021,116.750,4.777,1.044,0.037,1,1,3.934
1777578128759,-0.065,0.909,-0.520,0.031,0.001,0.009,116.881,4.724,1.049,0.032,1,1,3.890
1777578128773,-0.058,0.899,-0.537,0.025,-0.002,0.007,117.055,4.655,1.049,0.026,1,1,3.326
1777578128786,-0.075,0.897,-0.537,0.017,-0.004,0.006,117.223,4.630,1.048,0.019,1,1,3.249
1777578128800,-0.061,0.891,-0.530,0.011,-0.004,0.004,117.376,4.576,1.039,0.012,1,1,3.903
1777578128814,-0.070,0.866,-0.528,-0.004,-0.005,0.003,117.550,4.549,1.017,0.007,1,1,3.266
1777578128827,-0.041,0.885,-0.531,-0.021,-0.011,-0.011,117.699,4.449,1.033,0.026,4,4,3.943
1777578128841,-0.026,0.904,-0.515,-0.023,-0.029,-0.042,117.784,4.316,1.041,0.056,4,4,3.277
1777578128854,-0.054,0.912,-0.513,-0.025,-0.038,-0.056,117.853,4.256,1.047,0.072,4,4,3.255
1777578128869,-0.051,0.918,-0.524,-0.020,-0.047,-0.064,117.935,4.191,1.058,0.082,4,4,4.109
1777578128882,-0.066,0.923,-0.522,-0.014,-0.050,-0.069,118.004,4.164,1.062,0.086,4,4,3.261
1777578128895,-0.085,0.919,-0.530,-0.011,-0.053,-0.064,118.088,4.183,1.064,0.083,1,1,3.950
1777578128909,-0.085,0.919,-0.517,-0.011,-0.050,-0.065,118.144,4.201,1.058,0.082,1,1,3.267
1777578128923,-0.118,0.906,-0.533,-0.012,-0.044,-0.051,118.247,4.297,1.058,0.069,1,1,3.261
1777578128939,-0.110,0.909,-0.525,-0.015,-0.030,-0.035,118.323,4.372,1.055,0.049,1,1,6.215
1777578128953,-0.110,0.921,-0.513,-0.013,-0.022,-0.020,118.359,4.441,1.060,0.032,1,1,3.269
1777578128966,-0.090,0.904,-0.522,-0.014,-0.022,-0.019,118.431,4.463,1.048,0.032,1,1,3.944
1777578128980,-0.096,0.920,-0.509,-0.013,-0.020,-0.016,118.453,4.496,1.056,0.029,1,1,3.271
1777578128993,-0.094,0.915,-0.521,-0.015,-0.016,-0.012,118.505,4.521,1.057,0.025,1,1,3.250
1777578129007,-0.088,0.918,-0.524,-0.009,-0.016,-0.011,118.558,4.531,1.061,0.021,1,1,3.267
1777578129020,-0.078,0.915,-0.518,-0.007,-0.014,-0.011,118.598,4.518,1.054,0.019,1,1,3.267
1777578129034,-0.083,0.927,-0.524,-0.008,-0.018,-0.013,118.637,4.516,1.068,0.023,1,1,4.032
1777578129051,-0.096,0.922,-0.518,-0.003,-0.013,-0.008,118.667,4.545,1.062,0.016,1,1,3.261
1777578129064,-0.101,0.918,-0.510,-0.001,-0.009,0.003,118.683,4.586,1.055,0.010,1,1,3.264
1777578129078,-0.135,0.914,-0.523,-0.003,-0.001,0.020,118.731,4.706,1.061,0.021,1,1,3.260
1777578129091,-0.131,0.919,-0.528,-0.011,0.016,0.056,118.781,4.809,1.068,0.059,1,1,3.285
1777578129107,-0.127,0.925,-0.516,-0.012,0.030,0.088,118.797,4.897,1.067,0.094,2,2,3.969
1777578129121,-0.064,0.923,-0.500,-0.009,0.032,0.090,118.782,4.834,1.052,0.096,2,2,3.290
1777578129136,-0.110,0.925,-0.515,-0.001,0.042,0.110,118.797,4.883,1.065,0.117,2,2,4.985
1777578129149,-0.086,0.937,-0.509,0.012,0.047,0.120,118.785,4.872,1.070,0.130,2,2,3.255
1777578129163,-0.031,0.917,-0.511,0.019,0.036,0.095,118.799,4.732,1.050,0.103,2,2,3.258
1777578129176,-0.064,0.920,-0.523,0.022,0.030,0.084,118.836,4.676,1.060,0.092,2,2,3.861
1777578129190,-0.055,0.920,-0.518,0.027,0.026,0.077,118.861,4.603,1.057,0.085,2,2,3.258
1777578129203,-0.059,0.909,-0.521,0.028,0.025,0.074,118.903,4.542,1.050,0.083,2,2,3.256
1777578129217,-0.059,0.933,-0.521,0.035,0.023,0.064,118.914,4.481,1.070,0.076,2,2,3.243
1777578129230,-0.076,0.913,-0.521,0.033,0.019,0.070,118.948,4.466,1.054,0.079,2,2,3.268
1777578129243,-0.044,0.926,-0.524,0.036,0.015,0.055,118.973,4.374,1.065,0.068,2,2,3.943
1777578129257,-0.026,0.904,-0.524,0.029,0.006,0.035,119.024,4.246,1.045,0.046,2,2,3.279
1777578129271,-0.035,0.916,-0.529,0.024,-0.004,0.017,119.067,4.142,1.058,0.029,2,2,3.290
1777578129284,-0.024,0.916,-0.514,0.021,-0.014,0.000,119.077,4.019,1.051,0.025,2,2,3.293
1777578129298,-0.030,0.905,-0.522,0.019,-0.023,-0.014,119.117,3.916,1.045,0.033,2,2,3.274
1777578129311,-0.030,0.905,-0.529,0.018,-0.032,-0.024,119.169,3.816,1.048,0.044,1,1,4.023
1777578129325,-0.056,0.906,-0.530,0.020,-0.037,-0.026,119.219,3.782,1.051,0.050,1,1,3.271
1777578129339,-0.066,0.889,-0.528,0.017,-0.042,-0.038,119.284,3.775,1.036,0.059,1,1,3.790
1777578129353,-0.071,0.862,-0.529,0.007,-0.037,-0.044,119.383,3.786,1.014,0.058,1,1,3.243
1777578129366,-0.087,0.864,-0.540,-0.013,-0.034,-0.047,119.498,3.833,1.022,0.059,1,1,3.264
1777578129379,-0.056,0.891,-0.524,-0.017,-0.031,-0.061,119.541,3.800,1.035,0.070,4,4,3.881
1777578129393,-0.064,0.950,-0.515,-0.008,-0.037,-0.071,119.494,3.783,1.082,0.080,4,4,3.264
1777578129407,-0.073,0.937,-0.526,0.001,-0.041,-0.075,119.487,3.788,1.077,0.085,4,4,3.304
1777578129420,-0.072,0.920,-0.523,0.012,-0.047,-0.085,119.494,3.792,1.061,0.098,4,4,3.631
1777578129434,-0.114,0.920,-0.539,0.011,-0.047,-0.073,119.531,3.892,1.072,0.087,4,4,3.280
1777578129447,-0.088,0.927,-0.527,0.013,-0.048,-0.068,119.534,3.929,1.070,0.085,2,2,3.930
1777578129461,-0.058,0.912,-0.526,0.012,-0.058,-0.075,119.553,3.895,1.055,0.095,2,2,3.280
1777578129475,-0.056,0.885,-0.541,-0.002,-0.073,-0.091,119.636,3.860,1.038,0.116,2,2,3.267
1777578129488,-0.032,0.868,-0.545,-0.020,-0.080,-0.111,119.743,3.771,1.026,0.138,2,2,3.277
1777578129501,-0.064,0.862,-0.530,-0.039,-0.080,-0.132,119.824,3.765,1.014,0.159,2,2,3.265
1777578129515,-0.116,0.876,-0.531,-0.053,-0.075,-0.130,119.885,3.882,1.031,0.159,5,5,3.936
1777578129529,-0.153,0.929,-0.520,-0.061,-0.066,-0.098,119.857,4.071,1.076,0.133,5,5,3.284
1777578129543,-0.121,0.972,-0.523,-0.053,-0.062,-0.093,119.789,4.165,1.111,0.124,5,5,3.820
1777578129556,-0.026,1.006,-0.486,-0.026,-0.073,-0.089,119.614,4.042,1.117,0.118,5,5,3.333
1777578129569,0.116,1.014,-0.507,-0.036,-0.187,0.063,119.481,3.610,1.140,0.200,5,5,3.265
1777578129583,0.321,1.010,-0.462,-0.026,-0.399,0.413,119.267,2.747,1.157,0.574,5,5,3.909
1777578129599,0.771,1.174,-0.344,-0.013,-0.845,0.891,118.703,1.219,1.446,1.229,5,5,5.146
1777578129612,0.278,1.568,-0.274,0.166,-1.169,1.034,117.881,0.732,1.616,1.569,5,5,3.289
1777578129626,-0.138,0.984,-0.397,0.274,-1.145,0.890,117.624,1.025,1.070,1.476,5,5,3.294
1777578129639,-0.126,1.021,-0.387,0.307,-1.072,0.751,117.324,1.268,1.099,1.344,5,5,3.262
1777578129653,-0.106,0.910,-0.387,0.303,-1.031,0.682,117.136,1.480,0.995,1.272,4,4,4.104
1777578129666,0.016,0.896,-0.355,0.250,-1.046,0.627,116.894,1.374,0.964,1.245,4,4,3.255
1777578129680,-0.194,0.703,-0.156,0.119,-0.999,0.528,116.264,1.972,0.746,1.136,4,4,3.245
1777578129693,-0.390,0.802,-0.092,-0.012,-0.813,0.240,115.403,3.013,0.896,0.848,4,4,3.279
1777578129707,-0.386,0.791,-0.055,-0.147,-0.573,0.085,114.466,4.016,0.882,0.597,4,4,3.248
1777578129720,-0.248,0.825,-0.288,-0.255,-0.393,0.059,114.239,4.534,0.908,0.472,4,4,3.869
1777578129734,-0.157,0.871,-0.434,-0.298,-0.324,0.060,114.336,4.737,0.986,0.444,4,4,3.276
1777578129747,-0.151,0.948,-0.720,-0.223,-0.400,-0.067,114.900,4.846,1.200,0.463,4,4,3.260
1777578129761,-0.199,0.751,-0.973,-0.142,-0.491,-0.071,116.099,5.035,1.245,0.516,4,4,3.274
1777578129774,-0.656,1.323,-1.418,0.078,-0.427,0.010,117.012,5.632,2.047,0.434,4,4,3.248
1777578129789,-1.433,0.105,-0.778,-0.163,0.015,0.254,119.430,8.066,1.634,0.302,4,4,4.725
1777578129804,0.354,1.636,-0.250,-0.065,0.033,0.050,118.523,7.185,1.692,0.088,4,4,3.269
1777578129817,-0.045,1.042,-0.453,-0.022,0.019,0.057,118.303,6.971,1.137,0.064,4,4,3.271
1777578129830,-0.019,0.958,-0.486,-0.040,-0.003,0.012,118.242,6.710,1.075,0.041,4,4,3.270
1777578129844,-0.051,1.022,-0.436,-0.001,-0.007,-0.005,118.017,6.532,1.113,0.009,4,4,3.264
1777578129857,0.062,0.967,-0.478,0.034,-0.039,-0.094,117.942,6.103,1.081,0.107,1,1,4.006
1777578129871,-0.071,0.946,-0.501,0.038,-0.052,-0.130,117.941,6.002,1.073,0.145,1,1,3.265
1777578129885,-0.111,0.926,-0.506,0.037,-0.052,-0.110,117.972,6.002,1.061,0.127,1,1,3.285
1777578129898,-0.106,0.924,-0.491,0.034,-0.048,-0.088,117.973,5.992,1.052,0.105,1,1,3.268
1777578129911,-0.128,0.921,-0.513,0.026,-0.037,-0.056,118.023,6.032,1.062,0.072,1,1,3.259
1777578129925,-0.125,0.919,-0.494,0.021,-0.022,-0.021,118.033,6.065,1.051,0.037,1,1,3.955
1777578129939,-0.128,0.930,-0.494,0.021,-0.013,0.006,118.030,6.104,1.061,0.025,1,1,3.794
1777578129953,-0.101,0.940,-0.494,0.025,-0.006,0.022,118.017,6.074,1.067,0.034,1,1,3.273
1777578129966,-0.082,0.923,-0.502,0.031,-0.006,0.020,118.039,6.005,1.054,0.037,1,1,3.266
1777578129979,-0.091,0.918,-0.492,0.027,-0.006,0.018,118.046,5.961,1.045,0.033,1,1,3.258
1777578129993,-0.078,0.916,-0.500,0.022,-0.007,0.012,118.072,5.887,1.046,0.026,1,1,3.944
1777578130007,-0.089,0.912,-0.500,0.013,-0.012,0.010,118.102,5.843,1.044,0.020,1,1,3.272
1777578130020,-0.082,0.908,-0.502,0.009,-0.012,0.007,118.138,5.785,1.041,0.017,1,1,3.282
1777578130034,-0.078,0.918,-0.501,0.003,-0.013,0.002,118.160,5.720,1.049,0.013,1,1,3.466
1777578130047,-0.083,0.927,-0.495,0.006,-0.017,-0.003,118.157,5.667,1.054,0.018,1,1,3.301
1777578130061,-0.087,0.917,-0.501,0.008,-0.021,-0.008,118.178,5.627,1.049,0.024,1,1,3.949
1777578130075,-0.102,0.917,-0.496,0.004,-0.020,-0.002,118.189,5.624,1.048,0.020,1,1,3.261
1777578130088,-0.102,0.917,-0.497,0.003,-0.015,0.004,118.201,5.622,1.048,0.016,1,1,3.286
1777578130101,-0.117,0.919,-0.507,0.001,-0.005,0.020,118.230,5.654,1.056,0.021,1,1,3.274
1777578130115,-0.126,0.910,-0.500,-0.008,0.007,0.037,118.254,5.708,1.046,0.039,1,1,3.308
1777578130130,-0.092,0.918,-0.491,-0.008,0.015,0.053,118.249,5.678,1.045,0.056,1,1,4.095
1777578130144,-0.096,0.922,-0.501,-0.010,0.014,0.059,118.261,5.658,1.054,0.061,1,1,3.286
1777578130157,-0.051,0.921,-0.499,-0.005,0.007,0.049,118.269,5.533,1.049,0.049,1,1,3.269
1777578130171,-0.040,0.913,-0.494,0.000,-0.008,0.019,118.277,5.388,1.039,0.020,1,1,3.267
1777578130185,-0.060,0.911,-0.501,0.004,-0.017,-0.010,118.299,5.297,1.042,0.020,1,1,4.512
1777578130199,-0.078,0.932,-0.487,0.005,-0.019,-0.021,118.269,5.251,1.055,0.029,1,1,3.925
1777578130213,-0.075,0.933,-0.495,0.007,-0.023,-0.029,118.255,5.200,1.059,0.037,1,1,3.997
1777578130227,-0.089,0.935,-0.500,0.006,-0.021,-0.026,118.250,5.183,1.064,0.034,1,1,3.261
1777578130240,-0.103,0.929,-0.506,0.009,-0.016,-0.015,118.264,5.199,1.063,0.024,1,1,3.248
1777578130254,-0.100,0.937,-0.507,0.011,-0.011,-0.006,118.271,5.207,1.070,0.017,1,1,3.335
1777578130267,-0.108,0.934,-0.509,0.011,-0.004,0.008,118.284,5.233,1.069,0.014,1,1,3.889
1777578130281,-0.108,0.935,-0.510,0.006,0.002,0.021,118.298,5.256,1.071,0.022,1,1,3.265
1777578130294,-0.108,0.931,-0.501,0.001,0.008,0.034,118.298,5.282,1.063,0.035,1,1,3.258
1777578130308,-0.094,0.937,-0.504,0.001,0.011,0.040,118.298,5.271,1.068,0.041,1,1,3.300
1777578130321,-0.092,0.936,-0.498,0.001,0.015,0.045,118.284,5.256,1.064,0.047,1,1,3.264
1777578130335,-0.110,0.940,-0.499,-0.002,0.027,0.066,118.271,5.284,1.070,0.071,4,4,3.936
1777578130352,-0.100,0.929,-0.493,-0.003,0.038,0.081,118.257,5.290,1.057,0.090,4,4,6.420
1777578130365,-0.088,0.935,-0.503,0.001,0.043,0.093,118.258,5.265,1.066,0.103,4,4,3.258
1777578130379,-0.080,0.923,-0.506,0.009,0.043,0.085,118.279,5.226,1.056,0.096,4,4,4.052
1777578130393,-0.079,0.913,-0.501,0.009,0.043,0.083,118.300,5.187,1.045,0.094,4,4,3.265
1777578130406,-0.073,0.912,-0.514,0.012,0.043,0.081,118.348,5.135,1.049,0.093,4,4,3.974
1777578130420,-0.059,0.927,-0.497,0.015,0.042,0.078,118.341,5.051,1.054,0.090,4,4,3.267
1777578130434,-0.070,0.915,-0.497,0.017,0.037,0.074,118.348,4.998,1.044,0.084,4,4,3.257
1777578130448,-0.063,0.915,-0.501,0.018,0.037,0.068,118.364,4.930,1.045,0.080,4,4,4.157
1777578130461,-0.068,0.932,-0.494,0.017,0.036,0.068,118.345,4.875,1.057,0.079,4,4,3.268
1777578130476,-0.074,0.924,-0.507,0.018,0.037,0.071,118.363,4.838,1.056,0.082,4,4,4.012
1777578130490,-0.049,0.921,-0.503,0.017,0.035,0.065,118.374,4.744,1.050,0.076,4,4,3.265
1777578130506,-0.070,0.935,-0.511,0.025,0.035,0.064,118.386,4.701,1.068,0.077,4,4,5.442
1777578130519,-0.065,0.938,-0.512,0.031,0.033,0.064,118.396,4.647,1.070,0.078,4,4,3.270
1777578130532,-0.071,0.950,-0.507,0.041,0.029,0.072,118.382,4.609,1.079,0.088,4,4,3.262
1777578130546,-0.053,0.923,-0.497,0.041,0.027,0.070,118.379,4.533,1.050,0.085,4,4,3.981
1777578130560,-0.052,0.927,-0.509,0.043,0.021,0.073,118.397,4.458,1.059,0.088,4,4,3.262
1777578130576,-0.069,0.962,-0.503,0.058,0.015,0.077,118.362,4.423,1.088,0.098,4,4,5.569
1777578130589,-0.016,0.914,-0.525,0.054,0.006,0.063,118.428,4.268,1.055,0.083,4,4,3.261
1777578130602,-0.015,0.932,-0.515,0.064,-0.009,0.041,118.450,4.117,1.065,0.077,4,4,3.266
1777578130616,-0.011,0.963,-0.510,0.088,-0.025,0.021,118.427,3.963,1.090,0.094,4,4,3.948
1777578130630,-0.016,0.965,-0.518,0.117,-0.039,0.015,118.418,3.826,1.095,0.125,4,4,3.277
1777578130643,-0.057,0.948,-0.527,0.155,-0.045,0.021,118.447,3.791,1.086,0.162,4,4,3.284
1777578130657,-0.096,1.039,-0.533,0.205,-0.035,0.066,118.391,3.831,1.172,0.218,4,4,3.316
1777578130670,-0.108,1.117,-0.531,0.238,-0.020,0.181,118.262,3.882,1.242,0.300,4,4,3.419
1777578130684,-0.042,1.000,-0.557,0.274,-0.002,0.201,118.299,3.804,1.146,0.340,4,4,3.931
1777578130698,0.070,1.187,-0.534,0.377,0.010,0.097,118.121,3.504,1.304,0.389,4,4,3.264
1777578130711,0.025,0.986,-0.552,0.460,0.018,0.115,118.171,3.294,1.131,0.474,4,4,3.278
1777578130725,-0.010,1.056,-0.561,0.492,0.017,0.126,118.163,3.172,1.196,0.508,4,4,3.269
1777578130740,-0.040,1.031,-0.567,0.556,0.026,0.132,118.191,3.118,1.178,0.572,4,4,5.412
1777578130753,-0.079,1.171,-0.576,0.639,0.044,0.151,118.103,3.134,1.307,0.658,4,4,3.846
1777578130767,-0.078,1.249,-0.579,0.745,0.061,0.119,117.962,3.139,1.379,0.757,4,4,3.251
1777578130781,-0.057,1.422,-0.567,0.911,0.074,0.079,117.689,3.094,1.532,0.917,4,4,3.253
1777578130794,-0.060,1.328,-0.574,1.069,0.079,0.099,117.501,3.062,1.448,1.077,4,4,3.253
1777578130807,-0.088,1.476,-0.562,1.264,0.072,0.130,117.211,3.067,1.582,1.273,4,4,3.267
1777578130821,-0.060,1.495,-0.543,1.494,0.071,0.132,116.893,3.028,1.592,1.501,4,4,3.861
1777578130835,-0.091,1.476,-0.528,1.733,0.085,0.148,116.578,3.041,1.570,1.741,4,4,3.963
1777578130849,-0.089,1.516,-0.512,2.007,0.110,0.129,116.232,3.047,1.603,2.014,4,4,3.423
1777578130862,0.012,1.526,-0.447,2.298,0.103,0.115,115.799,2.895,1.590,2.303,4,4,3.264
1777578130876,0.025,1.638,-0.467,2.501,0.087,0.039,115.366,2.731,1.704,2.503,4,4,3.290
1777578130889,-0.088,1.791,-0.476,2.501,0.112,-0.023,114.908,2.731,1.856,2.504,4,4,3.919
1777578130903,-0.166,2.023,-0.624,2.501,0.182,-0.121,114.568,2.807,2.123,2.511,4,4,3.268
1777578130917,-0.218,2.294,-0.742,2.501,0.300,-0.190,114.278,2.911,2.421,2.526,4,4,3.261
1777578130930,-0.160,2.392,-0.896,2.501,0.373,-0.175,114.114,2.940,2.559,2.535,4,4,3.272
1777578130944,-0.160,2.260,-0.897,2.501,0.438,-0.472,114.007,2.975,2.436,2.583,4,4,3.268
1777578130958,-0.019,1.974,-0.801,2.501,0.501,-0.597,113.923,2.868,2.130,2.620,4,4,3.879
1777578130972,0.007,2.353,-0.458,2.501,0.596,-0.157,113.358,2.735,2.397,2.576,4,4,3.997
1777578130986,0.171,0.257,1.375,2.501,0.593,0.232,108.865,2.312,1.409,2.581,4,4,3.263
1777578130999,0.832,-3.813,-0.270,1.459,0.174,0.369,99.991,1.674,3.912,1.515,4,4,3.332
1777578131012,-0.101,0.493,-0.525,-0.176,0.201,0.255,101.600,1.951,0.727,0.369,4,4,3.265
1777578131026,0.297,0.459,0.094,-0.931,0.203,-0.190,100.589,0.450,0.554,0.971,4,4,3.916
1777578131043,-0.096,1.080,-0.134,-1.011,0.184,-0.343,100.435,0.650,1.092,1.083,4,4,6.691
1777578131057,0.119,0.669,-0.094,-0.877,0.052,-0.464,100.328,0.184,0.686,0.993,4,4,3.268
1777578131070,0.177,0.269,-0.061,-1.054,-0.190,-0.616,100.433,-1.257,0.328,1.235,4,4,3.283
1777578131083,0.182,0.097,0.007,-1.438,-0.440,-0.717,99.789,-3.906,0.207,1.666,4,4,3.274
1777578131097,0.156,0.095,0.090,-1.879,-0.665,-0.729,97.462,-5.917,0.204,2.122,4,4,3.924
1777578131111,0.135,0.208,0.090,-2.263,-0.850,-0.655,96.108,-7.009,0.264,2.505,4,4,3.276
1777578131124,0.093,0.341,0.040,-2.501,-0.953,-0.576,95.547,-7.362,0.356,2.738,4,4,3.256
1777578131137,-0.024,0.471,-0.060,-2.501,-0.939,-0.521,95.619,-6.914,0.476,2.722,4,4,3.266
1777578131151,-0.125,0.542,-0.146,-2.501,-0.816,-0.500,96.034,-6.064,0.575,2.678,4,4,3.255
1777578131164,-0.146,0.627,-0.199,-2.501,-0.631,-0.513,96.540,-5.249,0.674,2.630,4,4,4.060
1777578131179,-0.075,0.721,-0.244,-2.501,-0.450,-0.501,97.070,-4.772,0.765,2.590,4,4,3.449
1777578131192,0.008,0.893,-0.342,-2.501,-0.316,-0.370,97.677,-4.584,0.956,2.548,4,4,3.265
1777578131205,0.105,1.018,-0.423,-2.501,-0.232,-0.165,98.328,-4.623,1.107,2.518,4,4,3.284
1777578131219,0.197,1.153,-0.522,-2.501,-0.222,0.006,99.029,-4.807,1.280,2.511,4,4,3.269
1777578131234,0.230,1.330,-0.672,-2.501,-0.271,0.143,99.807,-4.980,1.507,2.520,5,5,5.457
1777578131248,0.213,1.384,-0.827,-2.501,-0.356,0.281,100.727,-5.092,1.626,2.542,5,5,3.257
1777578131261,0.123,1.365,-0.961,-2.501,-0.404,0.384,101.795,-5.053,1.674,2.563,5,5,3.245
1777578131276,-0.013,1.343,-1.107,-2.501,-0.368,0.394,103.007,-4.813,1.741,2.559,5,5,3.274
1777578131289,-0.174,1.361,-1.268,-2.501,-0.237,0.360,104.317,-4.369,1.868,2.538,5,5,3.257
1777578131303,-0.281,1.482,-1.482,-2.501,-0.035,0.386,105.659,-3.844,2.115,2.531,5,5,4.431
1777578131317,-0.240,1.549,-1.789,-2.501,0.117,0.464,107.122,-3.423,2.379,2.547,5,5,3.253
1777578131333,-0.258,1.480,-2.039,-2.501,0.155,0.614,108.736,-3.018,2.533,2.580,5,5,5.312
1777578131346,-0.358,1.359,-2.251,-2.358,0.179,0.672,110.492,-2.547,2.654,2.458,5,5,3.274
1777578131359,-0.368,1.216,-2.437,-1.959,0.188,0.451,112.372,-2.098,2.748,2.020,5,5,3.258
1777578131373,-0.188,0.945,-2.534,-1.486,0.155,-0.099,114.435,-1.833,2.711,1.497,1,1,3.965
1777578131387,0.147,0.763,-2.653,-0.950,0.027,-0.546,116.601,-1.886,2.765,1.096,1,1,3.254
1777578131400,0.211,0.607,-2.703,-0.429,-0.060,-0.393,118.820,-1.994,2.778,0.586,1,1,3.266
1777578131414,0.206,0.671,-2.621,0.111,-0.081,-0.086,120.867,-2.097,2.714,0.162,1,1,3.266
1777578131429,1.826,4.000,-3.324,1.859,-0.408,-1.933,121.255,-2.851,5.512,2.712,1,1,5.481
1777578131443,-1.501,1.492,0.019,2.501,0.002,-0.461,119.856,-0.751,2.117,2.543,1,1,3.941
1777578131457,-0.224,1.430,0.162,2.359,0.136,-0.348,118.268,-0.331,1.457,2.388,1,1,3.259
1777578131470,-0.314,0.979,-0.438,2.419,0.144,-0.348,118.086,0.396,1.118,2.448,1,1,3.279
1777578131483,-0.170,0.711,-0.683,2.126,0.093,-0.110,118.777,0.806,1.000,2.131,1,1,3.267
1777578131498,0.008,-0.088,-1.519,1.304,0.173,-0.070,105.856,0.758,1.522,1.317,1,1,3.276
1777578131511,0.149,0.681,-0.801,0.913,0.066,-0.375,107.333,0.373,1.062,0.989,1,1,3.946
1777578131525,-0.199,0.415,-0.909,0.403,-0.181,-0.228,109.438,0.848,1.019,0.497,1,1,3.258
1777578131540,-0.286,0.942,-0.520,0.286,-0.078,-0.068,109.852,1.462,1.113,0.304,1,1,3.293
1777578131553,-0.331,0.801,-0.648,0.164,0.023,0.058,110.689,2.177,1.082,0.175,1,1,3.258
1777578131567,-0.234,1.013,-0.499,0.110,0.092,0.162,110.931,2.594,1.153,0.217,1,1,3.696
1777578131580,-0.095,0.969,-0.535,0.092,0.131,0.172,111.280,2.695,1.112,0.235,1,1,3.891
1777578131596,-0.041,0.934,-0.531,0.097,0.104,0.117,111.645,2.673,1.076,0.184,1,1,5.405
1777578131610,-0.112,0.872,-0.554,0.076,0.093,0.099,112.115,2.827,1.039,0.156,1,1,3.251
1777578131623,-0.138,0.887,-0.529,0.046,0.103,0.120,112.496,3.037,1.042,0.164,1,1,3.257
1777578131637,-0.080,0.931,-0.529,0.037,0.096,0.131,112.807,3.090,1.073,0.167,1,1,3.275
1777578131650,-0.113,0.928,-0.522,0.034,0.097,0.136,113.093,3.219,1.071,0.170,1,1,3.939
1777578131664,-0.081,0.914,-0.523,0.029,0.092,0.136,113.386,3.270,1.056,0.167,1,1,3.272
1777578131677,-0.068,0.923,-0.514,0.029,0.089,0.119,113.636,3.289,1.059,0.151,1,1,3.271
1777578131691,-0.095,0.934,-0.494,0.047,0.087,0.117,113.823,3.369,1.061,0.153,1,1,4.010
1777578131705,-0.072,0.935,-0.517,0.052,0.079,0.113,114.047,3.391,1.071,0.148,1,1,3.300
1777578131718,-0.057,0.876,-0.528,0.058,0.059,0.108,114.355,3.382,1.025,0.136,1,1,3.968
1777578131734,-0.052,0.933,-0.492,0.057,0.035,0.083,114.507,3.358,1.056,0.107,1,1,3.801
1777578131747,-0.121,1.009,-0.518,0.058,0.009,0.051,114.624,3.477,1.140,0.078,1,1,3.251
1777578131760,-0.056,0.857,-0.532,0.045,-0.013,0.039,114.940,3.465,1.011,0.061,1,1,3.290
1777578131774,-0.010,0.935,-0.519,0.061,-0.039,0.032,115.118,3.337,1.069,0.079,1,1,3.257
1777578131787,-0.060,0.965,-0.507,0.077,-0.062,0.090,115.232,3.329,1.091,0.134,1,1,3.854
1777578131801,-0.164,1.346,-0.488,0.223,-0.075,0.231,114.999,3.470,1.441,0.329,1,1,3.254
1777578131815,-0.015,1.197,-0.498,0.439,-0.060,0.081,114.894,3.347,1.297,0.451,1,1,3.242
1777578131829,0.078,1.100,-0.508,0.520,-0.073,0.051,114.890,3.041,1.214,0.528,1,1,4.428
1777578131842,-0.042,0.983,-0.567,0.569,-0.063,0.092,115.113,3.000,1.135,0.580,1,1,3.257
1777578131856,-0.144,1.000,-0.575,0.598,-0.033,0.053,115.323,3.181,1.163,0.601,1,1,3.959
1777578131871,-0.123,1.075,-0.580,0.642,-0.010,0.022,115.456,3.292,1.228,0.643,1,1,3.276
1777578131884,-0.070,1.340,-0.577,0.776,0.017,-0.036,115.361,3.269,1.461,0.777,1,1,3.259
1777578131898,-0.157,1.283,-0.599,0.928,0.037,-0.047,115.346,3.402,1.425,0.930,1,1,3.273
1777578131911,-0.233,1.255,-0.614,1.041,0.088,0.002,115.378,3.667,1.417,1.045,1,1,3.255
1777578131925,-0.300,1.385,-0.600,1.212,0.140,0.087,115.291,3.997,1.539,1.223,4,4,3.957
1777578131939,-0.157,1.425,-0.564,1.404,0.155,0.148,115.130,4.078,1.540,1.420,4,4,3.274
1777578131954,-0.043,1.593,-0.555,1.627,0.137,0.183,114.871,3.964,1.688,1.643,4,4,5.207
1777578131968,-0.010,1.852,-0.526,2.005,0.086,0.141,114.477,3.804,1.926,2.012,4,4,3.263
1777578131981,0.125,2.182,-0.394,2.496,0.055,0.021,113.853,3.496,2.221,2.497,4,4,3.266
1777578131995,0.352,2.292,-0.296,2.501,-0.051,-0.071,113.132,2.964,2.337,2.503,4,4,3.984
1777578132009,0.192,2.677,-0.387,2.501,-0.172,-0.061,112.481,2.657,2.712,2.508,4,4,3.266
1777578132024,-0.204,3.078,-0.568,2.501,-0.095,0.106,111.955,2.703,3.137,2.505,4,4,5.530
1777578132038,-0.469,2.659,-0.463,2.501,0.087,0.377,111.427,3.016,2.739,2.531,4,4,3.261
1777578132051,-0.333,2.860,-0.673,2.501,0.071,-0.080,111.069,3.167,2.957,2.504,4,4,3.259
1777578132064,0.121,2.462,-0.368,2.501,0.079,0.061,110.519,2.906,2.492,2.503,4,4,3.947
1777578132078,-0.315,3.139,-0.223,2.501,0.136,1.399,109.799,3.029,3.163,2.869,4,4,3.264
1777578132092,0.758,-1.686,1.076,2.501,0.003,1.880,102.485,1.989,2.139,3.129,4,4,3.302
1777578132105,-0.017,-2.985,-0.530,1.421,-0.386,1.438,93.627,1.917,3.032,2.058,4,4,3.261
1777578132121,-0.667,0.237,-0.445,-0.285,-0.357,0.666,96.178,4.147,0.836,0.808,4,4,5.489
1777578132134,-0.463,0.725,0.209,-1.285,-0.104,-0.231,95.205,5.346,0.885,1.310,4,4,3.943
1777578132148,-0.501,1.200,0.022,-1.237,0.075,-0.641,94.931,6.103,1.300,1.395,4,4,3.262
1777578132162,-0.323,0.813,0.085,-1.109,0.156,-0.910,94.455,6.779,0.879,1.443,4,4,3.281
1777578132175,-0.225,0.406,0.072,-1.219,0.141,-0.879,93.823,7.736,0.469,1.510,4,4,3.257
1777578132190,-0.089,0.127,0.150,-1.593,0.029,-0.757,91.478,8.461,0.216,1.764,4,4,3.316
1777578132203,0.049,0.031,0.281,-2.127,-0.178,-0.682,87.756,7.660,0.286,2.241,4,4,3.937
1777578132218,0.101,0.099,0.353,-2.501,-0.426,-0.596,84.605,6.650,0.380,2.607,4,4,4.547
1777578132232,0.073,0.320,0.357,-2.501,-0.612,-0.458,82.733,5.981,0.485,2.616,4,4,3.404
1777578132245,0.014,0.476,0.282,-2.501,-0.666,-0.334,81.710,5.656,0.553,2.610,4,4,3.252
1777578132260,-0.083,0.674,0.152,-2.501,-0.609,-0.302,81.515,5.710,0.696,2.592,4,4,4.395
1777578132273,-0.127,0.818,0.015,-2.501,-0.474,-0.346,81.842,5.845,0.828,2.569,4,4,3.854
1777578132288,-0.034,0.981,-0.144,-2.501,-0.350,-0.360,82.564,5.675,0.993,2.551,4,4,3.836
1777578132301,0.062,1.104,-0.318,-2.501,-0.284,-0.159,83.593,5.293,1.151,2.522,4,4,3.245
1777578132316,0.173,1.271,-0.500,-2.501,-0.269,0.211,84.811,4.746,1.377,2.525,4,4,5.240
1777578132330,0.190,1.536,-0.786,-2.501,-0.287,0.577,86.223,4.264,1.736,2.583,4,4,3.248
1777578132343,0.051,1.607,-1.098,-2.501,-0.272,0.675,87.890,4.012,1.947,2.605,5,5,3.925
1777578132357,-0.084,1.663,-1.430,-2.501,-0.165,0.390,89.762,3.933,2.195,2.537,5,5,3.271
1777578132371,-0.101,1.809,-1.790,-2.501,-0.025,0.011,91.727,3.861,2.546,2.502,5,5,3.266
1777578132386,0.068,1.947,-2.205,-2.501,0.076,-0.032,93.775,3.634,2.942,2.503,5,5,4.076
1777578132399,0.205,1.872,-2.483,-2.501,0.072,0.301,95.927,3.310,3.117,2.520,5,5,3.263
1777578132412,0.176,1.625,-2.749,-2.501,0.060,0.704,98.266,3.027,3.198,2.599,5,5,3.938
1777578132427,-0.128,1.332,-3.207,-2.495,0.092,1.006,100.854,2.988,3.475,2.692,5,5,3.309
1777578132440,-0.633,0.948,-3.432,-1.855,0.319,0.819,103.640,3.298,3.616,2.052,5,5,3.295
1777578132453,-0.573,0.676,-3.394,-1.053,0.591,0.052,106.487,3.564,3.508,1.208,5,5,3.248
1777578132467,-0.567,0.318,-3.530,-0.403,0.643,-0.206,109.477,3.806,3.589,0.787,5,5,3.256
1777578132480,1.177,4.000,-2.710,2.501,-0.041,-1.708,110.117,3.041,4.973,3.029,5,5,3.896
1777578132494,-0.588,0.192,0.093,2.501,0.614,-0.382,108.105,5.972,0.626,2.604,5,5,3.258
1777578132507,0.121,1.767,0.676,2.501,0.026,-0.375,106.398,5.551,1.896,2.529,5,5,3.254
1777578132524,-0.362,0.649,-0.615,2.501,-0.018,-0.295,107.581,6.271,0.965,2.519,5,5,6.325
1777578132537,-0.261,0.435,-1.122,2.501,0.245,-0.181,109.822,6.532,1.232,2.520,5,5,3.259
1777578132550,0.482,0.643,-0.958,1.699,-0.140,-0.403,111.409,5.255,1.250,1.752,5,5,3.943
1777578132565,0.272,1.178,-0.599,0.982,-0.510,-0.590,111.651,4.517,1.349,1.254,5,5,3.296
1777578132578,-0.488,1.024,-0.500,0.406,-0.239,-0.205,111.842,5.332,1.240,0.514,5,5,3.250
1777578132591,-0.480,0.677,-0.761,0.218,-0.065,0.092,113.002,6.203,1.126,0.245,5,5,3.305
1777578132605,-0.237,0.888,-0.565,0.076,0.069,0.231,113.415,6.486,1.079,0.253,5,5,3.255
1777578132618,-0.139,0.942,-0.599,0.039,0.143,0.259,113.810,6.514,1.125,0.298,1,1,3.975
1777578132635,-0.038,0.960,-0.511,0.028,0.142,0.216,113.995,6.315,1.088,0.260,1,1,3.271
1777578132649,-0.081,0.901,-0.535,0.020,0.131,0.185,114.288,6.233,1.051,0.227,1,1,3.264
1777578132662,-0.098,0.909,-0.542,0.001,0.127,0.181,114.573,6.193,1.063,0.221,1,1,3.267
1777578132675,-0.155,0.932,-0.530,-0.006,0.139,0.212,114.794,6.282,1.083,0.254,1,1,3.267
1777578132690,-0.103,0.939,-0.531,-0.010,0.151,0.230,115.001,6.245,1.084,0.275,1,1,4.000
1777578132704,-0.091,0.915,-0.523,-0.002,0.144,0.189,115.208,6.188,1.058,0.238,1,1,3.257
1777578132717,-0.023,0.934,-0.515,0.017,0.112,0.128,115.369,5.970,1.067,0.171,1,1,3.290
1777578132731,-0.002,0.888,-0.528,0.018,0.070,0.082,115.604,5.713,1.034,0.110,1,1,3.270
1777578132746,-0.044,0.882,-0.533,-0.004,0.040,0.039,115.846,5.571,1.032,0.056,1,1,5.646
1777578132760,-0.060,0.888,-0.520,-0.012,0.015,0.019,116.042,5.473,1.031,0.027,1,1,3.861
1777578132774,-0.030,0.854,-0.554,0.036,-0.017,0.017,116.345,5.307,1.018,0.044,1,1,3.252
1777578132787,-0.061,0.894,-0.541,0.064,-0.037,0.004,116.556,5.220,1.047,0.074,1,1,3.269
1777578132801,-0.001,0.953,-0.522,0.102,-0.060,-0.031,116.650,4.994,1.087,0.122,1,1,3.249
1777578132815,-0.025,0.947,-0.555,0.183,-0.089,-0.135,116.813,4.832,1.098,0.244,1,1,3.846
1777578132828,-0.039,0.949,-0.530,0.212,-0.114,-0.099,116.916,4.711,1.087,0.260,1,1,3.851
1777578132842,-0.181,1.122,-0.529,0.284,-0.111,-0.093,116.842,4.868,1.254,0.319,1,1,3.582
1777578132856,-0.022,0.959,-0.535,0.315,-0.101,-0.059,116.942,4.705,1.099,0.336,1,1,3.266
1777578132869,-0.081,1.020,-0.557,0.357,-0.093,-0.027,117.017,4.673,1.165,0.370,1,1,3.258
1777578132886,-0.210,0.948,-0.566,0.384,-0.055,0.011,117.184,4.940,1.123,0.388,1,1,6.455
1777578132899,-0.287,0.897,-0.581,0.356,0.006,0.037,117.436,5.380,1.107,0.358,1,1,3.944
1777578132913,-0.323,0.834,-0.591,0.328,0.070,0.102,117.780,5.912,1.072,0.351,1,1,3.267
1777578132927,-0.257,0.958,-0.609,0.325,0.119,0.155,117.984,6.210,1.164,0.379,1,1,3.279
1777578132940,-0.167,1.087,-0.580,0.371,0.146,0.185,117.987,6.276,1.243,0.439,1,1,3.261
1777578132954,-0.116,1.119,-0.607,0.455,0.163,0.212,118.008,6.229,1.278,0.528,1,1,3.278
1777578132968,-0.180,1.309,-0.605,0.596,0.184,0.234,117.868,6.268,1.453,0.667,1,1,3.919
1777578132982,-0.094,1.463,-0.608,0.794,0.209,0.208,117.635,6.142,1.587,0.847,1,1,3.262
1777578132996,0.055,1.449,-0.576,1.026,0.167,0.135,117.375,5.785,1.560,1.048,1,1,3.304
1777578133009,0.079,1.545,-0.560,1.260,0.116,0.047,117.048,5.412,1.645,1.267,1,1,3.262
1777578133023,0.021,1.590,-0.588,1.506,0.075,0.007,116.753,5.145,1.695,1.508,1,1,3.268
1777578133036,-0.007,1.717,-0.538,1.796,0.027,-0.030,116.344,4.929,1.799,1.796,4,4,3.978
1777578133053,0.104,1.967,-0.457,2.304,-0.038,-0.096,115.764,4.584,2.022,2.307,4,4,3.279
1777578133067,0.175,2.091,-0.401,2.501,-0.115,-0.181,115.112,4.178,2.136,2.510,4,4,3.268
1777578133083,0.216,2.556,-0.415,2.501,-0.183,-0.229,114.417,3.787,2.598,2.518,4,4,5.766
1777578133096,0.113,2.812,-0.643,2.501,-0.233,-0.124,113.912,3.524,2.887,2.515,4,4,3.269
1777578133109,0.020,2.873,-0.673,2.501,-0.144,0.167,113.443,3.353,2.951,2.511,4,4,3.971
1777578133124,-0.213,2.364,-1.003,2.501,-0.164,0.404,113.424,3.414,2.577,2.539,4,4,3.269
1777578133137,-0.083,2.298,-0.995,2.501,-0.083,0.356,113.424,3.349,2.506,2.528,4,4,3.254
1777578133152,-0.172,3.015,-0.244,2.501,-0.231,0.748,112.601,3.345,3.030,2.621,4,4,3.289
1777578133166,0.818,-0.929,2.325,2.501,-0.433,0.579,106.724,2.407,2.634,2.604,4,4,3.264
1777578133182,-0.262,-0.582,-0.677,1.693,-0.409,0.878,95.963,3.017,0.931,1.951,4,4,6.850
1777578133196,-0.412,0.663,0.182,0.576,-0.046,0.499,95.031,4.238,0.801,0.763,4,4,3.273
1777578133209,-0.456,0.658,0.167,-0.092,0.204,0.046,94.186,5.533,0.817,0.228,4,4,3.267
1777578133223,-0.608,0.766,0.179,-0.298,0.552,-0.170,93.427,6.940,0.994,0.650,4,4,3.269
1777578133236,-0.346,0.315,0.260,-0.666,0.742,-0.287,91.549,8.399,0.535,1.038,4,4,3.289
1777578133253,-0.167,-0.018,0.322,-1.348,0.740,-0.452,87.409,9.229,0.363,1.603,4,4,3.964
1777578133267,0.040,0.045,0.420,-2.012,0.492,-0.611,83.853,8.592,0.425,2.159,4,4,3.280
1777578133284,0.092,0.242,0.427,-2.501,0.044,-0.478,81.480,7.751,0.499,2.547,4,4,7.285
1777578133298,0.143,0.391,0.382,-2.501,-0.307,-0.272,79.914,6.772,0.565,2.535,4,4,3.670
1777578133315,0.070,0.495,0.302,-2.501,-0.605,-0.064,78.983,6.174,0.584,2.574,4,4,6.461
1777578133328,-0.045,0.621,0.182,-2.501,-0.841,-0.024,78.750,6.077,0.648,2.639,4,4,3.934
1777578133344,-0.072,0.790,0.041,-2.501,-0.966,-0.047,79.111,6.038,0.794,2.682,4,4,5.482
1777578133358,-0.113,0.964,-0.141,-2.501,-1.003,0.012,79.951,6.062,0.981,2.695,4,4,3.255
1777578133371,-0.188,1.081,-0.388,-2.501,-0.946,0.178,81.254,6.203,1.164,2.680,4,4,3.263
1777578133384,-0.278,1.236,-0.590,-2.501,-0.807,0.383,82.752,6.434,1.397,2.656,4,4,3.255
1777578133398,-0.412,1.453,-0.897,-2.501,-0.553,0.508,84.455,6.746,1.756,2.612,5,5,3.922
1777578133414,-0.504,1.549,-1.323,-2.501,-0.180,0.462,86.468,7.058,2.098,2.550,5,5,4.361
1777578133427,-0.455,1.595,-1.713,-2.501,0.152,0.329,88.680,7.230,2.385,2.527,5,5,3.253
1777578133443,-0.336,1.517,-2.070,-2.501,0.396,0.236,91.089,7.240,2.588,2.543,5,5,4.383
1777578133456,-0.147,1.487,-2.430,-2.501,0.502,0.210,93.602,7.053,2.853,2.560,5,5,3.256
1777578133469,0.017,1.372,-2.583,-2.501,0.432,0.350,96.157,6.730,2.924,2.562,5,5,3.940
1777578133483,0.099,1.229,-2.785,-2.501,0.235,0.702,98.782,6.354,3.046,2.609,5,5,3.258
1777578133497,-0.021,1.020,-2.985,-2.396,0.124,0.754,101.508,6.092,3.154,2.515,5,5,3.275
1777578133510,-0.259,0.851,-3.109,-1.898,0.222,0.476,104.272,6.027,3.233,1.970,5,5,3.262
1777578133524,-0.238,0.654,-3.083,-1.241,0.423,0.100,107.060,5.952,3.160,1.315,5,5,3.259
1777578133539,-0.150,0.529,-3.068,-0.461,0.601,0.081,109.822,5.812,3.117,0.762,1,1,5.982
1777578133553,-0.843,2.462,-2.735,2.501,0.524,-0.877,111.054,6.122,3.775,2.702,1,1,3.267
1777578133567,-0.563,0.639,-0.412,2.501,0.890,-0.428,111.566,7.451,0.946,2.689,1,1,3.599
1777578133580,-0.246,1.585,0.150,2.501,0.174,-0.388,110.386,7.510,1.611,2.537,1,1,3.262
1777578133594,-0.079,0.768,-0.973,2.501,-0.094,-0.358,111.756,7.341,1.242,2.529,1,1,3.274
1777578133607,0.022,0.146,-1.273,1.446,-0.114,-0.284,114.455,6.976,1.281,1.478,1,1,3.969
1777578133621,-0.282,0.191,-1.333,0.842,-0.274,-0.282,116.965,7.188,1.376,0.929,1,1,3.267
1777578133635,-0.629,0.783,-0.679,0.434,-0.093,-0.148,117.577,8.241,1.212,0.468,1,1,4.133
1777578133649,-0.371,0.765,-0.628,0.233,0.011,0.147,118.094,8.779,1.057,0.275,1,1,3.264
1777578133662,-0.243,0.803,-0.628,0.096,0.107,0.234,118.528,8.981,1.048,0.275,1,1,3.253
1777578133676,-0.156,0.972,-0.490,0.098,0.122,0.209,118.450,8.945,1.100,0.262,1,1,3.936
1777578133690,-0.009,0.969,-0.517,0.081,0.123,0.194,118.434,8.574,1.099,0.244,1,1,3.265
1777578133704,0.049,0.954,-0.510,0.105,0.061,0.092,118.420,8.085,1.082,0.152,1,1,4.044
1777578133717,-0.041,0.855,-0.561,0.094,0.025,0.046,118.633,7.832,1.024,0.107,1,1,3.270
1777578133730,-0.091,0.906,-0.532,0.076,0.009,0.039,118.712,7.705,1.055,0.086,1,1,3.264
1777578133744,-0.118,0.913,-0.525,0.067,0.002,0.044,118.764,7.647,1.060,0.080,1,1,3.942
1777578133758,-0.133,0.930,-0.528,0.060,0.021,0.072,118.800,7.622,1.078,0.096,1,1,3.267
1777578133771,-0.144,0.922,-0.541,0.054,0.043,0.099,118.869,7.624,1.079,0.121,1,1,3.438
1777578133785,-0.141,0.908,-0.536,0.041,0.064,0.124,118.942,7.625,1.064,0.145,1,1,3.418
1777578133798,-0.071,0.936,-0.505,0.051,0.056,0.124,118.915,7.457,1.066,0.146,1,1,3.266
1777578133812,-0.066,0.924,-0.521,0.050,0.045,0.106,118.938,7.286,1.063,0.126,1,1,3.937
1777578133826,-0.057,0.915,-0.519,0.038,0.037,0.080,118.966,7.103,1.054,0.096,1,1,3.259
1777578133840,-0.096,1.073,-0.425,0.042,0.021,0.057,118.643,7.001,1.158,0.074,1,1,3.275
1777578133853,-0.053,0.940,-0.520,0.055,0.007,0.030,118.658,6.819,1.075,0.063,1,1,3.252
1777578133867,-0.063,0.974,-0.531,0.081,-0.005,0.016,118.655,6.663,1.111,0.083,1,1,3.854
1777578133881,-0.084,0.908,-0.553,0.152,-0.014,-0.064,118.772,6.571,1.067,0.165,1,1,3.853
1777578133895,-0.287,1.189,-0.545,0.246,-0.011,0.099,118.591,6.824,1.339,0.265,1,1,3.252
1777578133908,0.018,0.916,-0.533,0.327,-0.009,0.105,118.661,6.483,1.060,0.343,1,1,3.392
1777578133922,-0.081,1.009,-0.545,0.370,-0.015,0.076,118.649,6.376,1.150,0.378,1,1,3.242
1777578133936,-0.030,0.998,-0.569,0.411,-0.010,0.066,118.695,6.164,1.149,0.416,1,1,4.391
1777578133949,-0.061,1.065,-0.574,0.481,-0.016,0.055,118.678,6.019,1.212,0.484,1,1,3.849
1777578133964,-0.118,1.042,-0.577,0.524,0.004,0.016,118.690,6.003,1.197,0.524,1,1,4.160
1777578133978,-0.138,0.974,-0.574,0.556,0.029,-0.010,118.770,6.044,1.139,0.556,1,1,3.265
1777578133991,-0.167,0.897,-0.586,0.566,0.048,0.017,118.961,6.167,1.085,0.568,1,1,3.258
1777578134005,-0.216,0.923,-0.616,0.559,0.074,0.057,119.171,6.379,1.130,0.567,1,1,3.278
1777578134018,-0.118,1.055,-0.609,0.614,0.101,0.077,119.206,6.343,1.224,0.627,1,1,3.938
1777578134033,-0.145,1.120,-0.630,0.698,0.125,0.116,119.213,6.347,1.293,0.718,1,1,4.625
1777578134047,-0.235,1.297,-0.633,0.852,0.151,0.142,119.073,6.474,1.462,0.877,1,1,3.265
1777578134060,-0.146,1.377,-0.630,1.023,0.172,0.144,118.876,6.432,1.521,1.047,1,1,3.267
1777578134073,-0.029,1.445,-0.598,1.235,0.132,0.132,118.597,6.196,1.564,1.249,1,1,3.263
1777578134087,-0.021,1.543,-0.608,1.450,0.108,0.113,118.287,5.956,1.659,1.458,4,4,3.921
1777578134101,-0.017,1.758,-0.569,1.763,0.084,0.093,117.835,5.718,1.848,1.768,4,4,3.483
1777578134114,0.109,1.923,-0.486,2.165,0.036,-0.019,117.238,5.331,1.987,2.165,4,4,3.271
1777578134129,0.279,2.134,-0.383,2.501,-0.057,-0.131,116.492,4.777,2.186,2.505,4,4,4.167
1777578134142,0.248,2.281,-0.378,2.501,-0.155,-0.233,115.745,4.300,2.325,2.517,4,4,3.262
1777578134156,0.053,2.758,-0.516,2.501,-0.201,-0.193,115.083,4.065,2.806,2.517,4,4,3.917
1777578134170,-0.076,2.943,-0.763,2.501,-0.146,-0.049,114.621,3.950,3.041,2.506,4,4,3.282
1777578134183,-0.146,2.395,-0.853,2.501,-0.086,0.264,114.401,3.921,2.547,2.517,4,4,3.262
1777578134198,-0.158,2.443,-1.255,2.501,-0.028,0.269,114.524,3.893,2.751,2.516,4,4,4.443
1777578134211,0.156,1.902,-1.104,2.501,-0.155,0.844,114.768,3.546,2.205,2.644,4,4,3.271
1777578134224,0.042,2.323,-0.031,2.501,-0.331,1.065,113.718,3.345,2.323,2.739,4,4,3.928
1777578134238,0.961,-1.346,0.605,2.501,-0.846,0.762,105.868,1.753,1.761,2.748,4,4,3.266
1777578134252,-0.347,0.400,-0.518,1.276,-0.602,0.682,107.461,2.899,0.741,1.567,4,4,3.261
1777578134266,-0.342,0.406,-0.144,0.389,-0.258,0.303,107.548,4.451,0.550,0.557,4,4,3.277
1777578134279,-0.575,0.667,-0.054,-0.122,0.104,0.007,106.984,6.035,0.883,0.161,4,4,3.346
1777578134294,-0.623,0.563,0.051,-0.357,0.578,-0.150,106.015,7.860,0.841,0.696,4,4,7.099
1777578134311,-0.510,0.101,0.194,-0.842,0.940,-0.217,102.584,10.439,0.555,1.280,4,4,4.240
1777578134325,-0.449,-0.040,0.360,-1.302,1.098,-0.233,97.820,12.218,0.577,1.719,4,4,3.288
1777578134338,-0.329,-0.051,0.434,-1.757,1.076,-0.243,93.248,13.299,0.547,2.075,4,4,3.259
1777578134351,-0.178,-0.028,0.422,-2.185,0.860,-0.280,89.003,13.717,0.459,2.364,4,4,3.259
1777578134365,-0.038,0.020,0.402,-2.501,0.536,-0.382,85.237,13.354,0.405,2.586,4,4,3.857
1777578134379,-0.010,0.125,0.333,-2.501,0.140,-0.329,82.406,12.840,0.356,2.527,4,4,3.242
1777578134392,-0.041,0.296,0.240,-2.501,-0.199,-0.162,81.033,12.546,0.383,2.515,4,4,3.259
1777578134405,-0.079,0.404,0.114,-2.501,-0.467,-0.094,80.739,12.462,0.427,2.546,4,4,3.274
1777578134419,-0.076,0.516,-0.016,-2.501,-0.676,-0.192,81.220,12.285,0.522,2.598,4,4,3.260
1777578134432,-0.165,0.647,-0.197,-2.501,-0.823,-0.265,82.343,12.346,0.696,2.647,5,5,3.849
1777578134446,-0.229,0.731,-0.319,-2.501,-0.853,-0.230,83.708,12.507,0.829,2.653,5,5,3.247
1777578134460,-0.306,0.844,-0.526,-2.501,-0.791,-0.073,85.379,12.708,1.041,2.624,5,5,3.714
1777578134473,-0.348,1.087,-0.752,-2.501,-0.654,0.043,87.098,12.798,1.367,2.586,5,5,3.286
1777578134486,-0.366,1.368,-0.982,-2.501,-0.482,0.037,88.786,12.775,1.723,2.548,5,5,3.254
1777578134500,-0.354,1.495,-1.256,-2.501,-0.284,-0.129,90.589,12.666,1.984,2.521,5,5,3.897
1777578134514,-0.311,1.560,-1.513,-2.501,-0.089,-0.361,92.494,12.468,2.195,2.529,5,5,3.250
1777578134527,-0.192,1.670,-1.767,-2.501,0.040,-0.364,94.423,12.120,2.439,2.528,5,5,3.270
1777578134541,-0.007,1.810,-2.036,-2.501,0.073,-0.088,96.345,11.597,2.724,2.504,5,5,3.251
1777578134555,0.242,1.879,-2.250,-2.501,-0.032,0.262,98.260,10.884,2.941,2.515,5,5,3.323
1777578134569,0.312,1.802,-2.567,-2.501,-0.305,0.610,100.301,10.159,3.152,2.593,5,5,3.936
1777578134585,0.011,1.386,-2.843,-2.017,-0.541,0.667,102.650,9.706,3.163,2.192,5,5,5.524
1777578134598,-0.422,0.928,-3.044,-1.323,-0.508,0.349,105.291,9.612,3.210,1.459,5,5,3.265
1777578134612,-0.441,0.718,-3.080,-0.624,-0.341,0.045,107.985,9.539,3.193,0.712,5,5,3.274
1777578134625,-0.878,-4.000,-4.000,0.762,0.074,-0.010,97.358,9.508,5.725,0.765,5,5,3.278
1777578134639,0.188,-0.449,-2.710,2.501,-0.166,-0.141,85.640,8.920,2.754,2.511,5,5,3.930
1777578134653,0.128,1.162,0.106,2.501,-0.112,-0.005,85.603,8.257,1.174,2.504,5,5,4.045
1777578134667,-0.005,1.098,-0.522,2.501,-0.043,-0.317,86.907,7.906,1.216,2.522,5,5,3.261
1777578134680,-0.225,0.677,-0.867,2.387,0.195,-0.338,89.318,8.066,1.123,2.418,5,5,3.263
1777578134694,0.318,0.124,-1.153,1.352,0.008,-0.340,93.014,7.042,1.202,1.394,5,5,3.276
1777578134707,-0.222,0.741,-0.740,0.974,-0.090,-0.434,94.848,7.257,1.071,1.070,1,1,3.966
1777578134722,-0.193,0.887,-0.496,0.534,-0.208,-0.229,95.914,7.411,1.035,0.618,1,1,3.730
1777578134735,-0.392,0.743,-0.615,0.297,-0.073,-0.037,97.388,8.054,1.042,0.308,1,1,3.274
1777578134748,-0.324,0.719,-0.560,0.211,-0.038,0.036,98.723,8.558,0.968,0.218,1,1,3.265
1777578134762,-0.264,0.893,-0.599,0.094,0.064,0.149,99.823,8.786,1.107,0.187,1,1,3.281
1777578134775,-0.106,0.977,-0.560,0.072,0.109,0.200,100.697,8.638,1.131,0.239,1,1,3.935
1777578134789,-0.014,0.930,-0.524,0.071,0.089,0.123,101.515,8.293,1.068,0.167,1,1,3.507
1777578134803,-0.023,0.889,-0.535,0.073,0.053,0.063,102.370,7.987,1.038,0.110,1,1,3.367
1777578134816,-0.080,0.889,-0.545,0.070,0.037,0.045,103.207,7.830,1.046,0.091,1,1,3.407
1777578134830,-0.116,0.894,-0.544,0.052,0.042,0.041,104.000,7.765,1.053,0.078,1,1,3.266
1777578134843,-0.148,0.934,-0.534,0.055,0.047,0.064,104.689,7.767,1.086,0.096,1,1,3.936
1777578134857,-0.189,0.889,-0.545,0.038,0.064,0.093,105.425,7.877,1.060,0.119,1,1,3.313
1777578134871,-0.128,0.894,-0.546,0.031,0.083,0.115,106.123,7.837,1.055,0.145,1,1,3.250
1777578134885,-0.105,0.935,-0.526,0.037,0.082,0.110,106.701,7.739,1.078,0.142,1,1,3.266
1777578134899,-0.050,0.901,-0.539,0.034,0.071,0.083,107.322,7.519,1.051,0.114,1,1,3.253
1777578134912,-0.066,0.928,-0.500,0.049,0.052,0.080,107.803,7.348,1.056,0.107,1,1,3.854
1777578134927,-0.058,0.848,-0.545,0.033,0.047,0.044,108.456,7.171,1.010,0.072,1,1,3.534
1777578134940,-0.062,0.891,-0.539,0.020,0.038,0.033,109.010,7.008,1.043,0.054,1,1,3.244
1777578134953,-0.062,0.983,-0.499,0.047,0.019,0.030,109.356,6.843,1.105,0.059,1,1,3.257
1777578134967,-0.032,0.948,-0.524,0.048,-0.001,0.023,109.774,6.618,1.084,0.053,1,1,3.274
1777578134982,-0.064,0.912,-0.547,0.053,-0.018,0.025,110.263,6.479,1.066,0.061,1,1,6.273
1777578134996,-0.073,0.953,-0.535,0.079,-0.026,0.019,110.659,6.364,1.095,0.085,1,1,3.270
1777578135010,-0.028,1.030,-0.556,0.104,-0.031,-0.004,110.995,6.146,1.171,0.108,1,1,3.264
1777578135023,-0.161,1.047,-0.526,0.169,-0.025,0.059,111.244,6.220,1.183,0.181,1,1,3.549
1777578135037,-0.172,0.971,-0.549,0.249,0.006,0.126,111.605,6.331,1.129,0.279,1,1,3.261
1777578135051,-0.125,0.950,-0.557,0.253,0.013,0.139,111.989,6.337,1.108,0.290,1,1,4.006
1777578135065,-0.152,0.897,-0.560,0.258,0.039,0.173,112.425,6.418,1.068,0.313,1,1,3.272
1777578135078,-0.123,0.879,-0.562,0.249,0.059,0.208,112.870,6.431,1.051,0.330,1,1,3.385
1777578135092,-0.147,0.854,-0.562,0.227,0.078,0.225,113.330,6.507,1.033,0.329,1,1,3.277
1777578135105,-0.104,0.914,-0.573,0.231,0.096,0.231,113.714,6.463,1.084,0.340,1,1,3.262
1777578135118,-0.105,0.972,-0.578,0.250,0.100,0.251,114.020,6.414,1.136,0.369,1,1,3.964
1777578135133,-0.117,1.088,-0.583,0.328,0.108,0.267,114.203,6.370,1.240,0.437,1,1,3.268
1777578135148,-0.055,1.153,-0.598,0.453,0.113,0.250,114.343,6.197,1.300,0.530,1,1,5.682
1777578135162,-0.008,1.256,-0.595,0.600,0.112,0.205,114.386,5.941,1.390,0.644,1,1,3.266
1777578135175,0.023,1.308,-0.589,0.742,0.097,0.138,114.379,5.641,1.435,0.761,1,1,3.256
1777578135189,0.039,1.332,-0.595,0.909,0.078,0.085,114.367,5.327,1.460,0.916,4,4,3.945
1777578135203,0.025,1.398,-0.575,1.109,0.067,0.038,114.279,5.053,1.512,1.112,4,4,3.257
1777578135216,0.006,1.452,-0.603,1.305,0.048,0.003,114.203,4.822,1.572,1.306,4,4,3.279
1777578135229,-0.053,1.669,-0.569,1.563,0.041,0.018,113.968,4.687,1.765,1.564,4,4,3.380
1777578135245,-0.039,1.765,-0.540,1.895,0.032,-0.005,113.664,4.535,1.846,1.895,4,4,5.612
1777578135259,-0.041,1.906,-0.439,2.343,0.022,-0.019,113.196,4.389,1.956,2.343,4,4,3.931
1777578135273,0.038,2.125,-0.398,2.501,0.025,-0.070,112.646,4.153,2.163,2.502,4,4,3.259
1777578135286,0.029,2.414,-0.429,2.501,-0.022,-0.082,112.097,3.942,2.452,2.503,4,4,3.282
1777578135299,-0.148,2.469,-0.571,2.501,0.053,-0.040,111.700,3.916,2.539,2.502,4,4,3.256
1777578135313,-0.201,2.310,-0.765,2.501,0.150,0.061,111.552,3.952,2.441,2.507,4,4,3.328
1777578135327,-0.087,1.829,-0.758,2.501,0.166,0.380,111.594,3.890,1.982,2.535,4,4,4.253
1777578135342,-0.182,1.898,-0.748,2.501,0.272,0.346,111.590,3.943,2.049,2.540,4,4,4.692
1777578135356,-0.376,2.773,-0.444,2.501,0.257,0.999,111.043,4.104,2.833,2.706,4,4,3.266
1777578135369,-0.218,2.061,0.470,2.501,0.235,1.507,109.561,4.182,2.125,2.930,4,4,3.243
1777578135383,1.998,-2.270,1.097,2.501,-0.721,1.130,101.962,2.320,3.217,2.838,4,4,4.055
1777578135397,0.109,0.253,-0.631,1.596,-0.935,0.487,104.418,1.820,0.689,1.913,4,4,3.862
1777578135411,-0.201,-0.230,-0.118,0.571,-0.951,-0.055,94.726,3.397,0.328,1.110,4,4,3.255
1777578135424,-0.426,-0.104,-0.065,-0.361,-0.842,-0.323,85.238,6.481,0.443,0.971,4,4,3.252
1777578135437,-0.484,0.266,-0.056,-0.914,-0.675,-0.395,85.970,8.851,0.555,1.203,4,4,3.242
1777578135451,-0.292,0.294,0.069,-1.275,-0.555,-0.473,85.570,10.389,0.420,1.469,4,4,3.265
1777578135464,-0.212,0.350,0.084,-1.527,-0.505,-0.496,85.171,11.270,0.418,1.683,4,4,3.922
1777578135478,-0.190,0.255,0.079,-1.773,-0.464,-0.398,84.631,12.324,0.328,1.876,4,4,3.270
1777578135494,-0.188,0.138,0.058,-2.141,-0.427,-0.268,83.875,14.040,0.240,2.200,4,4,3.282
1777578135507,-0.146,0.145,0.045,-2.501,-0.414,-0.221,83.388,15.351,0.210,2.545,4,4,3.277
1777578135521,-0.164,0.293,0.020,-2.501,-0.390,-0.198,83.510,15.953,0.337,2.539,4,4,3.377
1777578135534,-0.186,0.419,-0.047,-2.501,-0.316,-0.107,84.073,16.298,0.461,2.523,4,4,3.983
1777578135548,-0.158,0.490,-0.122,-2.501,-0.226,0.005,84.945,16.346,0.529,2.512,4,4,3.327
1777578135561,-0.140,0.612,-0.231,-2.501,-0.148,0.098,86.069,16.161,0.669,2.508,4,4,3.265
1777578135576,-0.090,0.752,-0.313,-2.501,-0.093,0.138,87.230,15.728,0.819,2.507,4,4,4.142
1777578135589,-0.017,0.834,-0.423,-2.501,-0.094,0.183,88.527,15.085,0.936,2.510,4,4,3.266
1777578135602,0.035,0.950,-0.539,-2.501,-0.129,0.244,89.885,14.346,1.093,2.517,5,5,3.928
1777578135617,0.052,1.132,-0.685,-2.501,-0.175,0.336,91.254,13.620,1.324,2.530,5,5,3.269
1777578135630,0.024,1.250,-0.835,-2.501,-0.209,0.407,92.676,12.984,1.503,2.543,5,5,3.262
1777578135644,-0.028,1.331,-0.999,-2.501,-0.208,0.405,94.171,12.459,1.664,2.542,5,5,4.105
1777578135658,-0.125,1.440,-1.205,-2.501,-0.151,0.413,95.735,12.081,1.881,2.540,5,5,3.288
1777578135671,-0.167,1.495,-1.452,-2.501,-0.055,0.465,97.416,11.753,2.091,2.545,5,5,4.016
1777578135685,-0.165,1.593,-1.637,-2.501,0.041,0.599,99.094,11.420,2.290,2.572,5,5,3.263
1777578135698,-0.109,1.688,-1.888,-2.501,0.069,0.746,100.804,11.028,2.535,2.611,5,5,3.255
1777578135716,-0.111,1.686,-2.212,-2.501,0.040,0.787,102.635,10.645,2.784,2.623,5,5,7.663
1777578135730,-0.219,1.469,-2.448,-2.501,0.010,0.604,104.664,10.372,2.863,2.573,5,5,3.263
1777578135743,-0.351,1.280,-2.616,-2.024,0.044,0.274,106.819,10.219,2.933,2.043,1,1,3.964
1777578135760,-0.145,1.105,-2.628,-1.088,0.107,-0.151,109.022,9.899,2.855,1.103,1,1,3.264
1777578135774,-0.147,0.576,-2.792,-0.477,0.034,0.001,111.616,9.595,2.854,0.478,1,1,4.664
1777578135788,-0.323,0.420,-2.659,0.060,0.033,0.017,114.214,9.475,2.712,0.071,1,1,3.270
1777578135801,-1.237,-4.000,-4.000,1.396,0.255,-0.276,103.315,9.601,5.791,1.446,1,1,3.265
1777578135817,0.197,1.281,0.265,2.237,-0.155,-0.161,102.221,8.807,1.322,2.248,5,5,3.949
1777578135831,0.123,1.354,0.161,2.501,-0.207,-0.353,101.389,8.196,1.369,2.535,5,5,3.275
1777578135847,-0.084,0.864,-0.489,2.501,0.041,-0.289,102.182,8.051,0.996,2.518,5,5,5.647
1777578135860,-0.263,0.837,-0.641,2.437,0.270,-0.172,103.288,8.312,1.087,2.458,5,5,3.268
1777578135874,0.237,0.168,-1.763,1.913,0.218,-0.209,106.405,7.615,1.787,1.937,5,5,3.261
1777578135887,0.104,0.568,-0.832,1.152,0.147,-0.309,108.123,7.024,1.013,1.201,1,1,3.863
1777578135901,0.100,-0.023,-1.177,0.398,-0.168,-0.244,95.572,6.504,1.181,0.496,1,1,3.243
1777578135914,-0.467,0.571,-0.735,0.241,-0.070,-0.143,97.610,7.384,1.041,0.289,1,1,3.282
1777578135928,-0.244,0.908,-0.510,0.176,-0.074,-0.071,98.560,7.637,1.069,0.204,1,1,3.251
1777578135941,-0.230,0.814,-0.590,0.060,-0.004,0.058,99.756,7.867,1.031,0.083,1,1,3.528
1777578135956,-0.138,0.964,-0.505,0.045,0.025,0.085,100.538,7.839,1.097,0.099,1,1,3.864
1777578135970,-0.093,0.946,-0.510,0.038,0.039,0.094,101.317,7.712,1.079,0.109,1,1,3.267
1777578135983,-0.091,0.982,-0.491,0.047,0.047,0.090,101.984,7.581,1.102,0.111,1,1,3.256
1777578135996,-0.077,0.909,-0.529,0.035,0.038,0.067,102.779,7.432,1.055,0.085,1,1,3.254
1777578136010,-0.094,0.918,-0.523,0.028,0.032,0.062,103.519,7.328,1.061,0.075,1,1,3.360
1777578136023,-0.069,0.925,-0.513,0.028,0.023,0.042,104.196,7.171,1.060,0.055,1,1,3.987
1777578136037,-0.083,0.905,-0.516,0.021,0.015,0.025,104.874,7.057,1.045,0.036,1,1,3.281
1777578136051,-0.083,0.925,-0.519,0.025,0.011,0.016,105.505,6.943,1.064,0.032,1,1,3.263
1777578136064,-0.085,0.926,-0.516,0.027,0.006,0.007,106.101,6.839,1.063,0.028,1,1,3.255
1777578136077,-0.101,0.915,-0.521,0.025,0.005,0.013,106.694,6.780,1.058,0.029,1,1,3.271
1777578136091,-0.101,0.913,-0.524,0.022,0.008,0.019,107.270,6.722,1.058,0.030,1,1,3.883
1777578136105,-0.113,0.908,-0.522,0.016,0.016,0.031,107.822,6.698,1.053,0.038,1,1,3.280
1777578136118,-0.112,0.887,-0.528,0.009,0.013,0.029,108.387,6.675,1.038,0.033,1,1,3.245
1777578136131,-0.084,0.910,-0.513,0.014,0.010,0.021,108.869,6.585,1.048,0.027,1,1,3.253
1777578136145,-0.087,0.920,-0.516,0.014,0.012,0.018,109.324,6.504,1.059,0.025,1,1,3.272
1777578136158,-0.078,0.912,-0.518,0.016,0.002,0.006,109.774,6.406,1.052,0.017,1,1,3.891
1777578136172,-0.093,0.921,-0.516,0.021,0.003,0.000,110.189,6.346,1.060,0.021,1,1,3.302
1777578136186,-0.092,0.926,-0.511,0.030,-0.002,-0.004,110.569,6.285,1.062,0.031,1,1,3.255
1777578136199,-0.101,0.926,-0.518,0.036,-0.001,-0.002,110.948,6.248,1.065,0.037,1,1,3.272
1777578136212,-0.104,0.916,-0.525,0.035,0.003,-0.000,111.336,6.220,1.061,0.036,1,1,3.256
1777578136226,-0.104,0.907,-0.525,0.034,0.003,0.005,111.718,6.196,1.053,0.035,1,1,3.936
1777578136240,-0.107,0.915,-0.523,0.037,0.007,0.017,112.069,6.178,1.059,0.041,1,1,3.269
1777578136253,-0.092,0.911,-0.520,0.036,0.010,0.017,112.403,6.127,1.053,0.041,1,1,3.263
1777578136267,-0.102,0.914,-0.522,0.038,0.011,0.022,112.724,6.100,1.057,0.045,1,1,3.267
1777578136280,-0.101,0.907,-0.522,0.038,0.012,0.025,113.039,6.075,1.052,0.047,1,1,3.268
1777578136293,-0.096,0.901,-0.538,0.036,0.018,0.028,113.380,6.039,1.054,0.049,1,1,3.921
1777578136307,-0.104,0.918,-0.520,0.033,0.022,0.037,113.649,6.022,1.060,0.054,1,1,3.267
1777578136321,-0.091,0.912,-0.533,0.031,0.022,0.039,113.941,5.973,1.060,0.054,1,1,3.257
1777578136334,-0.102,0.905,-0.533,0.033,0.026,0.039,114.227,5.955,1.055,0.057,1,1,3.274
1777578136348,-0.110,0.925,-0.527,0.034,0.023,0.051,114.465,5.953,1.070,0.066,1,1,3.920
1777578136362,-0.084,0.933,-0.515,0.041,0.020,0.058,114.659,5.890,1.069,0.074,1,1,3.990
1777578136376,-0.092,0.933,-0.543,0.057,0.016,0.058,114.902,5.846,1.084,0.083,1,1,3.284
1777578136389,-0.080,0.946,-0.537,0.068,0.011,0.058,115.108,5.774,1.091,0.090,1,1,3.266
1777578136404,-0.071,0.928,-0.522,0.069,-0.003,0.077,115.292,5.688,1.067,0.104,1,1,4.616
1777578136417,-0.083,1.020,-0.512,0.095,-0.016,0.125,115.352,5.621,1.144,0.158,1,1,3.277
1777578136431,-0.188,1.341,-0.520,0.226,0.016,0.119,115.170,5.701,1.450,0.256,4,4,4.379
1777578136445,-0.081,0.981,-0.542,0.375,0.051,0.171,115.334,5.632,1.124,0.416,4,4,3.256
1777578136458,-0.172,1.094,-0.553,0.429,0.081,0.205,115.399,5.735,1.238,0.482,4,4,3.253
1777578136472,-0.148,1.178,-0.577,0.501,0.120,0.314,115.430,5.767,1.320,0.604,4,4,3.268
1777578136485,-0.035,1.298,-0.570,0.656,0.141,0.328,115.354,5.577,1.418,0.746,4,4,3.262
1777578136499,-0.134,1.386,-0.561,0.828,0.167,0.277,115.209,5.557,1.501,0.889,4,4,4.734
1777578136514,-0.186,1.507,-0.552,1.057,0.187,0.188,114.987,5.604,1.615,1.090,4,4,3.266
1777578136528,-0.054,1.334,-0.557,1.252,0.173,0.191,114.886,5.452,1.447,1.278,4,4,3.454
1777578136541,0.010,1.403,-0.546,1.443,0.160,0.127,114.727,5.197,1.505,1.457,4,4,3.268
1777578136555,0.112,1.521,-0.513,1.676,0.105,0.067,114.460,4.796,1.609,1.681,4,4,3.364
1777578136569,0.222,1.635,-0.500,1.979,0.057,-0.037,114.134,4.263,1.724,1.980,4,4,3.932
1777578136583,0.221,1.754,-0.522,2.325,-0.003,-0.121,113.804,3.775,1.843,2.328,4,4,3.258
1777578136598,0.226,1.965,-0.481,2.501,-0.078,-0.223,113.364,3.331,2.035,2.512,4,4,4.220
1777578136611,0.192,2.233,-0.492,2.501,-0.154,-0.241,112.886,2.976,2.294,2.518,4,4,3.263
1777578136624,0.207,2.338,-0.567,2.501,-0.203,-0.142,112.481,2.631,2.415,2.513,4,4,3.269
1777578136638,0.168,2.193,-0.617,2.501,-0.211,0.009,112.186,2.332,2.285,2.510,4,4,3.941
1777578136652,0.201,2.095,-0.861,2.501,-0.333,-0.082,112.192,2.008,2.274,2.525,4,4,3.272
1777578136665,0.240,1.867,-0.959,2.501,-0.354,0.129,112.411,1.636,2.113,2.530,4,4,3.267
1777578136679,0.188,2.248,-0.519,2.501,-0.492,0.770,112.000,1.360,2.315,2.663,4,4,3.266
1777578136692,0.348,-0.487,0.384,2.501,-0.522,0.843,104.838,0.017,0.711,2.691,4,4,3.278
1777578136705,-0.259,-3.244,0.782,1.237,-0.774,0.561,96.911,0.210,3.347,1.563,4,4,4.047
1777578136719,-0.659,0.467,-0.717,0.121,-0.227,0.208,99.099,1.846,1.080,0.331,4,4,3.261
1777578136734,-0.458,0.124,0.348,-0.586,0.308,-0.275,95.620,4.000,0.589,0.717,4,4,3.287
1777578136747,-0.584,1.172,-0.081,-0.498,0.667,-0.621,95.547,4.982,1.312,1.038,4,4,3.255
1777578136760,-0.322,0.402,0.126,-0.491,0.885,-0.858,94.544,6.400,0.530,1.327,4,4,3.276
1777578136774,-0.046,-0.017,0.189,-0.903,0.849,-0.962,90.184,6.713,0.196,1.569,4,4,3.939
1777578136788,0.111,-0.075,0.285,-1.482,0.632,-0.839,85.592,5.521,0.315,1.816,4,4,3.263
1777578136801,0.261,-0.019,0.333,-2.043,0.301,-0.658,81.704,3.616,0.424,2.167,4,4,3.265
1777578136815,0.266,0.192,0.299,-2.459,-0.069,-0.378,79.561,1.850,0.444,2.489,4,4,3.248
1777578136828,0.193,0.361,0.194,-2.501,-0.386,-0.058,78.781,0.664,0.453,2.532,4,4,3.271
1777578136841,0.014,0.442,0.057,-2.501,-0.586,0.109,78.948,0.554,0.446,2.571,4,4,3.928
1777578136855,-0.137,0.508,-0.051,-2.501,-0.671,0.103,79.682,1.186,0.528,2.592,4,4,3.263
1777578136870,-0.243,0.589,-0.153,-2.501,-0.648,0.022,80.772,2.088,0.655,2.584,4,4,3.443
1777578136883,-0.305,0.708,-0.269,-2.501,-0.559,-0.016,82.085,2.957,0.816,2.563,4,4,3.372
1777578136897,-0.337,0.760,-0.381,-2.501,-0.395,0.027,83.595,3.773,0.914,2.532,4,4,3.626
1777578136910,-0.318,0.900,-0.506,-2.501,-0.210,0.066,85.158,4.357,1.080,2.511,4,4,3.938
1777578136925,-0.298,1.120,-0.665,-2.501,0.000,0.122,86.712,4.729,1.337,2.504,4,4,3.961
1777578136938,-0.239,1.307,-0.812,-2.501,0.153,0.191,88.249,4.908,1.557,2.513,4,4,3.266
1777578136952,-0.188,1.406,-0.958,-2.501,0.251,0.227,89.825,4.969,1.711,2.524,4,4,3.251
1777578136965,-0.141,1.451,-1.104,-2.501,0.290,0.158,91.462,4.945,1.829,2.523,4,4,3.273
1777578136979,-0.089,1.511,-1.278,-2.501,0.263,0.086,93.157,4.841,1.981,2.517,5,5,3.842
1777578136992,-0.017,1.700,-1.551,-2.501,0.171,0.138,94.872,4.647,2.301,2.511,5,5,3.269
1777578137006,0.056,1.777,-1.787,-2.501,0.000,0.187,96.635,4.389,2.521,2.508,5,5,3.239
1777578137019,-0.011,1.706,-1.996,-2.501,-0.149,0.192,98.508,4.207,2.626,2.513,5,5,3.241
1777578137032,-0.038,1.535,-2.207,-2.459,-0.233,0.003,100.549,4.058,2.688,2.470,5,5,3.270
1777578137047,-0.750,-2.054,-3.260,-1.811,-0.238,-0.570,89.689,4.363,3.926,1.913,1,1,5.482
1777578137064,0.240,1.656,-3.045,-0.255,-0.056,-0.060,92.390,3.999,3.475,0.268,1,1,5.613
1777578137077,-0.577,1.162,-3.265,0.877,0.227,0.065,95.365,4.237,3.513,0.908,1,1,3.255
1777578137090,-1.256,1.445,-3.377,2.243,0.485,-0.032,98.053,4.878,3.882,2.295,1,1,3.263
1777578137104,0.102,0.697,-0.561,1.483,0.472,0.184,99.399,4.380,0.900,1.567,1,1,3.257
1777578137117,0.381,1.493,0.216,1.860,-0.127,-0.070,98.629,3.570,1.556,1.866,5,5,3.930
1777578137131,-0.095,1.068,-0.414,2.055,-0.262,-0.165,99.179,3.621,1.150,2.078,5,5,3.277
1777578137145,-0.241,1.199,-0.213,2.094,-0.043,-0.064,99.217,3.952,1.242,2.095,5,5,3.261
1777578137158,-0.141,1.217,-0.325,2.219,0.139,-0.051,99.468,4.059,1.267,2.224,5,5,3.327
1777578137171,0.236,0.665,-0.788,1.411,0.070,-0.195,101.233,3.317,1.057,1.426,5,5,3.259
1777578137185,-0.366,1.059,-0.215,0.629,-0.229,-0.218,101.244,3.991,1.140,0.704,1,1,3.902
1777578137199,0.113,0.200,-0.869,0.026,-0.114,-0.234,104.121,3.500,0.899,0.261,1,1,3.256
1777578137212,-0.237,1.110,-0.443,0.206,-0.100,-0.117,104.455,3.838,1.218,0.257,1,1,3.262
1777578137225,-0.400,0.624,-0.655,0.042,0.029,0.155,105.851,4.713,0.990,0.164,1,1,3.284
1777578137239,-0.250,0.995,-0.467,0.044,0.095,0.254,106.257,5.067,1.127,0.274,1,1,3.259
1777578137253,0.010,0.985,-0.514,0.093,0.084,0.180,106.751,4.824,1.111,0.219,1,1,4.584
1777578137267,-0.022,0.907,-0.511,0.093,0.057,0.132,107.304,4.667,1.042,0.172,1,1,3.259
1777578137280,0.056,0.939,-0.503,0.105,0.030,0.048,107.780,4.331,1.066,0.120,1,1,3.252
1777578137294,-0.032,0.867,-0.546,0.097,-0.004,-0.023,108.410,4.221,1.025,0.100,1,1,3.279
1777578137307,-0.087,0.885,-0.520,0.078,-0.008,-0.013,108.936,4.248,1.030,0.079,1,1,3.248
1777578137322,-0.057,0.920,-0.509,0.073,-0.019,-0.017,109.374,4.199,1.053,0.077,1,1,5.155
1777578137336,-0.077,0.920,-0.516,0.073,-0.031,-0.032,109.807,4.197,1.058,0.086,1,1,3.264
1777578137350,-0.116,0.906,-0.534,0.073,-0.026,-0.019,110.276,4.288,1.058,0.080,1,1,3.882
1777578137363,-0.115,0.900,-0.532,0.063,-0.015,-0.004,110.727,4.375,1.052,0.065,1,1,3.260
1777578137376,-0.112,0.912,-0.530,0.057,-0.009,0.006,111.141,4.449,1.061,0.058,1,1,3.256
1777578137390,-0.119,0.905,-0.530,0.049,0.003,0.021,111.543,4.536,1.055,0.053,1,1,4.446
1777578137405,-0.107,0.901,-0.535,0.042,0.004,0.025,111.944,4.592,1.053,0.049,1,1,3.434
1777578137419,-0.111,0.903,-0.543,0.035,0.012,0.036,112.341,4.655,1.059,0.052,1,1,3.291
1777578137432,-0.104,0.901,-0.533,0.024,0.014,0.040,112.703,4.699,1.052,0.049,1,1,3.276
1777578137446,-0.097,0.902,-0.535,0.018,0.017,0.036,113.053,4.726,1.053,0.044,1,1,3.260
1777578137459,-0.086,0.900,-0.526,0.011,0.013,0.028,113.369,4.726,1.046,0.033,1,1,3.986
1777578137473,-0.082,0.904,-0.533,0.008,0.009,0.020,113.682,4.713,1.053,0.024,1,1,3.260
1777578137488,-0.083,0.914,-0.523,0.010,0.005,0.014,113.948,4.703,1.056,0.017,1,1,4.801
1777578137501,-0.095,0.906,-0.529,0.006,0.002,0.015,114.225,4.725,1.053,0.017,1,1,3.248
1777578137515,-0.082,0.897,-0.529,0.005,0.001,0.009,114.500,4.715,1.045,0.010,1,1,3.277
1777578137528,-0.107,0.898,-0.536,0.001,0.004,0.017,114.777,4.764,1.052,0.018,1,1,3.873
1777578137544,-0.087,0.905,-0.538,-0.002,0.005,0.021,115.036,4.762,1.056,0.022,1,1,5.268
1777578137558,-0.089,0.895,-0.526,-0.004,0.004,0.017,115.273,4.767,1.042,0.018,1,1,3.257
1777578137571,-0.101,0.903,-0.534,-0.005,0.007,0.027,115.506,4.798,1.054,0.028,1,1,3.380
1777578137585,-0.059,0.912,-0.521,-0.005,-0.001,0.016,115.691,4.729,1.052,0.017,1,1,3.288
1777578137598,-0.089,0.913,-0.535,0.000,-0.003,0.011,115.895,4.733,1.062,0.011,1,1,3.944
1777578137614,-0.083,0.910,-0.531,0.002,-0.003,0.016,116.088,4.723,1.057,0.017,1,1,3.297
1777578137627,-0.085,0.904,-0.526,0.001,-0.008,0.007,116.268,4.720,1.050,0.010,1,1,3.270
1777578137640,-0.076,0.898,-0.535,-0.003,-0.008,0.004,116.466,4.694,1.048,0.009,1,1,3.260
1777578137654,-0.087,0.898,-0.535,-0.006,-0.007,0.006,116.655,4.696,1.049,0.011,1,1,3.269
1777578137667,-0.061,0.901,-0.532,-0.012,-0.012,-0.005,116.826,4.636,1.048,0.017,1,1,3.933
1777578137681,-0.091,0.904,-0.538,-0.014,-0.014,-0.009,116.999,4.650,1.056,0.022,1,1,3.287
1777578137694,-0.085,0.912,-0.529,-0.013,-0.015,-0.011,117.134,4.649,1.058,0.023,1,1,3.265
1777578137709,-0.092,0.906,-0.532,-0.015,-0.016,-0.012,117.277,4.663,1.055,0.025,1,1,3.977
1777578137722,-0.082,0.898,-0.533,-0.019,-0.017,-0.012,117.425,4.655,1.048,0.028,1,1,3.272
